"rt","stimulus","key_press","test_part","trial_type","trial_index","time_elapsed","internal_node_id","totalTime","subject","experiment_name","button_pressed","success","responses","question_order","currentStim","old","correct"
"82134.22999999966","Welcome to the experiment. This is an online experiment so please don't close the tab/window until we say goodbye.  Press any key to begin.","32","instructions","html-keyboard-response","0","82192","0.0-0.0","2931633","co39367","norming","","","","","","",""
"30505.25000000016","<div style='word-wrap: break-word; width: 900px'><h3>Please consider this information carefully before deciding whether to participate in this research</h3><ul style='text-align: left; font-size: .8em;'><li><b>Purpose of the research</b>: To examine how people process images.</li><li><b>What you will do in this research</b>:  Stimuli (images) will be presented on the computer and you will be asked different questions about them.</li><li><b>Time required</b>: Participation will take between 45 and 60 minutes to complete.</li><li><b>Risks</b>:  There are no anticipated risks associated with participating in this study. The effects of participating should be comparable to those you would experience from viewing a computer monitor for 30 minutes and using a mouse or keyboard.</li><li><b>Benefits</b>:  This study provides no benefits to you individually except for the credit. The study provides important information about the nature of perception and learning.</li><li><b>Confidentiality</b>:  Your participation in this study will remain confidential. No personally identifiable information will be associated with your data. Your de-identified data may be shared with other researchers and used in future projects.</li><li><b>Participation and withdrawal</b>:  Your participation in this study is completely voluntary and you may refuse to participate or you may choose to withdraw at any time without penalty.</li><li><b>How to contact the researchers</b>: If you have questions or concerns about your participation or payment, or want to request a summary of research findings, please contact Sander Van de Cruys (KU Leuven), at sander.vandecruys@kuleuven.be.</li></ul><p>The nature and purpose of this research have been sufficiently explained and I agree to participate in this study.  I understand that I am free to withdraw at any time without incurring any penalty.</p><p>Please consent by clicking the button below to continue. Otherwise, please exit the study at this time.</p></div>","","instructions","html-button-response","1","112701","0.0-1.0","2931633","co39367","norming","0","","","","","",""
"","","","instructions","fullscreen","2","119109","0.0-2.0","2931633","co39367","norming","","true","","","","",""
"54142.240000000136","","","sona","survey-html-form","3","173251","0.0-3.0","2931633","co39367","norming","","","[{""name"":""sonaid"",""value"":""39367""},{""name"":""debrief"",""value"":""yes""},{""name"":""datajoin"",""value"":""yes""}]","","","",""
"93940.16499999995","<div style='word-wrap: break-word; width: 900px'><h3>Instructions</h3><p>This experiment will have 3 parts. In the first part you will see a series of distorted images like the one below on the left. As you can see in the righthand image, the distorted images are derived from actual photographs. In what follows, you will <strong>briefly</strong> be presented with <strong>only</strong> the distorted image.</p> <div style='float: left; margin-right: 20px;'><img src='../img/018tt.jpg' height='250' width='250'></img></div><div style='float: right; margin-left: 20px;'><img src='../img/018gs.jpg' height='250' width='250'></img></div><p>Subsequently you will be asked a few questions about the image: One question on how <strong>curious</strong> you are about the solution and one on how <strong>confident</strong> you are that you know the solution.</p>Next, we ask you to make a guess on what is in the image. Note that it is OK to name just the <strong>basic level category</strong>. For example when you see a parrot in the image, 'parrot' will obviously be a correct answer but also correct is 'bird'. However, 'animal' will <strong>not</strong> be counted as a correct response. For the example above, 'rose' would be correct or 'flower', but not 'plant'. When soccer players are depicted, 'soccer', 'football', 'soccer players' will be correct, but not 'humans', 'outdoors', or 'sports'. You do not need to describe the image in full, just name the main object in it <strong>in one or two words</strong>. All images depict objects from one of the following broad level categories: animals, inanimate objects, plants, sports, vehicles, and food. Recognizing means knowing <strong>more</strong> than these broad labels for a given image. But we always encourage you to <strong>make a guess</strong> if you can. Note that you are allowed to use <strong>Dutch and English</strong> in your answers, whatever comes easiest for you.</p><p>Press any key to continue.</p></div>","32","instructions","html-keyboard-response","4","267196","0.0-4.0","2931633","co39367","norming","","","","","","",""
"23069.36000000045","<div style='word-wrap: break-word; width: 900px'><h3>Instructions</h3> <p>Next, the solution image will be revealed to you and you'll be asked to indicate how strong your <strong>aha-experience</strong> was after seeing the solution. This describes the positive feeling of the 'click' you sometimes experience, when the pieces of the 'puzzle' fall together and you suddenly have 'insight' in the image.</p><img src='aha.jpg' height='188' width='250'></img><p>Note that there are no right or wrong answers. We are interested in what <strong>you</strong> see in the image and how <strong>you</strong> feel about it.</p><p>Press any key to start the experiment.</p></div>","32","instructions","html-keyboard-response","5","290267","0.0-5.0","2931633","co39367","norming","","","","","","",""
"null","<div style=""font-size:60px;""> </div>","null","fixation","html-keyboard-response","6","290473","0.0-6.0-0.0","2931633","co39367","norming","","","","","","",""
"null","../img/tt/1171tt.jpg","null","mooney1","image-keyboard-response","7","293484","0.0-6.0-1.0","2931633","co39367","norming","","","","","","",""
"27083.83500000037","","","post_mooney1_questions","survey-likert","8","320571","0.0-6.0-2.0","2931633","co39367","norming","","","{""curiosity"":5,""confidence"":0}","[0,1]","../img/tt/1171tt.jpg","",""
"11613.184999999241","","","recognition","survey-text","9","332186","0.0-6.0-3.0","2931633","co39367","norming","","","{""guess"":""mask""}","","../img/tt/1171tt.jpg","",""
"null","../img/gs/1171gs.jpg","null","reveal","image-keyboard-response","10","334196","0.0-6.0-4.0","2931633","co39367","norming","","","","","","",""
"null","../img/tt/1171tt.jpg","null","mooney2","image-keyboard-response","11","336207","0.0-6.0-5.0","2931633","co39367","norming","","","","","","",""
"7321.324999999895","","","post_reveal_questions","survey-likert","12","343531","0.0-6.0-6.0","2931633","co39367","norming","","","{""aha"":3}","[0]","../img/tt/1171tt.jpg","",""
"null","<div style=""font-size:60px;""> </div>","null","fixation","html-keyboard-response","13","343733","0.0-6.0-0.1","2931633","co39367","norming","","","","","","",""
"null","../img/tt/1232tt.jpg","null","mooney1","image-keyboard-response","14","346743","0.0-6.0-1.1","2931633","co39367","norming","","","","","","",""
"5619.43499999959","","","post_mooney1_questions","survey-likert","15","352363","0.0-6.0-2.1","2931633","co39367","norming","","","{""curiosity"":3,""confidence"":2}","[0,1]","../img/tt/1232tt.jpg","",""
"3405.784999999916","","","recognition","survey-text","16","355770","0.0-6.0-3.1","2931633","co39367","norming","","","{""guess"":""bird""}","","../img/tt/1232tt.jpg","",""
"null","../img/gs/1232gs.jpg","null","reveal","image-keyboard-response","17","357775","0.0-6.0-4.1","2931633","co39367","norming","","","","","","",""
"null","../img/tt/1232tt.jpg","null","mooney2","image-keyboard-response","18","359783","0.0-6.0-5.1","2931633","co39367","norming","","","","","","",""
"4152.935000000056","","","post_reveal_questions","survey-likert","19","363938","0.0-6.0-6.1","2931633","co39367","norming","","","{""aha"":0}","[0]","../img/tt/1232tt.jpg","",""
"null","<div style=""font-size:60px;""> </div>","null","fixation","html-keyboard-response","20","364139","0.0-6.0-0.2","2931633","co39367","norming","","","","","","",""
"null","../img/tt/477tt.jpg","null","mooney1","image-keyboard-response","21","367142","0.0-6.0-1.2","2931633","co39367","norming","","","","","","",""
"8033.85999999952","","","post_mooney1_questions","survey-likert","22","375179","0.0-6.0-2.2","2931633","co39367","norming","","","{""curiosity"":5,""confidence"":0}","[0,1]","../img/tt/477tt.jpg","",""
"2062.144999999902","","","recognition","survey-text","23","377243","0.0-6.0-3.2","2931633","co39367","norming","","","{""guess"":""dog""}","","../img/tt/477tt.jpg","",""
"null","../img/gs/477gs.jpg","null","reveal","image-keyboard-response","24","379244","0.0-6.0-4.2","2931633","co39367","norming","","","","","","",""
"null","../img/tt/477tt.jpg","null","mooney2","image-keyboard-response","25","381247","0.0-6.0-5.2","2931633","co39367","norming","","","","","","",""
"2817.2549999999464","","","post_reveal_questions","survey-likert","26","384067","0.0-6.0-6.2","2931633","co39367","norming","","","{""aha"":3}","[0]","../img/tt/477tt.jpg","",""
"null","<div style=""font-size:60px;""> </div>","null","fixation","html-keyboard-response","27","384277","0.0-6.0-0.3","2931633","co39367","norming","","","","","","",""
"null","../img/tt/1255tt.jpg","null","mooney1","image-keyboard-response","28","387283","0.0-6.0-1.3","2931633","co39367","norming","","","","","","",""
"4109.034999999509","","","post_mooney1_questions","survey-likert","29","391391","0.0-6.0-2.3","2931633","co39367","norming","","","{""curiosity"":6,""confidence"":0}","[0,1]","../img/tt/1255tt.jpg","",""
"7478.32500000007","","","recognition","survey-text","30","398870","0.0-6.0-3.3","2931633","co39367","norming","","","{""guess"":""child""}","","../img/tt/1255tt.jpg","",""
"null","../img/gs/1255gs.jpg","null","reveal","image-keyboard-response","31","400878","0.0-6.0-4.3","2931633","co39367","norming","","","","","","",""
"null","../img/tt/1255tt.jpg","null","mooney2","image-keyboard-response","32","402880","0.0-6.0-5.3","2931633","co39367","norming","","","","","","",""
"3236.4499999994296","","","post_reveal_questions","survey-likert","33","406118","0.0-6.0-6.3","2931633","co39367","norming","","","{""aha"":5}","[0]","../img/tt/1255tt.jpg","",""
"null","<div style=""font-size:60px;""> </div>","null","fixation","html-keyboard-response","34","406328","0.0-6.0-0.4","2931633","co39367","norming","","","","","","",""
"null","../img/tt/590tt.jpg","null","mooney1","image-keyboard-response","35","409340","0.0-6.0-1.4","2931633","co39367","norming","","","","","","",""
"7807.925000000105","","","post_mooney1_questions","survey-likert","36","417151","0.0-6.0-2.4","2931633","co39367","norming","","","{""curiosity"":4,""confidence"":0}","[0,1]","../img/tt/590tt.jpg","",""
"7550.185000000056","","","recognition","survey-text","37","424702","0.0-6.0-3.4","2931633","co39367","norming","","","{""guess"":""""}","","../img/tt/590tt.jpg","",""
"null","../img/gs/590gs.jpg","null","reveal","image-keyboard-response","38","426707","0.0-6.0-4.4","2931633","co39367","norming","","","","","","",""
"null","../img/tt/590tt.jpg","null","mooney2","image-keyboard-response","39","428718","0.0-6.0-5.4","2931633","co39367","norming","","","","","","",""
"3831.019999999611","","","post_reveal_questions","survey-likert","40","432551","0.0-6.0-6.4","2931633","co39367","norming","","","{""aha"":5}","[0]","../img/tt/590tt.jpg","",""
"null","<div style=""font-size:60px;""> </div>","null","fixation","html-keyboard-response","41","432760","0.0-6.0-0.5","2931633","co39367","norming","","","","","","",""
"null","../img/tt/522tt.jpg","null","mooney1","image-keyboard-response","42","435771","0.0-6.0-1.5","2931633","co39367","norming","","","","","","",""
"6049.33999999956","","","post_mooney1_questions","survey-likert","43","441823","0.0-6.0-2.5","2931633","co39367","norming","","","{""curiosity"":6,""confidence"":0}","[0,1]","../img/tt/522tt.jpg","",""
"3046.2100000004284","","","recognition","survey-text","44","444871","0.0-6.0-3.5","2931633","co39367","norming","","","{""guess"":""dog""}","","../img/tt/522tt.jpg","",""
"null","../img/gs/522gs.jpg","null","reveal","image-keyboard-response","45","446873","0.0-6.0-4.5","2931633","co39367","norming","","","","","","",""
"null","../img/tt/522tt.jpg","null","mooney2","image-keyboard-response","46","448878","0.0-6.0-5.5","2931633","co39367","norming","","","","","","",""
"3078.210000000603","","","post_reveal_questions","survey-likert","47","451962","0.0-6.0-6.5","2931633","co39367","norming","","","{""aha"":6}","[0]","../img/tt/522tt.jpg","",""
"null","<div style=""font-size:60px;""> </div>","null","fixation","html-keyboard-response","48","452163","0.0-6.0-0.6","2931633","co39367","norming","","","","","","",""
"null","../img/tt/306tt.jpg","null","mooney1","image-keyboard-response","49","455166","0.0-6.0-1.6","2931633","co39367","norming","","","","","","",""
"4456.5550000006915","","","post_mooney1_questions","survey-likert","50","459626","0.0-6.0-2.6","2931633","co39367","norming","","","{""curiosity"":5,""confidence"":0}","[0,1]","../img/tt/306tt.jpg","",""
"6814.1900000000605","","","recognition","survey-text","51","466441","0.0-6.0-3.6","2931633","co39367","norming","","","{""guess"":""schoen""}","","../img/tt/306tt.jpg","",""
"null","../img/gs/306gs.jpg","null","reveal","image-keyboard-response","52","468450","0.0-6.0-4.6","2931633","co39367","norming","","","","","","",""
"null","../img/tt/306tt.jpg","null","mooney2","image-keyboard-response","53","470461","0.0-6.0-5.6","2931633","co39367","norming","","","","","","",""
"2314.734999999928","","","post_reveal_questions","survey-likert","54","472778","0.0-6.0-6.6","2931633","co39367","norming","","","{""aha"":4}","[0]","../img/tt/306tt.jpg","",""
"null","<div style=""font-size:60px;""> </div>","null","fixation","html-keyboard-response","55","472985","0.0-6.0-0.7","2931633","co39367","norming","","","","","","",""
"null","../img/tt/163tt.jpg","null","mooney1","image-keyboard-response","56","475989","0.0-6.0-1.7","2931633","co39367","norming","","","","","","",""
"5716.194999999949","","","post_mooney1_questions","survey-likert","57","481706","0.0-6.0-2.7","2931633","co39367","norming","","","{""curiosity"":4,""confidence"":1}","[0,1]","../img/tt/163tt.jpg","",""
"5462.155000000144","","","recognition","survey-text","58","487170","0.0-6.0-3.7","2931633","co39367","norming","","","{""guess"":""kikker""}","","../img/tt/163tt.jpg","",""
"null","../img/gs/163gs.jpg","null","reveal","image-keyboard-response","59","489176","0.0-6.0-4.7","2931633","co39367","norming","","","","","","",""
"null","../img/tt/163tt.jpg","null","mooney2","image-keyboard-response","60","491182","0.0-6.0-5.7","2931633","co39367","norming","","","","","","",""
"3049.535000000091","","","post_reveal_questions","survey-likert","61","494234","0.0-6.0-6.7","2931633","co39367","norming","","","{""aha"":1}","[0]","../img/tt/163tt.jpg","",""
"null","<div style=""font-size:60px;""> </div>","null","fixation","html-keyboard-response","62","494438","0.0-6.0-0.8","2931633","co39367","norming","","","","","","",""
"null","../img/tt/194tt.jpg","null","mooney1","image-keyboard-response","63","497446","0.0-6.0-1.8","2931633","co39367","norming","","","","","","",""
"5985.040000000445","","","post_mooney1_questions","survey-likert","64","503434","0.0-6.0-2.8","2931633","co39367","norming","","","{""curiosity"":5,""confidence"":5}","[0,1]","../img/tt/194tt.jpg","",""
"2590.2500000001746","","","recognition","survey-text","65","506026","0.0-6.0-3.8","2931633","co39367","norming","","","{""guess"":""harp""}","","../img/tt/194tt.jpg","",""
"null","../img/gs/194gs.jpg","null","reveal","image-keyboard-response","66","508032","0.0-6.0-4.8","2931633","co39367","norming","","","","","","",""
"null","../img/tt/194tt.jpg","null","mooney2","image-keyboard-response","67","510037","0.0-6.0-5.8","2931633","co39367","norming","","","","","","",""
"3875.844999999623","","","post_reveal_questions","survey-likert","68","513914","0.0-6.0-6.8","2931633","co39367","norming","","","{""aha"":0}","[0]","../img/tt/194tt.jpg","",""
"null","<div style=""font-size:60px;""> </div>","null","fixation","html-keyboard-response","69","514117","0.0-6.0-0.9","2931633","co39367","norming","","","","","","",""
"null","../img/tt/1235tt.jpg","null","mooney1","image-keyboard-response","70","517123","0.0-6.0-1.9","2931633","co39367","norming","","","","","","",""
"4316.7649999996065","","","post_mooney1_questions","survey-likert","71","521443","0.0-6.0-2.9","2931633","co39367","norming","","","{""curiosity"":3,""confidence"":1}","[0,1]","../img/tt/1235tt.jpg","",""
"2342.1900000002934","","","recognition","survey-text","72","523787","0.0-6.0-3.9","2931633","co39367","norming","","","{""guess"":""koe""}","","../img/tt/1235tt.jpg","",""
"null","../img/gs/1235gs.jpg","null","reveal","image-keyboard-response","73","525794","0.0-6.0-4.9","2931633","co39367","norming","","","","","","",""
"null","../img/tt/1235tt.jpg","null","mooney2","image-keyboard-response","74","527798","0.0-6.0-5.9","2931633","co39367","norming","","","","","","",""
"3785.799999999581","","","post_reveal_questions","survey-likert","75","531586","0.0-6.0-6.9","2931633","co39367","norming","","","{""aha"":3}","[0]","../img/tt/1235tt.jpg","",""
"null","<div style=""font-size:60px;""> </div>","null","fixation","html-keyboard-response","76","531796","0.0-6.0-0.10","2931633","co39367","norming","","","","","","",""
"null","../img/tt/1027tt.jpg","null","mooney1","image-keyboard-response","77","534799","0.0-6.0-1.10","2931633","co39367","norming","","","","","","",""
"4025.1699999999255","","","post_mooney1_questions","survey-likert","78","538827","0.0-6.0-2.10","2931633","co39367","norming","","","{""curiosity"":2,""confidence"":4}","[0,1]","../img/tt/1027tt.jpg","",""
"1422.0150000001304","","","recognition","survey-text","79","540250","0.0-6.0-3.10","2931633","co39367","norming","","","{""guess"":""koe""}","","../img/tt/1027tt.jpg","",""
"null","../img/gs/1027gs.jpg","null","reveal","image-keyboard-response","80","542252","0.0-6.0-4.10","2931633","co39367","norming","","","","","","",""
"null","../img/tt/1027tt.jpg","null","mooney2","image-keyboard-response","81","544258","0.0-6.0-5.10","2931633","co39367","norming","","","","","","",""
"4782.245000000345","","","post_reveal_questions","survey-likert","82","549043","0.0-6.0-6.10","2931633","co39367","norming","","","{""aha"":1}","[0]","../img/tt/1027tt.jpg","",""
"null","<div style=""font-size:60px;""> </div>","null","fixation","html-keyboard-response","83","549244","0.0-6.0-0.11","2931633","co39367","norming","","","","","","",""
"null","../img/tt/603tt.jpg","null","mooney1","image-keyboard-response","84","552251","0.0-6.0-1.11","2931633","co39367","norming","","","","","","",""
"7493.699999999953","","","post_mooney1_questions","survey-likert","85","559747","0.0-6.0-2.11","2931633","co39367","norming","","","{""curiosity"":3,""confidence"":1}","[0,1]","../img/tt/603tt.jpg","",""
"2598.200000000419","","","recognition","survey-text","86","562347","0.0-6.0-3.11","2931633","co39367","norming","","","{""guess"":""kat""}","","../img/tt/603tt.jpg","",""
"null","../img/gs/603gs.jpg","null","reveal","image-keyboard-response","87","564354","0.0-6.0-4.11","2931633","co39367","norming","","","","","","",""
"null","../img/tt/603tt.jpg","null","mooney2","image-keyboard-response","88","566364","0.0-6.0-5.11","2931633","co39367","norming","","","","","","",""
"2108.0849999998463","","","post_reveal_questions","survey-likert","89","568475","0.0-6.0-6.11","2931633","co39367","norming","","","{""aha"":1}","[0]","../img/tt/603tt.jpg","",""
"null","<div style=""font-size:60px;""> </div>","null","fixation","html-keyboard-response","90","568678","0.0-6.0-0.12","2931633","co39367","norming","","","","","","",""
"null","../img/tt/105tt.jpg","null","mooney1","image-keyboard-response","91","571685","0.0-6.0-1.12","2931633","co39367","norming","","","","","","",""
"4483.535000000265","","","post_mooney1_questions","survey-likert","92","576173","0.0-6.0-2.12","2931633","co39367","norming","","","{""curiosity"":5,""confidence"":0}","[0,1]","../img/tt/105tt.jpg","",""
"3486.030000000028","","","recognition","survey-text","93","579661","0.0-6.0-3.12","2931633","co39367","norming","","","{""guess"":""vlinder""}","","../img/tt/105tt.jpg","",""
"null","../img/gs/105gs.jpg","null","reveal","image-keyboard-response","94","581664","0.0-6.0-4.12","2931633","co39367","norming","","","","","","",""
"null","../img/tt/105tt.jpg","null","mooney2","image-keyboard-response","95","583669","0.0-6.0-5.12","2931633","co39367","norming","","","","","","",""
"2165.555000000517","","","post_reveal_questions","survey-likert","96","585837","0.0-6.0-6.12","2931633","co39367","norming","","","{""aha"":4}","[0]","../img/tt/105tt.jpg","",""
"null","<div style=""font-size:60px;""> </div>","null","fixation","html-keyboard-response","97","586041","0.0-6.0-0.13","2931633","co39367","norming","","","","","","",""
"null","../img/tt/056tt.jpg","null","mooney1","image-keyboard-response","98","589050","0.0-6.0-1.13","2931633","co39367","norming","","","","","","",""
"3976.7700000002515","","","post_mooney1_questions","survey-likert","99","593029","0.0-6.0-2.13","2931633","co39367","norming","","","{""curiosity"":4,""confidence"":1}","[0,1]","../img/tt/056tt.jpg","",""
"1622.4750000000931","","","recognition","survey-text","100","594653","0.0-6.0-3.13","2931633","co39367","norming","","","{""guess"":""wolf""}","","../img/tt/056tt.jpg","",""
"null","../img/gs/056gs.jpg","null","reveal","image-keyboard-response","101","596654","0.0-6.0-4.13","2931633","co39367","norming","","","","","","",""
"null","../img/tt/056tt.jpg","null","mooney2","image-keyboard-response","102","598657","0.0-6.0-5.13","2931633","co39367","norming","","","","","","",""
"2177.8600000006845","","","post_reveal_questions","survey-likert","103","600837","0.0-6.0-6.13","2931633","co39367","norming","","","{""aha"":4}","[0]","../img/tt/056tt.jpg","",""
"null","<div style=""font-size:60px;""> </div>","null","fixation","html-keyboard-response","104","601044","0.0-6.0-0.14","2931633","co39367","norming","","","","","","",""
"null","../img/tt/1254tt.jpg","null","mooney1","image-keyboard-response","105","604054","0.0-6.0-1.14","2931633","co39367","norming","","","","","","",""
"4141.499999999651","","","post_mooney1_questions","survey-likert","106","608197","0.0-6.0-2.14","2931633","co39367","norming","","","{""curiosity"":5,""confidence"":0}","[0,1]","../img/tt/1254tt.jpg","",""
"2422.2200000004377","","","recognition","survey-text","107","610621","0.0-6.0-3.14","2931633","co39367","norming","","","{""guess"":""konijn""}","","../img/tt/1254tt.jpg","",""
"null","../img/gs/1254gs.jpg","null","reveal","image-keyboard-response","108","612625","0.0-6.0-4.14","2931633","co39367","norming","","","","","","",""
"null","../img/tt/1254tt.jpg","null","mooney2","image-keyboard-response","109","614635","0.0-6.0-5.14","2931633","co39367","norming","","","","","","",""
"2719.905000000843","","","post_reveal_questions","survey-likert","110","617357","0.0-6.0-6.14","2931633","co39367","norming","","","{""aha"":0}","[0]","../img/tt/1254tt.jpg","",""
"null","<div style=""font-size:60px;""> </div>","null","fixation","html-keyboard-response","111","617558","0.0-6.0-0.15","2931633","co39367","norming","","","","","","",""
"null","../img/tt/1227tt.jpg","null","mooney1","image-keyboard-response","112","620561","0.0-6.0-1.15","2931633","co39367","norming","","","","","","",""
"3945.405000000377","","","post_mooney1_questions","survey-likert","113","624509","0.0-6.0-2.15","2931633","co39367","norming","","","{""curiosity"":6,""confidence"":0}","[0,1]","../img/tt/1227tt.jpg","",""
"933.4200000002747","","","recognition","survey-text","114","625445","0.0-6.0-3.15","2931633","co39367","norming","","","{""guess"":""""}","","../img/tt/1227tt.jpg","",""
"null","../img/gs/1227gs.jpg","null","reveal","image-keyboard-response","115","627448","0.0-6.0-4.15","2931633","co39367","norming","","","","","","",""
"null","../img/tt/1227tt.jpg","null","mooney2","image-keyboard-response","116","629454","0.0-6.0-5.15","2931633","co39367","norming","","","","","","",""
"3397.119999999646","","","post_reveal_questions","survey-likert","117","632853","0.0-6.0-6.15","2931633","co39367","norming","","","{""aha"":5}","[0]","../img/tt/1227tt.jpg","",""
"null","<div style=""font-size:60px;""> </div>","null","fixation","html-keyboard-response","118","633056","0.0-6.0-0.16","2931633","co39367","norming","","","","","","",""
"null","../img/tt/1200tt.jpg","null","mooney1","image-keyboard-response","119","636061","0.0-6.0-1.16","2931633","co39367","norming","","","","","","",""
"3457.6750000005122","","","post_mooney1_questions","survey-likert","120","639520","0.0-6.0-2.16","2931633","co39367","norming","","","{""curiosity"":4,""confidence"":0}","[0,1]","../img/tt/1200tt.jpg","",""
"3550.1100000001024","","","recognition","survey-text","121","643072","0.0-6.0-3.16","2931633","co39367","norming","","","{""guess"":""schildpad""}","","../img/tt/1200tt.jpg","",""
"null","../img/gs/1200gs.jpg","null","reveal","image-keyboard-response","122","645080","0.0-6.0-4.16","2931633","co39367","norming","","","","","","",""
"null","../img/tt/1200tt.jpg","null","mooney2","image-keyboard-response","123","647091","0.0-6.0-5.16","2931633","co39367","norming","","","","","","",""
"2234.4849999998696","","","post_reveal_questions","survey-likert","124","649328","0.0-6.0-6.16","2931633","co39367","norming","","","{""aha"":3}","[0]","../img/tt/1200tt.jpg","",""
"null","<div style=""font-size:60px;""> </div>","null","fixation","html-keyboard-response","125","649536","0.0-6.0-0.17","2931633","co39367","norming","","","","","","",""
"null","../img/tt/1236tt.jpg","null","mooney1","image-keyboard-response","126","652540","0.0-6.0-1.17","2931633","co39367","norming","","","","","","",""
"5217.475000000326","","","post_mooney1_questions","survey-likert","127","657760","0.0-6.0-2.17","2931633","co39367","norming","","","{""curiosity"":3,""confidence"":1}","[0,1]","../img/tt/1236tt.jpg","",""
"3805.95999999973","","","recognition","survey-text","128","661568","0.0-6.0-3.17","2931633","co39367","norming","","","{""guess"":""vogel""}","","../img/tt/1236tt.jpg","",""
"null","../img/gs/1236gs.jpg","null","reveal","image-keyboard-response","129","663571","0.0-6.0-4.17","2931633","co39367","norming","","","","","","",""
"null","../img/tt/1236tt.jpg","null","mooney2","image-keyboard-response","130","665574","0.0-6.0-5.17","2931633","co39367","norming","","","","","","",""
"4655.679999999935","","","post_reveal_questions","survey-likert","131","670232","0.0-6.0-6.17","2931633","co39367","norming","","","{""aha"":1}","[0]","../img/tt/1236tt.jpg","",""
"null","<div style=""font-size:60px;""> </div>","null","fixation","html-keyboard-response","132","670439","0.0-6.0-0.18","2931633","co39367","norming","","","","","","",""
"null","../img/tt/599tt.jpg","null","mooney1","image-keyboard-response","133","673443","0.0-6.0-1.18","2931633","co39367","norming","","","","","","",""
"4634.109999999986","","","post_mooney1_questions","survey-likert","134","678080","0.0-6.0-2.18","2931633","co39367","norming","","","{""curiosity"":5,""confidence"":1}","[0,1]","../img/tt/599tt.jpg","",""
"1630.1850000000559","","","recognition","survey-text","135","679712","0.0-6.0-3.18","2931633","co39367","norming","","","{""guess"":""eend""}","","../img/tt/599tt.jpg","",""
"null","../img/gs/599gs.jpg","null","reveal","image-keyboard-response","136","681713","0.0-6.0-4.18","2931633","co39367","norming","","","","","","",""
"null","../img/tt/599tt.jpg","null","mooney2","image-keyboard-response","137","683724","0.0-6.0-5.18","2931633","co39367","norming","","","","","","",""
"2154.725000000326","","","post_reveal_questions","survey-likert","138","685880","0.0-6.0-6.18","2931633","co39367","norming","","","{""aha"":4}","[0]","../img/tt/599tt.jpg","",""
"null","<div style=""font-size:60px;""> </div>","null","fixation","html-keyboard-response","139","686082","0.0-6.0-0.19","2931633","co39367","norming","","","","","","",""
"null","../img/tt/1096tt.jpg","null","mooney1","image-keyboard-response","140","689094","0.0-6.0-1.19","2931633","co39367","norming","","","","","","",""
"4927.480000000331","","","post_mooney1_questions","survey-likert","141","694024","0.0-6.0-2.19","2931633","co39367","norming","","","{""curiosity"":3,""confidence"":3}","[0,1]","../img/tt/1096tt.jpg","",""
"3062.2249999996275","","","recognition","survey-text","142","697088","0.0-6.0-3.19","2931633","co39367","norming","","","{""guess"":""paard""}","","../img/tt/1096tt.jpg","",""
"null","../img/gs/1096gs.jpg","null","reveal","image-keyboard-response","143","699089","0.0-6.0-4.19","2931633","co39367","norming","","","","","","",""
"null","../img/tt/1096tt.jpg","null","mooney2","image-keyboard-response","144","701090","0.0-6.0-5.19","2931633","co39367","norming","","","","","","",""
"1371.464999999269","","","post_reveal_questions","survey-likert","145","702464","0.0-6.0-6.19","2931633","co39367","norming","","","{""aha"":0}","[0]","../img/tt/1096tt.jpg","",""
"null","<div style=""font-size:60px;""> </div>","null","fixation","html-keyboard-response","146","702669","0.0-6.0-0.20","2931633","co39367","norming","","","","","","",""
"null","../img/tt/1283tt.jpg","null","mooney1","image-keyboard-response","147","705680","0.0-6.0-1.20","2931633","co39367","norming","","","","","","",""
"4005.194999999716","","","post_mooney1_questions","survey-likert","148","709688","0.0-6.0-2.20","2931633","co39367","norming","","","{""curiosity"":5,""confidence"":0}","[0,1]","../img/tt/1283tt.jpg","",""
"2342.1250000001164","","","recognition","survey-text","149","712032","0.0-6.0-3.20","2931633","co39367","norming","","","{""guess"":""hond""}","","../img/tt/1283tt.jpg","",""
"null","../img/gs/1283gs.jpg","null","reveal","image-keyboard-response","150","714034","0.0-6.0-4.20","2931633","co39367","norming","","","","","","",""
"null","../img/tt/1283tt.jpg","null","mooney2","image-keyboard-response","151","716040","0.0-6.0-5.20","2931633","co39367","norming","","","","","","",""
"3614.3150000006426","","","post_reveal_questions","survey-likert","152","719656","0.0-6.0-6.20","2931633","co39367","norming","","","{""aha"":4}","[0]","../img/tt/1283tt.jpg","",""
"null","<div style=""font-size:60px;""> </div>","null","fixation","html-keyboard-response","153","719862","0.0-6.0-0.21","2931633","co39367","norming","","","","","","",""
"null","../img/tt/406tt.jpg","null","mooney1","image-keyboard-response","154","722872","0.0-6.0-1.21","2931633","co39367","norming","","","","","","",""
"4269.264999999898","","","post_mooney1_questions","survey-likert","155","727144","0.0-6.0-2.21","2931633","co39367","norming","","","{""curiosity"":2,""confidence"":3}","[0,1]","../img/tt/406tt.jpg","",""
"3926.190000000177","","","recognition","survey-text","156","731072","0.0-6.0-3.21","2931633","co39367","norming","","","{""guess"":""vleermuis""}","","../img/tt/406tt.jpg","",""
"null","../img/gs/406gs.jpg","null","reveal","image-keyboard-response","157","733078","0.0-6.0-4.21","2931633","co39367","norming","","","","","","",""
"null","../img/tt/406tt.jpg","null","mooney2","image-keyboard-response","158","735080","0.0-6.0-5.21","2931633","co39367","norming","","","","","","",""
"1901.0600000001723","","","post_reveal_questions","survey-likert","159","736984","0.0-6.0-6.21","2931633","co39367","norming","","","{""aha"":0}","[0]","../img/tt/406tt.jpg","",""
"null","<div style=""font-size:60px;""> </div>","null","fixation","html-keyboard-response","160","737186","0.0-6.0-0.22","2931633","co39367","norming","","","","","","",""
"null","../img/tt/436tt.jpg","null","mooney1","image-keyboard-response","161","740193","0.0-6.0-1.22","2931633","co39367","norming","","","","","","",""
"4220.194999999949","","","post_mooney1_questions","survey-likert","162","744416","0.0-6.0-2.22","2931633","co39367","norming","","","{""curiosity"":3,""confidence"":1}","[0,1]","../img/tt/436tt.jpg","",""
"1502.0699999995995","","","recognition","survey-text","163","745919","0.0-6.0-3.22","2931633","co39367","norming","","","{""guess"":""kat""}","","../img/tt/436tt.jpg","",""
"null","../img/gs/436gs.jpg","null","reveal","image-keyboard-response","164","747925","0.0-6.0-4.22","2931633","co39367","norming","","","","","","",""
"null","../img/tt/436tt.jpg","null","mooney2","image-keyboard-response","165","749929","0.0-6.0-5.22","2931633","co39367","norming","","","","","","",""
"2877.975000000326","","","post_reveal_questions","survey-likert","166","752808","0.0-6.0-6.22","2931633","co39367","norming","","","{""aha"":6}","[0]","../img/tt/436tt.jpg","",""
"null","<div style=""font-size:60px;""> </div>","null","fixation","html-keyboard-response","167","753018","0.0-6.0-0.23","2931633","co39367","norming","","","","","","",""
"null","../img/tt/096tt.jpg","null","mooney1","image-keyboard-response","168","756028","0.0-6.0-1.23","2931633","co39367","norming","","","","","","",""
"5418.764999999432","","","post_mooney1_questions","survey-likert","169","761441","0.0-6.0-2.23","2931633","co39367","norming","","","{""curiosity"":1,""confidence"":5}","[0,1]","../img/tt/096tt.jpg","",""
"2326.33499999973","","","recognition","survey-text","170","763769","0.0-6.0-3.23","2931633","co39367","norming","","","{""guess"":""piano""}","","../img/tt/096tt.jpg","",""
"null","../img/gs/096gs.jpg","null","reveal","image-keyboard-response","171","765779","0.0-6.0-4.23","2931633","co39367","norming","","","","","","",""
"null","../img/tt/096tt.jpg","null","mooney2","image-keyboard-response","172","767784","0.0-6.0-5.23","2931633","co39367","norming","","","","","","",""
"2039.224999999511","","","post_reveal_questions","survey-likert","173","769825","0.0-6.0-6.23","2931633","co39367","norming","","","{""aha"":0}","[0]","../img/tt/096tt.jpg","",""
"null","<div style=""font-size:60px;""> </div>","null","fixation","html-keyboard-response","174","770033","0.0-6.0-0.24","2931633","co39367","norming","","","","","","",""
"null","../img/tt/1243tt.jpg","null","mooney1","image-keyboard-response","175","773039","0.0-6.0-1.24","2931633","co39367","norming","","","","","","",""
"5109.875000000116","","","post_mooney1_questions","survey-likert","176","778153","0.0-6.0-2.24","2931633","co39367","norming","","","{""curiosity"":3,""confidence"":1}","[0,1]","../img/tt/1243tt.jpg","",""
"1582.2749999997905","","","recognition","survey-text","177","779737","0.0-6.0-3.24","2931633","co39367","norming","","","{""guess"":""aap""}","","../img/tt/1243tt.jpg","",""
"null","../img/gs/1243gs.jpg","null","reveal","image-keyboard-response","178","781742","0.0-6.0-4.24","2931633","co39367","norming","","","","","","",""
"null","../img/tt/1243tt.jpg","null","mooney2","image-keyboard-response","179","783744","0.0-6.0-5.24","2931633","co39367","norming","","","","","","",""
"2295.294999999809","","","post_reveal_questions","survey-likert","180","786041","0.0-6.0-6.24","2931633","co39367","norming","","","{""aha"":5}","[0]","../img/tt/1243tt.jpg","",""
"null","<div style=""font-size:60px;""> </div>","null","fixation","html-keyboard-response","181","786251","0.0-6.0-0.25","2931633","co39367","norming","","","","","","",""
"null","../img/tt/418tt.jpg","null","mooney1","image-keyboard-response","182","789259","0.0-6.0-1.25","2931633","co39367","norming","","","","","","",""
"5133.434999999707","","","post_mooney1_questions","survey-likert","183","794394","0.0-6.0-2.25","2931633","co39367","norming","","","{""curiosity"":5,""confidence"":0}","[0,1]","../img/tt/418tt.jpg","",""
"2254.1250000004657","","","recognition","survey-text","184","796649","0.0-6.0-3.25","2931633","co39367","norming","","","{""guess"":""""}","","../img/tt/418tt.jpg","",""
"null","../img/gs/418gs.jpg","null","reveal","image-keyboard-response","185","798658","0.0-6.0-4.25","2931633","co39367","norming","","","","","","",""
"null","../img/tt/418tt.jpg","null","mooney2","image-keyboard-response","186","800661","0.0-6.0-5.25","2931633","co39367","norming","","","","","","",""
"2450.705000000191","","","post_reveal_questions","survey-likert","187","803113","0.0-6.0-6.25","2931633","co39367","norming","","","{""aha"":6}","[0]","../img/tt/418tt.jpg","",""
"null","<div style=""font-size:60px;""> </div>","null","fixation","html-keyboard-response","188","803315","0.0-6.0-0.26","2931633","co39367","norming","","","","","","",""
"null","../img/tt/1044tt.jpg","null","mooney1","image-keyboard-response","189","806318","0.0-6.0-1.26","2931633","co39367","norming","","","","","","",""
"7977.0950000000885","","","post_mooney1_questions","survey-likert","190","814298","0.0-6.0-2.26","2931633","co39367","norming","","","{""curiosity"":5,""confidence"":0}","[0,1]","../img/tt/1044tt.jpg","",""
"1238.0949999997392","","","recognition","survey-text","191","815537","0.0-6.0-3.26","2931633","co39367","norming","","","{""guess"":""""}","","../img/tt/1044tt.jpg","",""
"null","../img/gs/1044gs.jpg","null","reveal","image-keyboard-response","192","817539","0.0-6.0-4.26","2931633","co39367","norming","","","","","","",""
"null","../img/tt/1044tt.jpg","null","mooney2","image-keyboard-response","193","819550","0.0-6.0-5.26","2931633","co39367","norming","","","","","","",""
"1473.0599999993574","","","post_reveal_questions","survey-likert","194","821025","0.0-6.0-6.26","2931633","co39367","norming","","","{""aha"":6}","[0]","../img/tt/1044tt.jpg","",""
"null","<div style=""font-size:60px;""> </div>","null","fixation","html-keyboard-response","195","821233","0.0-6.0-0.27","2931633","co39367","norming","","","","","","",""
"null","../img/tt/1353tt.jpg","null","mooney1","image-keyboard-response","196","824236","0.0-6.0-1.27","2931633","co39367","norming","","","","","","",""
"6826.280000000261","","","post_mooney1_questions","survey-likert","197","831065","0.0-6.0-2.27","2931633","co39367","norming","","","{""curiosity"":6,""confidence"":0}","[0,1]","../img/tt/1353tt.jpg","",""
"1829.9399999995949","","","recognition","survey-text","198","832897","0.0-6.0-3.27","2931633","co39367","norming","","","{""guess"":""dino""}","","../img/tt/1353tt.jpg","",""
"null","../img/gs/1353gs.jpg","null","reveal","image-keyboard-response","199","834899","0.0-6.0-4.27","2931633","co39367","norming","","","","","","",""
"null","../img/tt/1353tt.jpg","null","mooney2","image-keyboard-response","200","836907","0.0-6.0-5.27","2931633","co39367","norming","","","","","","",""
"2355.6049999997485","","","post_reveal_questions","survey-likert","201","839265","0.0-6.0-6.27","2931633","co39367","norming","","","{""aha"":6}","[0]","../img/tt/1353tt.jpg","",""
"null","<div style=""font-size:60px;""> </div>","null","fixation","html-keyboard-response","202","839470","0.0-6.0-0.28","2931633","co39367","norming","","","","","","",""
"null","../img/tt/1275tt.jpg","null","mooney1","image-keyboard-response","203","842481","0.0-6.0-1.28","2931633","co39367","norming","","","","","","",""
"4684.525000000489","","","post_mooney1_questions","survey-likert","204","847169","0.0-6.0-2.28","2931633","co39367","norming","","","{""curiosity"":6,""confidence"":0}","[0,1]","../img/tt/1275tt.jpg","",""
"2861.925000000163","","","recognition","survey-text","205","850033","0.0-6.0-3.28","2931633","co39367","norming","","","{""guess"":""varken""}","","../img/tt/1275tt.jpg","",""
"null","../img/gs/1275gs.jpg","null","reveal","image-keyboard-response","206","852034","0.0-6.0-4.28","2931633","co39367","norming","","","","","","",""
"null","../img/tt/1275tt.jpg","null","mooney2","image-keyboard-response","207","854039","0.0-6.0-5.28","2931633","co39367","norming","","","","","","",""
"3648.685000000056","","","post_reveal_questions","survey-likert","208","857689","0.0-6.0-6.28","2931633","co39367","norming","","","{""aha"":5}","[0]","../img/tt/1275tt.jpg","",""
"null","<div style=""font-size:60px;""> </div>","null","fixation","html-keyboard-response","209","857890","0.0-6.0-0.29","2931633","co39367","norming","","","","","","",""
"null","../img/tt/1269tt.jpg","null","mooney1","image-keyboard-response","210","860900","0.0-6.0-1.29","2931633","co39367","norming","","","","","","",""
"3865.7899999998044","","","post_mooney1_questions","survey-likert","211","864769","0.0-6.0-2.29","2931633","co39367","norming","","","{""curiosity"":4,""confidence"":1}","[0,1]","../img/tt/1269tt.jpg","",""
"1614.2900000003865","","","recognition","survey-text","212","866385","0.0-6.0-3.29","2931633","co39367","norming","","","{""guess"":""aapje""}","","../img/tt/1269tt.jpg","",""
"null","../img/gs/1269gs.jpg","null","reveal","image-keyboard-response","213","868387","0.0-6.0-4.29","2931633","co39367","norming","","","","","","",""
"null","../img/tt/1269tt.jpg","null","mooney2","image-keyboard-response","214","870388","0.0-6.0-5.29","2931633","co39367","norming","","","","","","",""
"4265.919999999809","","","post_reveal_questions","survey-likert","215","874657","0.0-6.0-6.29","2931633","co39367","norming","","","{""aha"":1}","[0]","../img/tt/1269tt.jpg","",""
"null","<div style=""font-size:60px;""> </div>","null","fixation","html-keyboard-response","216","874858","0.0-6.0-0.30","2931633","co39367","norming","","","","","","",""
"null","../img/tt/1118tt.jpg","null","mooney1","image-keyboard-response","217","877861","0.0-6.0-1.30","2931633","co39367","norming","","","","","","",""
"4952.77499999979","","","post_mooney1_questions","survey-likert","218","882816","0.0-6.0-2.30","2931633","co39367","norming","","","{""curiosity"":5,""confidence"":0}","[0,1]","../img/tt/1118tt.jpg","",""
"2702.0700000001816","","","recognition","survey-text","219","885520","0.0-6.0-3.30","2931633","co39367","norming","","","{""guess"":""kikker""}","","../img/tt/1118tt.jpg","",""
"null","../img/gs/1118gs.jpg","null","reveal","image-keyboard-response","220","887522","0.0-6.0-4.30","2931633","co39367","norming","","","","","","",""
"null","../img/tt/1118tt.jpg","null","mooney2","image-keyboard-response","221","889533","0.0-6.0-5.30","2931633","co39367","norming","","","","","","",""
"2184.4600000004284","","","post_reveal_questions","survey-likert","222","891720","0.0-6.0-6.30","2931633","co39367","norming","","","{""aha"":5}","[0]","../img/tt/1118tt.jpg","",""
"null","<div style=""font-size:60px;""> </div>","null","fixation","html-keyboard-response","223","891921","0.0-6.0-0.31","2931633","co39367","norming","","","","","","",""
"null","../img/tt/1046tt.jpg","null","mooney1","image-keyboard-response","224","894930","0.0-6.0-1.31","2931633","co39367","norming","","","","","","",""
"7283.71999999939","","","post_mooney1_questions","survey-likert","225","902216","0.0-6.0-2.31","2931633","co39367","norming","","","{""curiosity"":5,""confidence"":0}","[0,1]","../img/tt/1046tt.jpg","",""
"1653.949999999837","","","recognition","survey-text","226","903872","0.0-6.0-3.31","2931633","co39367","norming","","","{""guess"":""eten""}","","../img/tt/1046tt.jpg","",""
"null","../img/gs/1046gs.jpg","null","reveal","image-keyboard-response","227","905879","0.0-6.0-4.31","2931633","co39367","norming","","","","","","",""
"null","../img/tt/1046tt.jpg","null","mooney2","image-keyboard-response","228","907887","0.0-6.0-5.31","2931633","co39367","norming","","","","","","",""
"3839.3800000002375","","","post_reveal_questions","survey-likert","229","911728","0.0-6.0-6.31","2931633","co39367","norming","","","{""aha"":1}","[0]","../img/tt/1046tt.jpg","",""
"null","<div style=""font-size:60px;""> </div>","null","fixation","html-keyboard-response","230","911930","0.0-6.0-0.32","2931633","co39367","norming","","","","","","",""
"null","../img/tt/549tt.jpg","null","mooney1","image-keyboard-response","231","914934","0.0-6.0-1.32","2931633","co39367","norming","","","","","","",""
"2848.6550000007264","","","post_mooney1_questions","survey-likert","232","917784","0.0-6.0-2.32","2931633","co39367","norming","","","{""curiosity"":6,""confidence"":0}","[0,1]","../img/tt/549tt.jpg","",""
"853.8649999999907","","","recognition","survey-text","233","918639","0.0-6.0-3.32","2931633","co39367","norming","","","{""guess"":""""}","","../img/tt/549tt.jpg","",""
"null","../img/gs/549gs.jpg","null","reveal","image-keyboard-response","234","920642","0.0-6.0-4.32","2931633","co39367","norming","","","","","","",""
"null","../img/tt/549tt.jpg","null","mooney2","image-keyboard-response","235","922644","0.0-6.0-5.32","2931633","co39367","norming","","","","","","",""
"2250.605000000214","","","post_reveal_questions","survey-likert","236","924896","0.0-6.0-6.32","2931633","co39367","norming","","","{""aha"":6}","[0]","../img/tt/549tt.jpg","",""
"null","<div style=""font-size:60px;""> </div>","null","fixation","html-keyboard-response","237","925096","0.0-6.0-0.33","2931633","co39367","norming","","","","","","",""
"null","../img/tt/085tt.jpg","null","mooney1","image-keyboard-response","238","928105","0.0-6.0-1.33","2931633","co39367","norming","","","","","","",""
"4901.354999999981","","","post_mooney1_questions","survey-likert","239","933008","0.0-6.0-2.33","2931633","co39367","norming","","","{""curiosity"":5,""confidence"":0}","[0,1]","../img/tt/085tt.jpg","",""
"1758.1549999994459","","","recognition","survey-text","240","934768","0.0-6.0-3.33","2931633","co39367","norming","","","{""guess"":""kikker""}","","../img/tt/085tt.jpg","",""
"null","../img/gs/085gs.jpg","null","reveal","image-keyboard-response","241","936775","0.0-6.0-4.33","2931633","co39367","norming","","","","","","",""
"null","../img/tt/085tt.jpg","null","mooney2","image-keyboard-response","242","938776","0.0-6.0-5.33","2931633","co39367","norming","","","","","","",""
"1926.534999999567","","","post_reveal_questions","survey-likert","243","940704","0.0-6.0-6.33","2931633","co39367","norming","","","{""aha"":6}","[0]","../img/tt/085tt.jpg","",""
"null","<div style=""font-size:60px;""> </div>","null","fixation","html-keyboard-response","244","940913","0.0-6.0-0.34","2931633","co39367","norming","","","","","","",""
"null","../img/tt/1278tt.jpg","null","mooney1","image-keyboard-response","245","943917","0.0-6.0-1.34","2931633","co39367","norming","","","","","","",""
"4410.294999999693","","","post_mooney1_questions","survey-likert","246","948329","0.0-6.0-2.34","2931633","co39367","norming","","","{""curiosity"":4,""confidence"":0}","[0,1]","../img/tt/1278tt.jpg","",""
"2374.2050000000745","","","recognition","survey-text","247","950704","0.0-6.0-3.34","2931633","co39367","norming","","","{""guess"":""vogel""}","","../img/tt/1278tt.jpg","",""
"null","../img/gs/1278gs.jpg","null","reveal","image-keyboard-response","248","952706","0.0-6.0-4.34","2931633","co39367","norming","","","","","","",""
"null","../img/tt/1278tt.jpg","null","mooney2","image-keyboard-response","249","954715","0.0-6.0-5.34","2931633","co39367","norming","","","","","","",""
"2234.9699999995064","","","post_reveal_questions","survey-likert","250","956952","0.0-6.0-6.34","2931633","co39367","norming","","","{""aha"":5}","[0]","../img/tt/1278tt.jpg","",""
"null","<div style=""font-size:60px;""> </div>","null","fixation","html-keyboard-response","251","957154","0.0-6.0-0.35","2931633","co39367","norming","","","","","","",""
"null","../img/tt/1247tt.jpg","null","mooney1","image-keyboard-response","252","960164","0.0-6.0-1.35","2931633","co39367","norming","","","","","","",""
"5163.415000000037","","","post_mooney1_questions","survey-likert","253","965329","0.0-6.0-2.35","2931633","co39367","norming","","","{""curiosity"":4,""confidence"":0}","[0,1]","../img/tt/1247tt.jpg","",""
"4093.884999999311","","","recognition","survey-text","254","969424","0.0-6.0-3.35","2931633","co39367","norming","","","{""guess"":""kangoeroe""}","","../img/tt/1247tt.jpg","",""
"null","../img/gs/1247gs.jpg","null","reveal","image-keyboard-response","255","971425","0.0-6.0-4.35","2931633","co39367","norming","","","","","","",""
"null","../img/tt/1247tt.jpg","null","mooney2","image-keyboard-response","256","973430","0.0-6.0-5.35","2931633","co39367","norming","","","","","","",""
"2352.2050000000745","","","post_reveal_questions","survey-likert","257","975784","0.0-6.0-6.35","2931633","co39367","norming","","","{""aha"":6}","[0]","../img/tt/1247tt.jpg","",""
"null","<div style=""font-size:60px;""> </div>","null","fixation","html-keyboard-response","258","975987","0.0-6.0-0.36","2931633","co39367","norming","","","","","","",""
"null","../img/tt/064tt.jpg","null","mooney1","image-keyboard-response","259","978990","0.0-6.0-1.36","2931633","co39367","norming","","","","","","",""
"3743.689999999362","","","post_mooney1_questions","survey-likert","260","982737","0.0-6.0-2.36","2931633","co39367","norming","","","{""curiosity"":6,""confidence"":0}","[0,1]","../img/tt/064tt.jpg","",""
"2141.900000000489","","","recognition","survey-text","261","984880","0.0-6.0-3.36","2931633","co39367","norming","","","{""guess"":""duim""}","","../img/tt/064tt.jpg","",""
"null","../img/gs/064gs.jpg","null","reveal","image-keyboard-response","262","986885","0.0-6.0-4.36","2931633","co39367","norming","","","","","","",""
"null","../img/tt/064tt.jpg","null","mooney2","image-keyboard-response","263","988892","0.0-6.0-5.36","2931633","co39367","norming","","","","","","",""
"1793.9050000003772","","","post_reveal_questions","survey-likert","264","990689","0.0-6.0-6.36","2931633","co39367","norming","","","{""aha"":6}","[0]","../img/tt/064tt.jpg","",""
"null","<div style=""font-size:60px;""> </div>","null","fixation","html-keyboard-response","265","990895","0.0-6.0-0.37","2931633","co39367","norming","","","","","","",""
"null","../img/tt/076tt.jpg","null","mooney1","image-keyboard-response","266","993902","0.0-6.0-1.37","2931633","co39367","norming","","","","","","",""
"5775.455000000889","","","post_mooney1_questions","survey-likert","267","999681","0.0-6.0-2.37","2931633","co39367","norming","","","{""curiosity"":3,""confidence"":4}","[0,1]","../img/tt/076tt.jpg","",""
"2750.00999999966","","","recognition","survey-text","268","1002429","0.0-6.0-3.37","2931633","co39367","norming","","","{""guess"":""rolschaats""}","","../img/tt/076tt.jpg","",""
"null","../img/gs/076gs.jpg","null","reveal","image-keyboard-response","269","1004436","0.0-6.0-4.37","2931633","co39367","norming","","","","","","",""
"null","../img/tt/076tt.jpg","null","mooney2","image-keyboard-response","270","1006444","0.0-6.0-5.37","2931633","co39367","norming","","","","","","",""
"1910.0799999996088","","","post_reveal_questions","survey-likert","271","1008357","0.0-6.0-6.37","2931633","co39367","norming","","","{""aha"":0}","[0]","../img/tt/076tt.jpg","",""
"null","<div style=""font-size:60px;""> </div>","null","fixation","html-keyboard-response","272","1008558","0.0-6.0-0.38","2931633","co39367","norming","","","","","","",""
"null","../img/tt/517tt.jpg","null","mooney1","image-keyboard-response","273","1011562","0.0-6.0-1.38","2931633","co39367","norming","","","","","","",""
"3495.015000000363","","","post_mooney1_questions","survey-likert","274","1015061","0.0-6.0-2.38","2931633","co39367","norming","","","{""curiosity"":5,""confidence"":0}","[0,1]","../img/tt/517tt.jpg","",""
"2342.1300000000047","","","recognition","survey-text","275","1017405","0.0-6.0-3.38","2931633","co39367","norming","","","{""guess"":""tijger""}","","../img/tt/517tt.jpg","",""
"null","../img/gs/517gs.jpg","null","reveal","image-keyboard-response","276","1019407","0.0-6.0-4.38","2931633","co39367","norming","","","","","","",""
"null","../img/tt/517tt.jpg","null","mooney2","image-keyboard-response","277","1021408","0.0-6.0-5.38","2931633","co39367","norming","","","","","","",""
"2906.560000000405","","","post_reveal_questions","survey-likert","278","1024317","0.0-6.0-6.38","2931633","co39367","norming","","","{""aha"":5}","[0]","../img/tt/517tt.jpg","",""
"null","<div style=""font-size:60px;""> </div>","null","fixation","html-keyboard-response","279","1024523","0.0-6.0-0.39","2931633","co39367","norming","","","","","","",""
"null","../img/tt/329tt.jpg","null","mooney1","image-keyboard-response","280","1027527","0.0-6.0-1.39","2931633","co39367","norming","","","","","","",""
"5860.445000000298","","","post_mooney1_questions","survey-likert","281","1033389","0.0-6.0-2.39","2931633","co39367","norming","","","{""curiosity"":4,""confidence"":3}","[0,1]","../img/tt/329tt.jpg","",""
"5598.074999999837","","","recognition","survey-text","282","1038989","0.0-6.0-3.39","2931633","co39367","norming","","","{""guess"":""inktvis""}","","../img/tt/329tt.jpg","",""
"null","../img/gs/329gs.jpg","null","reveal","image-keyboard-response","283","1040994","0.0-6.0-4.39","2931633","co39367","norming","","","","","","",""
"null","../img/tt/329tt.jpg","null","mooney2","image-keyboard-response","284","1043004","0.0-6.0-5.39","2931633","co39367","norming","","","","","","",""
"2262.8950000008335","","","post_reveal_questions","survey-likert","285","1045269","0.0-6.0-6.39","2931633","co39367","norming","","","{""aha"":1}","[0]","../img/tt/329tt.jpg","",""
"null","<div style=""font-size:60px;""> </div>","null","fixation","html-keyboard-response","286","1045476","0.0-6.0-0.40","2931633","co39367","norming","","","","","","",""
"null","../img/tt/357tt.jpg","null","mooney1","image-keyboard-response","287","1048483","0.0-6.0-1.40","2931633","co39367","norming","","","","","","",""
"4016.015000000363","","","post_mooney1_questions","survey-likert","288","1052501","0.0-6.0-2.40","2931633","co39367","norming","","","{""curiosity"":5,""confidence"":0}","[0,1]","../img/tt/357tt.jpg","",""
"1877.8400000000838","","","recognition","survey-text","289","1054381","0.0-6.0-3.40","2931633","co39367","norming","","","{""guess"":""kikker""}","","../img/tt/357tt.jpg","",""
"null","../img/gs/357gs.jpg","null","reveal","image-keyboard-response","290","1056391","0.0-6.0-4.40","2931633","co39367","norming","","","","","","",""
"null","../img/tt/357tt.jpg","null","mooney2","image-keyboard-response","291","1058397","0.0-6.0-5.40","2931633","co39367","norming","","","","","","",""
"2957.2849999994505","","","post_reveal_questions","survey-likert","292","1061360","0.0-6.0-6.40","2931633","co39367","norming","","","{""aha"":5}","[0]","../img/tt/357tt.jpg","",""
"null","<div style=""font-size:60px;""> </div>","null","fixation","html-keyboard-response","293","1061561","0.0-6.0-0.41","2931633","co39367","norming","","","","","","",""
"null","../img/tt/559tt.jpg","null","mooney1","image-keyboard-response","294","1064564","0.0-6.0-1.41","2931633","co39367","norming","","","","","","",""
"3689.54000000027","","","post_mooney1_questions","survey-likert","295","1068256","0.0-6.0-2.41","2931633","co39367","norming","","","{""curiosity"":3,""confidence"":4}","[0,1]","../img/tt/559tt.jpg","",""
"4030.0399999998044","","","recognition","survey-text","296","1072288","0.0-6.0-3.41","2931633","co39367","norming","","","{""guess"":""naaimachine""}","","../img/tt/559tt.jpg","",""
"null","../img/gs/559gs.jpg","null","reveal","image-keyboard-response","297","1074290","0.0-6.0-4.41","2931633","co39367","norming","","","","","","",""
"null","../img/tt/559tt.jpg","null","mooney2","image-keyboard-response","298","1076299","0.0-6.0-5.41","2931633","co39367","norming","","","","","","",""
"1707.1949999998324","","","post_reveal_questions","survey-likert","299","1078008","0.0-6.0-6.41","2931633","co39367","norming","","","{""aha"":0}","[0]","../img/tt/559tt.jpg","",""
"null","<div style=""font-size:60px;""> </div>","null","fixation","html-keyboard-response","300","1078209","0.0-6.0-0.42","2931633","co39367","norming","","","","","","",""
"null","../img/tt/1186tt.jpg","null","mooney1","image-keyboard-response","301","1081211","0.0-6.0-1.42","2931633","co39367","norming","","","","","","",""
"4985.789999999804","","","post_mooney1_questions","survey-likert","302","1086200","0.0-6.0-2.42","2931633","co39367","norming","","","{""curiosity"":4,""confidence"":2}","[0,1]","../img/tt/1186tt.jpg","",""
"3606.350000000093","","","recognition","survey-text","303","1089808","0.0-6.0-3.42","2931633","co39367","norming","","","{""guess"":""wandelaar""}","","../img/tt/1186tt.jpg","",""
"null","../img/gs/1186gs.jpg","null","reveal","image-keyboard-response","304","1091811","0.0-6.0-4.42","2931633","co39367","norming","","","","","","",""
"null","../img/tt/1186tt.jpg","null","mooney2","image-keyboard-response","305","1093814","0.0-6.0-5.42","2931633","co39367","norming","","","","","","",""
"6021.024999999907","","","post_reveal_questions","survey-likert","306","1099840","0.0-6.0-6.42","2931633","co39367","norming","","","{""aha"":5}","[0]","../img/tt/1186tt.jpg","",""
"null","<div style=""font-size:60px;""> </div>","null","fixation","html-keyboard-response","307","1100041","0.0-6.0-0.43","2931633","co39367","norming","","","","","","",""
"null","../img/tt/1122tt.jpg","null","mooney1","image-keyboard-response","308","1103045","0.0-6.0-1.43","2931633","co39367","norming","","","","","","",""
"4887.829999999609","","","post_mooney1_questions","survey-likert","309","1107936","0.0-6.0-2.43","2931633","co39367","norming","","","{""curiosity"":1,""confidence"":5}","[0,1]","../img/tt/1122tt.jpg","",""
"4782.409999999683","","","recognition","survey-text","310","1112720","0.0-6.0-3.43","2931633","co39367","norming","","","{""guess"":""boten""}","","../img/tt/1122tt.jpg","",""
"null","../img/gs/1122gs.jpg","null","reveal","image-keyboard-response","311","1114729","0.0-6.0-4.43","2931633","co39367","norming","","","","","","",""
"null","../img/tt/1122tt.jpg","null","mooney2","image-keyboard-response","312","1116735","0.0-6.0-5.43","2931633","co39367","norming","","","","","","",""
"1470.6449999993201","","","post_reveal_questions","survey-likert","313","1118208","0.0-6.0-6.43","2931633","co39367","norming","","","{""aha"":0}","[0]","../img/tt/1122tt.jpg","",""
"null","<div style=""font-size:60px;""> </div>","null","fixation","html-keyboard-response","314","1118410","0.0-6.0-0.44","2931633","co39367","norming","","","","","","",""
"null","../img/tt/1290tt.jpg","null","mooney1","image-keyboard-response","315","1121423","0.0-6.0-1.44","2931633","co39367","norming","","","","","","",""
"3481.1549999995623","","","post_mooney1_questions","survey-likert","316","1124909","0.0-6.0-2.44","2931633","co39367","norming","","","{""curiosity"":1,""confidence"":5}","[0,1]","../img/tt/1290tt.jpg","",""
"2934.2999999998137","","","recognition","survey-text","317","1127845","0.0-6.0-3.44","2931633","co39367","norming","","","{""guess"":""skilift""}","","../img/tt/1290tt.jpg","",""
"null","../img/gs/1290gs.jpg","null","reveal","image-keyboard-response","318","1129856","0.0-6.0-4.44","2931633","co39367","norming","","","","","","",""
"null","../img/tt/1290tt.jpg","null","mooney2","image-keyboard-response","319","1131864","0.0-6.0-5.44","2931633","co39367","norming","","","","","","",""
"2865.600000000093","","","post_reveal_questions","survey-likert","320","1134733","0.0-6.0-6.44","2931633","co39367","norming","","","{""aha"":0}","[0]","../img/tt/1290tt.jpg","",""
"null","<div style=""font-size:60px;""> </div>","null","fixation","html-keyboard-response","321","1134934","0.0-6.0-0.45","2931633","co39367","norming","","","","","","",""
"null","../img/tt/140tt.jpg","null","mooney1","image-keyboard-response","322","1137939","0.0-6.0-1.45","2931633","co39367","norming","","","","","","",""
"3608.6699999996927","","","post_mooney1_questions","survey-likert","323","1141549","0.0-6.0-2.45","2931633","co39367","norming","","","{""curiosity"":1,""confidence"":5}","[0,1]","../img/tt/140tt.jpg","",""
"2310.385000000708","","","recognition","survey-text","324","1143861","0.0-6.0-3.45","2931633","co39367","norming","","","{""guess"":""vorken""}","","../img/tt/140tt.jpg","",""
"null","../img/gs/140gs.jpg","null","reveal","image-keyboard-response","325","1145868","0.0-6.0-4.45","2931633","co39367","norming","","","","","","",""
"null","../img/tt/140tt.jpg","null","mooney2","image-keyboard-response","326","1147870","0.0-6.0-5.45","2931633","co39367","norming","","","","","","",""
"2139.9600000004284","","","post_reveal_questions","survey-likert","327","1150013","0.0-6.0-6.45","2931633","co39367","norming","","","{""aha"":0}","[0]","../img/tt/140tt.jpg","",""
"null","<div style=""font-size:60px;""> </div>","null","fixation","html-keyboard-response","328","1150217","0.0-6.0-0.46","2931633","co39367","norming","","","","","","",""
"null","../img/tt/1123tt.jpg","null","mooney1","image-keyboard-response","329","1153226","0.0-6.0-1.46","2931633","co39367","norming","","","","","","",""
"4825.705000000307","","","post_mooney1_questions","survey-likert","330","1158053","0.0-6.0-2.46","2931633","co39367","norming","","","{""curiosity"":4,""confidence"":1}","[0,1]","../img/tt/1123tt.jpg","",""
"3694.45999999973","","","recognition","survey-text","331","1161749","0.0-6.0-3.46","2931633","co39367","norming","","","{""guess"":""basketbal""}","","../img/tt/1123tt.jpg","",""
"null","../img/gs/1123gs.jpg","null","reveal","image-keyboard-response","332","1163752","0.0-6.0-4.46","2931633","co39367","norming","","","","","","",""
"null","../img/tt/1123tt.jpg","null","mooney2","image-keyboard-response","333","1165763","0.0-6.0-5.46","2931633","co39367","norming","","","","","","",""
"3199.8599999998696","","","post_reveal_questions","survey-likert","334","1168965","0.0-6.0-6.46","2931633","co39367","norming","","","{""aha"":5}","[0]","../img/tt/1123tt.jpg","",""
"null","<div style=""font-size:60px;""> </div>","null","fixation","html-keyboard-response","335","1169166","0.0-6.0-0.47","2931633","co39367","norming","","","","","","",""
"null","../img/tt/380tt.jpg","null","mooney1","image-keyboard-response","336","1172169","0.0-6.0-1.47","2931633","co39367","norming","","","","","","",""
"3305.024999999674","","","post_mooney1_questions","survey-likert","337","1175477","0.0-6.0-2.47","2931633","co39367","norming","","","{""curiosity"":5,""confidence"":0}","[0,1]","../img/tt/380tt.jpg","",""
"1965.8499999996275","","","recognition","survey-text","338","1177445","0.0-6.0-3.47","2931633","co39367","norming","","","{""guess"":""vogel""}","","../img/tt/380tt.jpg","",""
"null","../img/gs/380gs.jpg","null","reveal","image-keyboard-response","339","1179454","0.0-6.0-4.47","2931633","co39367","norming","","","","","","",""
"null","../img/tt/380tt.jpg","null","mooney2","image-keyboard-response","340","1181463","0.0-6.0-5.47","2931633","co39367","norming","","","","","","",""
"2101.2350000001024","","","post_reveal_questions","survey-likert","341","1183565","0.0-6.0-6.47","2931633","co39367","norming","","","{""aha"":5}","[0]","../img/tt/380tt.jpg","",""
"null","<div style=""font-size:60px;""> </div>","null","fixation","html-keyboard-response","342","1183767","0.0-6.0-0.48","2931633","co39367","norming","","","","","","",""
"null","../img/tt/1043tt.jpg","null","mooney1","image-keyboard-response","343","1186774","0.0-6.0-1.48","2931633","co39367","norming","","","","","","",""
"3604.405000000028","","","post_mooney1_questions","survey-likert","344","1190382","0.0-6.0-2.48","2931633","co39367","norming","","","{""curiosity"":6,""confidence"":0}","[0,1]","../img/tt/1043tt.jpg","",""
"662.1400000003632","","","recognition","survey-text","345","1191045","0.0-6.0-3.48","2931633","co39367","norming","","","{""guess"":""""}","","../img/tt/1043tt.jpg","",""
"null","../img/gs/1043gs.jpg","null","reveal","image-keyboard-response","346","1193047","0.0-6.0-4.48","2931633","co39367","norming","","","","","","",""
"null","../img/tt/1043tt.jpg","null","mooney2","image-keyboard-response","347","1195050","0.0-6.0-5.48","2931633","co39367","norming","","","","","","",""
"3248.525000000838","","","post_reveal_questions","survey-likert","348","1198301","0.0-6.0-6.48","2931633","co39367","norming","","","{""aha"":6}","[0]","../img/tt/1043tt.jpg","",""
"null","<div style=""font-size:60px;""> </div>","null","fixation","html-keyboard-response","349","1198503","0.0-6.0-0.49","2931633","co39367","norming","","","","","","",""
"null","../img/tt/507tt.jpg","null","mooney1","image-keyboard-response","350","1201512","0.0-6.0-1.49","2931633","co39367","norming","","","","","","",""
"4530.135000000009","","","post_mooney1_questions","survey-likert","351","1206045","0.0-6.0-2.49","2931633","co39367","norming","","","{""curiosity"":6,""confidence"":0}","[0,1]","../img/tt/507tt.jpg","",""
"2374.2199999997392","","","recognition","survey-text","352","1208421","0.0-6.0-3.49","2931633","co39367","norming","","","{""guess"":""zanger""}","","../img/tt/507tt.jpg","",""
"null","../img/gs/507gs.jpg","null","reveal","image-keyboard-response","353","1210424","0.0-6.0-4.49","2931633","co39367","norming","","","","","","",""
"null","../img/tt/507tt.jpg","null","mooney2","image-keyboard-response","354","1212427","0.0-6.0-5.49","2931633","co39367","norming","","","","","","",""
"2415.635000000242","","","post_reveal_questions","survey-likert","355","1214845","0.0-6.0-6.49","2931633","co39367","norming","","","{""aha"":5}","[0]","../img/tt/507tt.jpg","",""
"null","<div style=""font-size:60px;""> </div>","null","fixation","html-keyboard-response","356","1215053","0.0-6.0-0.50","2931633","co39367","norming","","","","","","",""
"null","../img/tt/079tt.jpg","null","mooney1","image-keyboard-response","357","1218057","0.0-6.0-1.50","2931633","co39367","norming","","","","","","",""
"4411.895000000019","","","post_mooney1_questions","survey-likert","358","1222470","0.0-6.0-2.50","2931633","co39367","norming","","","{""curiosity"":2,""confidence"":5}","[0,1]","../img/tt/079tt.jpg","",""
"2117.890000000363","","","recognition","survey-text","359","1224589","0.0-6.0-3.50","2931633","co39367","norming","","","{""guess"":""beer""}","","../img/tt/079tt.jpg","",""
"null","../img/gs/079gs.jpg","null","reveal","image-keyboard-response","360","1226591","0.0-6.0-4.50","2931633","co39367","norming","","","","","","",""
"null","../img/tt/079tt.jpg","null","mooney2","image-keyboard-response","361","1228599","0.0-6.0-5.50","2931633","co39367","norming","","","","","","",""
"1748.0999999998603","","","post_reveal_questions","survey-likert","362","1230349","0.0-6.0-6.50","2931633","co39367","norming","","","{""aha"":0}","[0]","../img/tt/079tt.jpg","",""
"null","<div style=""font-size:60px;""> </div>","null","fixation","html-keyboard-response","363","1230551","0.0-6.0-0.51","2931633","co39367","norming","","","","","","",""
"null","../img/tt/358tt.jpg","null","mooney1","image-keyboard-response","364","1233562","0.0-6.0-1.51","2931633","co39367","norming","","","","","","",""
"3480.5300000007264","","","post_mooney1_questions","survey-likert","365","1237046","0.0-6.0-2.51","2931633","co39367","norming","","","{""curiosity"":5,""confidence"":0}","[0,1]","../img/tt/358tt.jpg","",""
"2718.144999999786","","","recognition","survey-text","366","1239766","0.0-6.0-3.51","2931633","co39367","norming","","","{""guess"":""hond""}","","../img/tt/358tt.jpg","",""
"null","../img/gs/358gs.jpg","null","reveal","image-keyboard-response","367","1241768","0.0-6.0-4.51","2931633","co39367","norming","","","","","","",""
"null","../img/tt/358tt.jpg","null","mooney2","image-keyboard-response","368","1243769","0.0-6.0-5.51","2931633","co39367","norming","","","","","","",""
"2497.769999999786","","","post_reveal_questions","survey-likert","369","1246270","0.0-6.0-6.51","2931633","co39367","norming","","","{""aha"":5}","[0]","../img/tt/358tt.jpg","",""
"null","<div style=""font-size:60px;""> </div>","null","fixation","html-keyboard-response","370","1246473","0.0-6.0-0.52","2931633","co39367","norming","","","","","","",""
"null","../img/tt/001tt.jpg","null","mooney1","image-keyboard-response","371","1249484","0.0-6.0-1.52","2931633","co39367","norming","","","","","","",""
"3654.249999999767","","","post_mooney1_questions","survey-likert","372","1253142","0.0-6.0-2.52","2931633","co39367","norming","","","{""curiosity"":5,""confidence"":0}","[0,1]","../img/tt/001tt.jpg","",""
"2349.9100000008475","","","recognition","survey-text","373","1255494","0.0-6.0-3.52","2931633","co39367","norming","","","{""guess"":""hond""}","","../img/tt/001tt.jpg","",""
"null","../img/gs/001gs.jpg","null","reveal","image-keyboard-response","374","1257499","0.0-6.0-4.52","2931633","co39367","norming","","","","","","",""
"null","../img/tt/001tt.jpg","null","mooney2","image-keyboard-response","375","1259502","0.0-6.0-5.52","2931633","co39367","norming","","","","","","",""
"1788.980000000447","","","post_reveal_questions","survey-likert","376","1261293","0.0-6.0-6.52","2931633","co39367","norming","","","{""aha"":6}","[0]","../img/tt/001tt.jpg","",""
"null","<div style=""font-size:60px;""> </div>","null","fixation","html-keyboard-response","377","1261495","0.0-6.0-0.53","2931633","co39367","norming","","","","","","",""
"null","../img/tt/319tt.jpg","null","mooney1","image-keyboard-response","378","1264497","0.0-6.0-1.53","2931633","co39367","norming","","","","","","",""
"3825.5500000005122","","","post_mooney1_questions","survey-likert","379","1268326","0.0-6.0-2.53","2931633","co39367","norming","","","{""curiosity"":6,""confidence"":0}","[0,1]","../img/tt/319tt.jpg","",""
"3390.3799999998882","","","recognition","survey-text","380","1271718","0.0-6.0-3.53","2931633","co39367","norming","","","{""guess"":""paard""}","","../img/tt/319tt.jpg","",""
"null","../img/gs/319gs.jpg","null","reveal","image-keyboard-response","381","1273725","0.0-6.0-4.53","2931633","co39367","norming","","","","","","",""
"null","../img/tt/319tt.jpg","null","mooney2","image-keyboard-response","382","1275735","0.0-6.0-5.53","2931633","co39367","norming","","","","","","",""
"2267.534999999916","","","post_reveal_questions","survey-likert","383","1278006","0.0-6.0-6.53","2931633","co39367","norming","","","{""aha"":4}","[0]","../img/tt/319tt.jpg","",""
"null","<div style=""font-size:60px;""> </div>","null","fixation","html-keyboard-response","384","1278207","0.0-6.0-0.54","2931633","co39367","norming","","","","","","",""
"null","../img/tt/111tt.jpg","null","mooney1","image-keyboard-response","385","1281210","0.0-6.0-1.54","2931633","co39367","norming","","","","","","",""
"7137.314999999944","","","post_mooney1_questions","survey-likert","386","1288350","0.0-6.0-2.54","2931633","co39367","norming","","","{""curiosity"":5,""confidence"":0}","[0,1]","../img/tt/111tt.jpg","",""
"2646.0399999995716","","","recognition","survey-text","387","1290998","0.0-6.0-3.54","2931633","co39367","norming","","","{""guess"":""kraan""}","","../img/tt/111tt.jpg","",""
"null","../img/gs/111gs.jpg","null","reveal","image-keyboard-response","388","1293000","0.0-6.0-4.54","2931633","co39367","norming","","","","","","",""
"null","../img/tt/111tt.jpg","null","mooney2","image-keyboard-response","389","1295001","0.0-6.0-5.54","2931633","co39367","norming","","","","","","",""
"2169.5600000002887","","","post_reveal_questions","survey-likert","390","1297174","0.0-6.0-6.54","2931633","co39367","norming","","","{""aha"":1}","[0]","../img/tt/111tt.jpg","",""
"null","<div style=""font-size:60px;""> </div>","null","fixation","html-keyboard-response","391","1297375","0.0-6.0-0.55","2931633","co39367","norming","","","","","","",""
"null","../img/tt/598tt.jpg","null","mooney1","image-keyboard-response","392","1300387","0.0-6.0-1.55","2931633","co39367","norming","","","","","","",""
"5207.879999999888","","","post_mooney1_questions","survey-likert","393","1305598","0.0-6.0-2.55","2931633","co39367","norming","","","{""curiosity"":6,""confidence"":0}","[0,1]","../img/tt/598tt.jpg","",""
"1030.149999999674","","","recognition","survey-text","394","1306630","0.0-6.0-3.55","2931633","co39367","norming","","","{""guess"":""""}","","../img/tt/598tt.jpg","",""
"null","../img/gs/598gs.jpg","null","reveal","image-keyboard-response","395","1308639","0.0-6.0-4.55","2931633","co39367","norming","","","","","","",""
"null","../img/tt/598tt.jpg","null","mooney2","image-keyboard-response","396","1310651","0.0-6.0-5.55","2931633","co39367","norming","","","","","","",""
"2937.0449999996927","","","post_reveal_questions","survey-likert","397","1313590","0.0-6.0-6.55","2931633","co39367","norming","","","{""aha"":6}","[0]","../img/tt/598tt.jpg","",""
"null","<div style=""font-size:60px;""> </div>","null","fixation","html-keyboard-response","398","1313798","0.0-6.0-0.56","2931633","co39367","norming","","","","","","",""
"null","../img/tt/1061tt.jpg","null","mooney1","image-keyboard-response","399","1316800","0.0-6.0-1.56","2931633","co39367","norming","","","","","","",""
"3914.8599999998696","","","post_mooney1_questions","survey-likert","400","1320718","0.0-6.0-2.56","2931633","co39367","norming","","","{""curiosity"":4,""confidence"":0}","[0,1]","../img/tt/1061tt.jpg","",""
"5878.314999999944","","","recognition","survey-text","401","1326598","0.0-6.0-3.56","2931633","co39367","norming","","","{""guess"":""basketwedstrijd""}","","../img/tt/1061tt.jpg","",""
"null","../img/gs/1061gs.jpg","null","reveal","image-keyboard-response","402","1328603","0.0-6.0-4.56","2931633","co39367","norming","","","","","","",""
"null","../img/tt/1061tt.jpg","null","mooney2","image-keyboard-response","403","1330615","0.0-6.0-5.56","2931633","co39367","norming","","","","","","",""
"2148.7649999998976","","","post_reveal_questions","survey-likert","404","1332766","0.0-6.0-6.56","2931633","co39367","norming","","","{""aha"":5}","[0]","../img/tt/1061tt.jpg","",""
"null","<div style=""font-size:60px;""> </div>","null","fixation","html-keyboard-response","405","1332967","0.0-6.0-0.57","2931633","co39367","norming","","","","","","",""
"null","../img/tt/1276tt.jpg","null","mooney1","image-keyboard-response","406","1335976","0.0-6.0-1.57","2931633","co39367","norming","","","","","","",""
"4748.824999999488","","","post_mooney1_questions","survey-likert","407","1340726","0.0-6.0-2.57","2931633","co39367","norming","","","{""curiosity"":6,""confidence"":1}","[0,1]","../img/tt/1276tt.jpg","",""
"2990.0249999989755","","","recognition","survey-text","408","1343718","0.0-6.0-3.57","2931633","co39367","norming","","","{""guess"":""ezel""}","","../img/tt/1276tt.jpg","",""
"null","../img/gs/1276gs.jpg","null","reveal","image-keyboard-response","409","1345720","0.0-6.0-4.57","2931633","co39367","norming","","","","","","",""
"null","../img/tt/1276tt.jpg","null","mooney2","image-keyboard-response","410","1347732","0.0-6.0-5.57","2931633","co39367","norming","","","","","","",""
"1599.1249999997672","","","post_reveal_questions","survey-likert","411","1349334","0.0-6.0-6.57","2931633","co39367","norming","","","{""aha"":4}","[0]","../img/tt/1276tt.jpg","",""
"null","<div style=""font-size:60px;""> </div>","null","fixation","html-keyboard-response","412","1349542","0.0-6.0-0.58","2931633","co39367","norming","","","","","","",""
"null","../img/tt/1363tt.jpg","null","mooney1","image-keyboard-response","413","1352544","0.0-6.0-1.58","2931633","co39367","norming","","","","","","",""
"3538.4850000001024","","","post_mooney1_questions","survey-likert","414","1356086","0.0-6.0-2.58","2931633","co39367","norming","","","{""curiosity"":4,""confidence"":1}","[0,1]","../img/tt/1363tt.jpg","",""
"3389.839999999618","","","recognition","survey-text","415","1359478","0.0-6.0-3.58","2931633","co39367","norming","","","{""guess"":""soep""}","","../img/tt/1363tt.jpg","",""
"null","../img/gs/1363gs.jpg","null","reveal","image-keyboard-response","416","1361483","0.0-6.0-4.58","2931633","co39367","norming","","","","","","",""
"null","../img/tt/1363tt.jpg","null","mooney2","image-keyboard-response","417","1363491","0.0-6.0-5.58","2931633","co39367","norming","","","","","","",""
"1504.2999999998137","","","post_reveal_questions","survey-likert","418","1364998","0.0-6.0-6.58","2931633","co39367","norming","","","{""aha"":1}","[0]","../img/tt/1363tt.jpg","",""
"null","<div style=""font-size:60px;""> </div>","null","fixation","html-keyboard-response","419","1365200","0.0-6.0-0.59","2931633","co39367","norming","","","","","","",""
"null","../img/tt/055tt.jpg","null","mooney1","image-keyboard-response","420","1368211","0.0-6.0-1.59","2931633","co39367","norming","","","","","","",""
"3736.1249999993015","","","post_mooney1_questions","survey-likert","421","1371950","0.0-6.0-2.59","2931633","co39367","norming","","","{""curiosity"":4,""confidence"":1}","[0,1]","../img/tt/055tt.jpg","",""
"2646.1699999999255","","","recognition","survey-text","422","1374598","0.0-6.0-3.59","2931633","co39367","norming","","","{""guess"":""emmer""}","","../img/tt/055tt.jpg","",""
"null","../img/gs/055gs.jpg","null","reveal","image-keyboard-response","423","1376604","0.0-6.0-4.59","2931633","co39367","norming","","","","","","",""
"null","../img/tt/055tt.jpg","null","mooney2","image-keyboard-response","424","1378606","0.0-6.0-5.59","2931633","co39367","norming","","","","","","",""
"1437.4900000004563","","","post_reveal_questions","survey-likert","425","1380046","0.0-6.0-6.59","2931633","co39367","norming","","","{""aha"":4}","[0]","../img/tt/055tt.jpg","",""
"null","<div style=""font-size:60px;""> </div>","null","fixation","html-keyboard-response","426","1380257","0.0-6.0-0.60","2931633","co39367","norming","","","","","","",""
"null","../img/tt/440tt.jpg","null","mooney1","image-keyboard-response","427","1383263","0.0-6.0-1.60","2931633","co39367","norming","","","","","","",""
"3404.3549999997485","","","post_mooney1_questions","survey-likert","428","1386670","0.0-6.0-2.60","2931633","co39367","norming","","","{""curiosity"":6,""confidence"":0}","[0,1]","../img/tt/440tt.jpg","",""
"2470.104999999283","","","recognition","survey-text","429","1389142","0.0-6.0-3.60","2931633","co39367","norming","","","{""guess"":""paard""}","","../img/tt/440tt.jpg","",""
"null","../img/gs/440gs.jpg","null","reveal","image-keyboard-response","430","1391149","0.0-6.0-4.60","2931633","co39367","norming","","","","","","",""
"null","../img/tt/440tt.jpg","null","mooney2","image-keyboard-response","431","1393160","0.0-6.0-5.60","2931633","co39367","norming","","","","","","",""
"3115.1500000006054","","","post_reveal_questions","survey-likert","432","1396278","0.0-6.0-6.60","2931633","co39367","norming","","","{""aha"":4}","[0]","../img/tt/440tt.jpg","",""
"null","<div style=""font-size:60px;""> </div>","null","fixation","html-keyboard-response","433","1396482","0.0-6.0-0.61","2931633","co39367","norming","","","","","","",""
"null","../img/tt/063tt.jpg","null","mooney1","image-keyboard-response","434","1399486","0.0-6.0-1.61","2931633","co39367","norming","","","","","","",""
"2981.064999999944","","","post_mooney1_questions","survey-likert","435","1402470","0.0-6.0-2.61","2931633","co39367","norming","","","{""curiosity"":3,""confidence"":3}","[0,1]","../img/tt/063tt.jpg","",""
"6030.37999999919","","","recognition","survey-text","436","1408502","0.0-6.0-3.61","2931633","co39367","norming","","","{""guess"":""acordeon""}","","../img/tt/063tt.jpg","",""
"null","../img/gs/063gs.jpg","null","reveal","image-keyboard-response","437","1410504","0.0-6.0-4.61","2931633","co39367","norming","","","","","","",""
"null","../img/tt/063tt.jpg","null","mooney2","image-keyboard-response","438","1412507","0.0-6.0-5.61","2931633","co39367","norming","","","","","","",""
"4184.995000000577","","","post_reveal_questions","survey-likert","439","1416695","0.0-6.0-6.61","2931633","co39367","norming","","","{""aha"":0}","[0]","../img/tt/063tt.jpg","",""
"null","<div style=""font-size:60px;""> </div>","null","fixation","html-keyboard-response","440","1416902","0.0-6.0-0.62","2931633","co39367","norming","","","","","","",""
"null","../img/tt/1191tt.jpg","null","mooney1","image-keyboard-response","441","1419908","0.0-6.0-1.62","2931633","co39367","norming","","","","","","",""
"8375.42500000028","","","post_mooney1_questions","survey-likert","442","1428283","0.0-6.0-2.62","2931633","co39367","norming","","","{""curiosity"":5,""confidence"":1}","[0,1]","../img/tt/1191tt.jpg","",""
"4165.9449999995995","","","recognition","survey-text","443","1432451","0.0-6.0-3.62","2931633","co39367","norming","","","{""guess"":""wandelaars""}","","../img/tt/1191tt.jpg","",""
"null","../img/gs/1191gs.jpg","null","reveal","image-keyboard-response","444","1434453","0.0-6.0-4.62","2931633","co39367","norming","","","","","","",""
"null","../img/tt/1191tt.jpg","null","mooney2","image-keyboard-response","445","1436464","0.0-6.0-5.62","2931633","co39367","norming","","","","","","",""
"1832.2250000000931","","","post_reveal_questions","survey-likert","446","1438299","0.0-6.0-6.62","2931633","co39367","norming","","","{""aha"":5}","[0]","../img/tt/1191tt.jpg","",""
"null","<div style=""font-size:60px;""> </div>","null","fixation","html-keyboard-response","447","1438507","0.0-6.0-0.63","2931633","co39367","norming","","","","","","",""
"null","../img/tt/1262tt.jpg","null","mooney1","image-keyboard-response","448","1441509","0.0-6.0-1.63","2931633","co39367","norming","","","","","","",""
"3186.429999999702","","","post_mooney1_questions","survey-likert","449","1444699","0.0-6.0-2.63","2931633","co39367","norming","","","{""curiosity"":5,""confidence"":1}","[0,1]","../img/tt/1262tt.jpg","",""
"5237.990000000456","","","recognition","survey-text","450","1449939","0.0-6.0-3.63","2931633","co39367","norming","","","{""guess"":""papegaai""}","","../img/tt/1262tt.jpg","",""
"null","../img/gs/1262gs.jpg","null","reveal","image-keyboard-response","451","1451940","0.0-6.0-4.63","2931633","co39367","norming","","","","","","",""
"null","../img/tt/1262tt.jpg","null","mooney2","image-keyboard-response","452","1453946","0.0-6.0-5.63","2931633","co39367","norming","","","","","","",""
"2215.459999999497","","","post_reveal_questions","survey-likert","453","1456163","0.0-6.0-6.63","2931633","co39367","norming","","","{""aha"":5}","[0]","../img/tt/1262tt.jpg","",""
"null","<div style=""font-size:60px;""> </div>","null","fixation","html-keyboard-response","454","1456364","0.0-6.0-0.64","2931633","co39367","norming","","","","","","",""
"null","../img/tt/1012tt.jpg","null","mooney1","image-keyboard-response","455","1459374","0.0-6.0-1.64","2931633","co39367","norming","","","","","","",""
"4049.6349999995437","","","post_mooney1_questions","survey-likert","456","1463427","0.0-6.0-2.64","2931633","co39367","norming","","","{""curiosity"":6,""confidence"":0}","[0,1]","../img/tt/1012tt.jpg","",""
"3486.3299999998417","","","recognition","survey-text","457","1466915","0.0-6.0-3.64","2931633","co39367","norming","","","{""guess"":""vogel""}","","../img/tt/1012tt.jpg","",""
"null","../img/gs/1012gs.jpg","null","reveal","image-keyboard-response","458","1468916","0.0-6.0-4.64","2931633","co39367","norming","","","","","","",""
"null","../img/tt/1012tt.jpg","null","mooney2","image-keyboard-response","459","1470926","0.0-6.0-5.64","2931633","co39367","norming","","","","","","",""
"1810.7350000001024","","","post_reveal_questions","survey-likert","460","1472739","0.0-6.0-6.64","2931633","co39367","norming","","","{""aha"":6}","[0]","../img/tt/1012tt.jpg","",""
"null","<div style=""font-size:60px;""> </div>","null","fixation","html-keyboard-response","461","1472949","0.0-6.0-0.65","2931633","co39367","norming","","","","","","",""
"null","../img/tt/1087tt.jpg","null","mooney1","image-keyboard-response","462","1475952","0.0-6.0-1.65","2931633","co39367","norming","","","","","","",""
"3458.005000000354","","","post_mooney1_questions","survey-likert","463","1479411","0.0-6.0-2.65","2931633","co39367","norming","","","{""curiosity"":4,""confidence"":1}","[0,1]","../img/tt/1087tt.jpg","",""
"2461.9350000002887","","","recognition","survey-text","464","1481875","0.0-6.0-3.65","2931633","co39367","norming","","","{""guess"":""schapen""}","","../img/tt/1087tt.jpg","",""
"null","../img/gs/1087gs.jpg","null","reveal","image-keyboard-response","465","1483878","0.0-6.0-4.65","2931633","co39367","norming","","","","","","",""
"null","../img/tt/1087tt.jpg","null","mooney2","image-keyboard-response","466","1485885","0.0-6.0-5.65","2931633","co39367","norming","","","","","","",""
"2223.100000000093","","","post_reveal_questions","survey-likert","467","1488111","0.0-6.0-6.65","2931633","co39367","norming","","","{""aha"":1}","[0]","../img/tt/1087tt.jpg","",""
"null","<div style=""font-size:60px;""> </div>","null","fixation","html-keyboard-response","468","1488315","0.0-6.0-0.66","2931633","co39367","norming","","","","","","",""
"null","../img/tt/1126tt.jpg","null","mooney1","image-keyboard-response","469","1491323","0.0-6.0-1.66","2931633","co39367","norming","","","","","","",""
"3337.18499999959","","","post_mooney1_questions","survey-likert","470","1494663","0.0-6.0-2.66","2931633","co39367","norming","","","{""curiosity"":6,""confidence"":0}","[0,1]","../img/tt/1126tt.jpg","",""
"709.989999999525","","","recognition","survey-text","471","1495375","0.0-6.0-3.66","2931633","co39367","norming","","","{""guess"":""""}","","../img/tt/1126tt.jpg","",""
"null","../img/gs/1126gs.jpg","null","reveal","image-keyboard-response","472","1497385","0.0-6.0-4.66","2931633","co39367","norming","","","","","","",""
"null","../img/tt/1126tt.jpg","null","mooney2","image-keyboard-response","473","1499390","0.0-6.0-5.66","2931633","co39367","norming","","","","","","",""
"2173.5749999999534","","","post_reveal_questions","survey-likert","474","1501567","0.0-6.0-6.66","2931633","co39367","norming","","","{""aha"":6}","[0]","../img/tt/1126tt.jpg","",""
"null","<div style=""font-size:60px;""> </div>","null","fixation","html-keyboard-response","475","1501773","0.0-6.0-0.67","2931633","co39367","norming","","","","","","",""
"null","../img/tt/1199tt.jpg","null","mooney1","image-keyboard-response","476","1504776","0.0-6.0-1.67","2931633","co39367","norming","","","","","","",""
"7139.614999999991","","","post_mooney1_questions","survey-likert","477","1511919","0.0-6.0-2.67","2931633","co39367","norming","","","{""curiosity"":1,""confidence"":6}","[0,1]","../img/tt/1199tt.jpg","",""
"2870.1649999993388","","","recognition","survey-text","478","1514791","0.0-6.0-3.67","2931633","co39367","norming","","","{""guess"":""turnster""}","","../img/tt/1199tt.jpg","",""
"null","../img/gs/1199gs.jpg","null","reveal","image-keyboard-response","479","1516794","0.0-6.0-4.67","2931633","co39367","norming","","","","","","",""
"null","../img/tt/1199tt.jpg","null","mooney2","image-keyboard-response","480","1518805","0.0-6.0-5.67","2931633","co39367","norming","","","","","","",""
"2174.854999999283","","","post_reveal_questions","survey-likert","481","1520983","0.0-6.0-6.67","2931633","co39367","norming","","","{""aha"":0}","[0]","../img/tt/1199tt.jpg","",""
"null","<div style=""font-size:60px;""> </div>","null","fixation","html-keyboard-response","482","1521184","0.0-6.0-0.68","2931633","co39367","norming","","","","","","",""
"null","../img/tt/584tt.jpg","null","mooney1","image-keyboard-response","483","1524197","0.0-6.0-1.68","2931633","co39367","norming","","","","","","",""
"3119.064999999944","","","post_mooney1_questions","survey-likert","484","1527319","0.0-6.0-2.68","2931633","co39367","norming","","","{""curiosity"":4,""confidence"":1}","[0,1]","../img/tt/584tt.jpg","",""
"7213.774999999208","","","recognition","survey-text","485","1534535","0.0-6.0-3.68","2931633","co39367","norming","","","{""guess"":""gereedschap""}","","../img/tt/584tt.jpg","",""
"null","../img/gs/584gs.jpg","null","reveal","image-keyboard-response","486","1536541","0.0-6.0-4.68","2931633","co39367","norming","","","","","","",""
"null","../img/tt/584tt.jpg","null","mooney2","image-keyboard-response","487","1538544","0.0-6.0-5.68","2931633","co39367","norming","","","","","","",""
"2141.0049999996554","","","post_reveal_questions","survey-likert","488","1540687","0.0-6.0-6.68","2931633","co39367","norming","","","{""aha"":0}","[0]","../img/tt/584tt.jpg","",""
"null","<div style=""font-size:60px;""> </div>","null","fixation","html-keyboard-response","489","1540891","0.0-6.0-0.69","2931633","co39367","norming","","","","","","",""
"null","../img/tt/098tt.jpg","null","mooney1","image-keyboard-response","490","1543893","0.0-6.0-1.69","2931633","co39367","norming","","","","","","",""
"4101.700000000186","","","post_mooney1_questions","survey-likert","491","1547994","0.0-6.0-2.69","2931633","co39367","norming","","","{""curiosity"":6,""confidence"":0}","[0,1]","../img/tt/098tt.jpg","",""
"2342.480000000214","","","recognition","survey-text","492","1550338","0.0-6.0-3.69","2931633","co39367","norming","","","{""guess"":""vogel""}","","../img/tt/098tt.jpg","",""
"null","../img/gs/098gs.jpg","null","reveal","image-keyboard-response","493","1552346","0.0-6.0-4.69","2931633","co39367","norming","","","","","","",""
"null","../img/tt/098tt.jpg","null","mooney2","image-keyboard-response","494","1554348","0.0-6.0-5.69","2931633","co39367","norming","","","","","","",""
"1683.655000000028","","","post_reveal_questions","survey-likert","495","1556035","0.0-6.0-6.69","2931633","co39367","norming","","","{""aha"":1}","[0]","../img/tt/098tt.jpg","",""
"null","<div style=""font-size:60px;""> </div>","null","fixation","html-keyboard-response","496","1556242","0.0-6.0-0.70","2931633","co39367","norming","","","","","","",""
"null","../img/tt/1024tt.jpg","null","mooney1","image-keyboard-response","497","1559247","0.0-6.0-1.70","2931633","co39367","norming","","","","","","",""
"4416.074999999953","","","post_mooney1_questions","survey-likert","498","1563666","0.0-6.0-2.70","2931633","co39367","norming","","","{""curiosity"":1,""confidence"":5}","[0,1]","../img/tt/1024tt.jpg","",""
"3630.2249999998603","","","recognition","survey-text","499","1567298","0.0-6.0-3.70","2931633","co39367","norming","","","{""guess"":""tenniser""}","","../img/tt/1024tt.jpg","",""
"null","../img/gs/1024gs.jpg","null","reveal","image-keyboard-response","500","1569300","0.0-6.0-4.70","2931633","co39367","norming","","","","","","",""
"null","../img/tt/1024tt.jpg","null","mooney2","image-keyboard-response","501","1571311","0.0-6.0-5.70","2931633","co39367","norming","","","","","","",""
"2218.3399999993853","","","post_reveal_questions","survey-likert","502","1573530","0.0-6.0-6.70","2931633","co39367","norming","","","{""aha"":0}","[0]","../img/tt/1024tt.jpg","",""
"null","<div style=""font-size:60px;""> </div>","null","fixation","html-keyboard-response","503","1573731","0.0-6.0-0.71","2931633","co39367","norming","","","","","","",""
"null","../img/tt/078tt.jpg","null","mooney1","image-keyboard-response","504","1576740","0.0-6.0-1.71","2931633","co39367","norming","","","","","","",""
"3596.774999999907","","","post_mooney1_questions","survey-likert","505","1580339","0.0-6.0-2.71","2931633","co39367","norming","","","{""curiosity"":5,""confidence"":2}","[0,1]","../img/tt/078tt.jpg","",""
"3677.749999999767","","","recognition","survey-text","506","1584018","0.0-6.0-3.71","2931633","co39367","norming","","","{""guess"":""druiven""}","","../img/tt/078tt.jpg","",""
"null","../img/gs/078gs.jpg","null","reveal","image-keyboard-response","507","1586020","0.0-6.0-4.71","2931633","co39367","norming","","","","","","",""
"null","../img/tt/078tt.jpg","null","mooney2","image-keyboard-response","508","1588028","0.0-6.0-5.71","2931633","co39367","norming","","","","","","",""
"1997.2600000002421","","","post_reveal_questions","survey-likert","509","1590026","0.0-6.0-6.71","2931633","co39367","norming","","","{""aha"":0}","[0]","../img/tt/078tt.jpg","",""
"null","<div style=""font-size:60px;""> </div>","null","fixation","html-keyboard-response","510","1590234","0.0-6.0-0.72","2931633","co39367","norming","","","","","","",""
"null","../img/tt/1143tt.jpg","null","mooney1","image-keyboard-response","511","1593244","0.0-6.0-1.72","2931633","co39367","norming","","","","","","",""
"6052.445000000298","","","post_mooney1_questions","survey-likert","512","1599298","0.0-6.0-2.72","2931633","co39367","norming","","","{""curiosity"":4,""confidence"":1}","[0,1]","../img/tt/1143tt.jpg","",""
"2349.804999999935","","","recognition","survey-text","513","1601650","0.0-6.0-3.72","2931633","co39367","norming","","","{""guess"":""fitness""}","","../img/tt/1143tt.jpg","",""
"null","../img/gs/1143gs.jpg","null","reveal","image-keyboard-response","514","1603652","0.0-6.0-4.72","2931633","co39367","norming","","","","","","",""
"null","../img/tt/1143tt.jpg","null","mooney2","image-keyboard-response","515","1605655","0.0-6.0-5.72","2931633","co39367","norming","","","","","","",""
"2795.089999999618","","","post_reveal_questions","survey-likert","516","1608452","0.0-6.0-6.72","2931633","co39367","norming","","","{""aha"":0}","[0]","../img/tt/1143tt.jpg","",""
"null","<div style=""font-size:60px;""> </div>","null","fixation","html-keyboard-response","517","1608662","0.0-6.0-0.73","2931633","co39367","norming","","","","","","",""
"null","../img/tt/1251tt.jpg","null","mooney1","image-keyboard-response","518","1611665","0.0-6.0-1.73","2931633","co39367","norming","","","","","","",""
"3360.8050000004005","","","post_mooney1_questions","survey-likert","519","1615028","0.0-6.0-2.73","2931633","co39367","norming","","","{""curiosity"":4,""confidence"":2}","[0,1]","../img/tt/1251tt.jpg","",""
"2142.234999999404","","","recognition","survey-text","520","1617172","0.0-6.0-3.73","2931633","co39367","norming","","","{""guess"":""beer""}","","../img/tt/1251tt.jpg","",""
"null","../img/gs/1251gs.jpg","null","reveal","image-keyboard-response","521","1619174","0.0-6.0-4.73","2931633","co39367","norming","","","","","","",""
"null","../img/tt/1251tt.jpg","null","mooney2","image-keyboard-response","522","1621177","0.0-6.0-5.73","2931633","co39367","norming","","","","","","",""
"1336.3700000001118","","","post_reveal_questions","survey-likert","523","1622516","0.0-6.0-6.73","2931633","co39367","norming","","","{""aha"":0}","[0]","../img/tt/1251tt.jpg","",""
"null","<div style=""font-size:60px;""> </div>","null","fixation","html-keyboard-response","524","1622722","0.0-6.0-0.74","2931633","co39367","norming","","","","","","",""
"null","../img/tt/1366tt.jpg","null","mooney1","image-keyboard-response","525","1625726","0.0-6.0-1.74","2931633","co39367","norming","","","","","","",""
"2251.7800000004936","","","post_mooney1_questions","survey-likert","526","1627980","0.0-6.0-2.74","2931633","co39367","norming","","","{""curiosity"":3,""confidence"":2}","[0,1]","../img/tt/1366tt.jpg","",""
"2854.2999999998137","","","recognition","survey-text","527","1630836","0.0-6.0-3.74","2931633","co39367","norming","","","{""guess"":""eten""}","","../img/tt/1366tt.jpg","",""
"null","../img/gs/1366gs.jpg","null","reveal","image-keyboard-response","528","1632837","0.0-6.0-4.74","2931633","co39367","norming","","","","","","",""
"null","../img/tt/1366tt.jpg","null","mooney2","image-keyboard-response","529","1634842","0.0-6.0-5.74","2931633","co39367","norming","","","","","","",""
"1807.9599999999627","","","post_reveal_questions","survey-likert","530","1636652","0.0-6.0-6.74","2931633","co39367","norming","","","{""aha"":0}","[0]","../img/tt/1366tt.jpg","",""
"null","<div style=""font-size:60px;""> </div>","null","fixation","html-keyboard-response","531","1636859","0.0-6.0-0.75","2931633","co39367","norming","","","","","","",""
"null","../img/tt/094tt.jpg","null","mooney1","image-keyboard-response","532","1639862","0.0-6.0-1.75","2931633","co39367","norming","","","","","","",""
"4948.409999999916","","","post_mooney1_questions","survey-likert","533","1644812","0.0-6.0-2.75","2931633","co39367","norming","","","{""curiosity"":5,""confidence"":0}","[0,1]","../img/tt/094tt.jpg","",""
"3909.859999999637","","","recognition","survey-text","534","1648724","0.0-6.0-3.75","2931633","co39367","norming","","","{""guess"":""koe""}","","../img/tt/094tt.jpg","",""
"null","../img/gs/094gs.jpg","null","reveal","image-keyboard-response","535","1650730","0.0-6.0-4.75","2931633","co39367","norming","","","","","","",""
"null","../img/tt/094tt.jpg","null","mooney2","image-keyboard-response","536","1652738","0.0-6.0-5.75","2931633","co39367","norming","","","","","","",""
"4239.089999999851","","","post_reveal_questions","survey-likert","537","1656980","0.0-6.0-6.75","2931633","co39367","norming","","","{""aha"":4}","[0]","../img/tt/094tt.jpg","",""
"null","<div style=""font-size:60px;""> </div>","null","fixation","html-keyboard-response","538","1657181","0.0-6.0-0.76","2931633","co39367","norming","","","","","","",""
"null","../img/tt/1086tt.jpg","null","mooney1","image-keyboard-response","539","1660184","0.0-6.0-1.76","2931633","co39367","norming","","","","","","",""
"3618.2950000001583","","","post_mooney1_questions","survey-likert","540","1663804","0.0-6.0-2.76","2931633","co39367","norming","","","{""curiosity"":6,""confidence"":0}","[0,1]","../img/tt/1086tt.jpg","",""
"2693.6800000004005","","","recognition","survey-text","541","1666500","0.0-6.0-3.76","2931633","co39367","norming","","","{""guess"":""tafel""}","","../img/tt/1086tt.jpg","",""
"null","../img/gs/1086gs.jpg","null","reveal","image-keyboard-response","542","1668509","0.0-6.0-4.76","2931633","co39367","norming","","","","","","",""
"null","../img/tt/1086tt.jpg","null","mooney2","image-keyboard-response","543","1670511","0.0-6.0-5.76","2931633","co39367","norming","","","","","","",""
"2663.779999999795","","","post_reveal_questions","survey-likert","544","1673176","0.0-6.0-6.76","2931633","co39367","norming","","","{""aha"":5}","[0]","../img/tt/1086tt.jpg","",""
"null","<div style=""font-size:60px;""> </div>","null","fixation","html-keyboard-response","545","1673378","0.0-6.0-0.77","2931633","co39367","norming","","","","","","",""
"null","../img/tt/481tt.jpg","null","mooney1","image-keyboard-response","546","1676380","0.0-6.0-1.77","2931633","co39367","norming","","","","","","",""
"2866.8199999993667","","","post_mooney1_questions","survey-likert","547","1679248","0.0-6.0-2.77","2931633","co39367","norming","","","{""curiosity"":5,""confidence"":2}","[0,1]","../img/tt/481tt.jpg","",""
"3046.024999999441","","","recognition","survey-text","548","1682296","0.0-6.0-3.77","2931633","co39367","norming","","","{""guess"":""hond""}","","../img/tt/481tt.jpg","",""
"null","../img/gs/481gs.jpg","null","reveal","image-keyboard-response","549","1684303","0.0-6.0-4.77","2931633","co39367","norming","","","","","","",""
"null","../img/tt/481tt.jpg","null","mooney2","image-keyboard-response","550","1686305","0.0-6.0-5.77","2931633","co39367","norming","","","","","","",""
"1526.5600000002887","","","post_reveal_questions","survey-likert","551","1687832","0.0-6.0-6.77","2931633","co39367","norming","","","{""aha"":0}","[0]","../img/tt/481tt.jpg","",""
