"rt","stimulus","key_press","test_part","trial_type","trial_index","time_elapsed","internal_node_id","totalTime","subject","experiment_name","button_pressed","success","responses","question_order","currentStim","old","correct"
"3936.7449999999735","Welcome to the experiment. This is an online experiment so please don't close the tab/window until we say goodbye.  Press any key to begin.","13","instructions","html-keyboard-response","0","3987","0.0-0.0","2733237","co39382","norming","","","","","","",""
"5654.524999999921","<div style='word-wrap: break-word; width: 900px'><h3>Please consider this information carefully before deciding whether to participate in this research</h3><ul style='text-align: left; font-size: .8em;'><li><b>Purpose of the research</b>: To examine how people process images.</li><li><b>What you will do in this research</b>:  Stimuli (images) will be presented on the computer and you will be asked different questions about them.</li><li><b>Time required</b>: Participation will take between 45 and 60 minutes to complete.</li><li><b>Risks</b>:  There are no anticipated risks associated with participating in this study. The effects of participating should be comparable to those you would experience from viewing a computer monitor for 30 minutes and using a mouse or keyboard.</li><li><b>Benefits</b>:  This study provides no benefits to you individually except for the credit. The study provides important information about the nature of perception and learning.</li><li><b>Confidentiality</b>:  Your participation in this study will remain confidential. No personally identifiable information will be associated with your data. Your de-identified data may be shared with other researchers and used in future projects.</li><li><b>Participation and withdrawal</b>:  Your participation in this study is completely voluntary and you may refuse to participate or you may choose to withdraw at any time without penalty.</li><li><b>How to contact the researchers</b>: If you have questions or concerns about your participation or payment, or want to request a summary of research findings, please contact Sander Van de Cruys (KU Leuven), at sander.vandecruys@kuleuven.be.</li></ul><p>The nature and purpose of this research have been sufficiently explained and I agree to participate in this study.  I understand that I am free to withdraw at any time without incurring any penalty.</p><p>Please consent by clicking the button below to continue. Otherwise, please exit the study at this time.</p></div>","","instructions","html-button-response","1","9643","0.0-1.0","2733237","co39382","norming","0","","","","","",""
"","","","instructions","fullscreen","2","13644","0.0-2.0","2733237","co39382","norming","","true","","","","",""
"33797.24999999962","","","sona","survey-html-form","3","47447","0.0-3.0","2733237","co39382","norming","","","[{""name"":""sonaid"",""value"":""39382""},{""name"":""debrief"",""value"":""yes""},{""name"":""datajoin"",""value"":""yes""}]","","","",""
"53178.565000000155","<div style='word-wrap: break-word; width: 900px'><h3>Instructions</h3><p>This experiment will have 3 parts. In the first part you will see a series of distorted images like the one below on the left. As you can see in the righthand image, the distorted images are derived from actual photographs. In what follows, you will <strong>briefly</strong> be presented with <strong>only</strong> the distorted image.</p> <div style='float: left; margin-right: 20px;'><img src='../img/018tt.jpg' height='250' width='250'></img></div><div style='float: right; margin-left: 20px;'><img src='../img/018gs.jpg' height='250' width='250'></img></div><p>Subsequently you will be asked a few questions about the image: One question on how <strong>curious</strong> you are about the solution and one on how <strong>confident</strong> you are that you know the solution.</p>Next, we ask you to make a guess on what is in the image. Note that it is OK to name just the <strong>basic level category</strong>. For example when you see a parrot in the image, 'parrot' will obviously be a correct answer but also correct is 'bird'. However, 'animal' will <strong>not</strong> be counted as a correct response. For the example above, 'rose' would be correct or 'flower', but not 'plant'. When soccer players are depicted, 'soccer', 'football', 'soccer players' will be correct, but not 'humans', 'outdoors', or 'sports'. You do not need to describe the image in full, just name the main object in it <strong>in one or two words</strong>. All images depict objects from one of the following broad level categories: animals, inanimate objects, plants, sports, vehicles, and food. Recognizing means knowing <strong>more</strong> than these broad labels for a given image. But we always encourage you to <strong>make a guess</strong> if you can. Note that you are allowed to use <strong>Dutch and English</strong> in your answers, whatever comes easiest for you.</p><p>Press any key to continue.</p></div>","13","instructions","html-keyboard-response","4","100628","0.0-4.0","2733237","co39382","norming","","","","","","",""
"71287.30499999892","<div style='word-wrap: break-word; width: 900px'><h3>Instructions</h3> <p>Next, the solution image will be revealed to you and you'll be asked to indicate how strong your <strong>aha-experience</strong> was after seeing the solution. This describes the positive feeling of the 'click' you sometimes experience, when the pieces of the 'puzzle' fall together and you suddenly have 'insight' in the image.</p><img src='aha.jpg' height='188' width='250'></img><p>Note that there are no right or wrong answers. We are interested in what <strong>you</strong> see in the image and how <strong>you</strong> feel about it.</p><p>Press any key to start the experiment.</p></div>","13","instructions","html-keyboard-response","5","171916","0.0-5.0","2733237","co39382","norming","","","","","","",""
"null","<div style=""font-size:60px;""> </div>","null","fixation","html-keyboard-response","6","172118","0.0-6.0-0.0","2733237","co39382","norming","","","","","","",""
"null","../img/tt/040tt.jpg","null","mooney1","image-keyboard-response","7","175123","0.0-6.0-1.0","2733237","co39382","norming","","","","","","",""
"13116.81999999928","","","post_mooney1_questions","survey-likert","8","188244","0.0-6.0-2.0","2733237","co39382","norming","","","{""curiosity"":6,""confidence"":2}","[0,1]","../img/tt/040tt.jpg","",""
"5165.39000000013","","","recognition","survey-text","9","193412","0.0-6.0-3.0","2733237","co39382","norming","","","{""guess"":""dinosaur""}","","../img/tt/040tt.jpg","",""
"null","../img/gs/040gs.jpg","null","reveal","image-keyboard-response","10","195413","0.0-6.0-4.0","2733237","co39382","norming","","","","","","",""
"null","../img/tt/040tt.jpg","null","mooney2","image-keyboard-response","11","197416","0.0-6.0-5.0","2733237","co39382","norming","","","","","","",""
"3633.7000000003027","","","post_reveal_questions","survey-likert","12","201052","0.0-6.0-6.0","2733237","co39382","norming","","","{""aha"":4}","[0]","../img/tt/040tt.jpg","",""
"null","<div style=""font-size:60px;""> </div>","null","fixation","html-keyboard-response","13","201254","0.0-6.0-0.1","2733237","co39382","norming","","","","","","",""
"null","../img/tt/052tt.jpg","null","mooney1","image-keyboard-response","14","204256","0.0-6.0-1.1","2733237","co39382","norming","","","","","","",""
"5537.659999999945","","","post_mooney1_questions","survey-likert","15","209796","0.0-6.0-2.1","2733237","co39382","norming","","","{""curiosity"":2,""confidence"":2}","[0,1]","../img/tt/052tt.jpg","",""
"2845.564999999595","","","recognition","survey-text","16","212643","0.0-6.0-3.1","2733237","co39382","norming","","","{""guess"":""pot""}","","../img/tt/052tt.jpg","",""
"null","../img/gs/052gs.jpg","null","reveal","image-keyboard-response","17","214645","0.0-6.0-4.1","2733237","co39382","norming","","","","","","",""
"null","../img/tt/052tt.jpg","null","mooney2","image-keyboard-response","18","216649","0.0-6.0-5.1","2733237","co39382","norming","","","","","","",""
"2456.89499999932","","","post_reveal_questions","survey-likert","19","219108","0.0-6.0-6.1","2733237","co39382","norming","","","{""aha"":5}","[0]","../img/tt/052tt.jpg","",""
"null","<div style=""font-size:60px;""> </div>","null","fixation","html-keyboard-response","20","219310","0.0-6.0-0.2","2733237","co39382","norming","","","","","","",""
"null","../img/tt/1012tt.jpg","null","mooney1","image-keyboard-response","21","222312","0.0-6.0-1.2","2733237","co39382","norming","","","","","","",""
"11193.94000000105","","","post_mooney1_questions","survey-likert","22","233509","0.0-6.0-2.2","2733237","co39382","norming","","","{""curiosity"":3,""confidence"":3}","[0,1]","../img/tt/1012tt.jpg","",""
"3413.730000000214","","","recognition","survey-text","23","236924","0.0-6.0-3.2","2733237","co39382","norming","","","{""guess"":""mountains""}","","../img/tt/1012tt.jpg","",""
"null","../img/gs/1012gs.jpg","null","reveal","image-keyboard-response","24","238925","0.0-6.0-4.2","2733237","co39382","norming","","","","","","",""
"null","../img/tt/1012tt.jpg","null","mooney2","image-keyboard-response","25","240926","0.0-6.0-5.2","2733237","co39382","norming","","","","","","",""
"3980.9199999999837","","","post_reveal_questions","survey-likert","26","244908","0.0-6.0-6.2","2733237","co39382","norming","","","{""aha"":2}","[0]","../img/tt/1012tt.jpg","",""
"null","<div style=""font-size:60px;""> </div>","null","fixation","html-keyboard-response","27","245111","0.0-6.0-0.3","2733237","co39382","norming","","","","","","",""
"null","../img/tt/1143tt.jpg","null","mooney1","image-keyboard-response","28","248114","0.0-6.0-1.3","2733237","co39382","norming","","","","","","",""
"6295.210000000225","","","post_mooney1_questions","survey-likert","29","254412","0.0-6.0-2.3","2733237","co39382","norming","","","{""curiosity"":1,""confidence"":1}","[0,1]","../img/tt/1143tt.jpg","",""
"3189.945000000065","","","recognition","survey-text","30","257604","0.0-6.0-3.3","2733237","co39382","norming","","","{""guess"":""bike""}","","../img/tt/1143tt.jpg","",""
"null","../img/gs/1143gs.jpg","null","reveal","image-keyboard-response","31","259606","0.0-6.0-4.3","2733237","co39382","norming","","","","","","",""
"null","../img/tt/1143tt.jpg","null","mooney2","image-keyboard-response","32","261607","0.0-6.0-5.3","2733237","co39382","norming","","","","","","",""
"4642.804999999469","","","post_reveal_questions","survey-likert","33","266252","0.0-6.0-6.3","2733237","co39382","norming","","","{""aha"":1}","[0]","../img/tt/1143tt.jpg","",""
"null","<div style=""font-size:60px;""> </div>","null","fixation","html-keyboard-response","34","266453","0.0-6.0-0.4","2733237","co39382","norming","","","","","","",""
"null","../img/tt/378tt.jpg","null","mooney1","image-keyboard-response","35","269455","0.0-6.0-1.4","2733237","co39382","norming","","","","","","",""
"9739.030000000668","","","post_mooney1_questions","survey-likert","36","279196","0.0-6.0-2.4","2733237","co39382","norming","","","{""curiosity"":4,""confidence"":3}","[0,1]","../img/tt/378tt.jpg","",""
"2046.1549999999697","","","recognition","survey-text","37","281244","0.0-6.0-3.4","2733237","co39382","norming","","","{""guess"":""nun""}","","../img/tt/378tt.jpg","",""
"null","../img/gs/378gs.jpg","null","reveal","image-keyboard-response","38","283245","0.0-6.0-4.4","2733237","co39382","norming","","","","","","",""
"null","../img/tt/378tt.jpg","null","mooney2","image-keyboard-response","39","285250","0.0-6.0-5.4","2733237","co39382","norming","","","","","","",""
"2648.769999999786","","","post_reveal_questions","survey-likert","40","287901","0.0-6.0-6.4","2733237","co39382","norming","","","{""aha"":2}","[0]","../img/tt/378tt.jpg","",""
"null","<div style=""font-size:60px;""> </div>","null","fixation","html-keyboard-response","41","288103","0.0-6.0-0.5","2733237","co39382","norming","","","","","","",""
"null","../img/tt/013tt.jpg","null","mooney1","image-keyboard-response","42","291104","0.0-6.0-1.5","2733237","co39382","norming","","","","","","",""
"5090.854999998584","","","post_mooney1_questions","survey-likert","43","296197","0.0-6.0-2.5","2733237","co39382","norming","","","{""curiosity"":1,""confidence"":5}","[0,1]","../img/tt/013tt.jpg","",""
"3702.2600000000093","","","recognition","survey-text","44","299901","0.0-6.0-3.5","2733237","co39382","norming","","","{""guess"":""camel""}","","../img/tt/013tt.jpg","",""
"null","../img/gs/013gs.jpg","null","reveal","image-keyboard-response","45","301903","0.0-6.0-4.5","2733237","co39382","norming","","","","","","",""
"null","../img/tt/013tt.jpg","null","mooney2","image-keyboard-response","46","303905","0.0-6.0-5.5","2733237","co39382","norming","","","","","","",""
"2337.3549999996903","","","post_reveal_questions","survey-likert","47","306245","0.0-6.0-6.5","2733237","co39382","norming","","","{""aha"":0}","[0]","../img/tt/013tt.jpg","",""
"null","<div style=""font-size:60px;""> </div>","null","fixation","html-keyboard-response","48","306447","0.0-6.0-0.6","2733237","co39382","norming","","","","","","",""
"null","../img/tt/1241tt.jpg","null","mooney1","image-keyboard-response","49","309450","0.0-6.0-1.6","2733237","co39382","norming","","","","","","",""
"5512.799999998591","","","post_mooney1_questions","survey-likert","50","314965","0.0-6.0-2.6","2733237","co39382","norming","","","{""curiosity"":2,""confidence"":5}","[0,1]","../img/tt/1241tt.jpg","",""
"2422.2800000007264","","","recognition","survey-text","51","317389","0.0-6.0-3.6","2733237","co39382","norming","","","{""guess"":""dog""}","","../img/tt/1241tt.jpg","",""
"null","../img/gs/1241gs.jpg","null","reveal","image-keyboard-response","52","319390","0.0-6.0-4.6","2733237","co39382","norming","","","","","","",""
"null","../img/tt/1241tt.jpg","null","mooney2","image-keyboard-response","53","321392","0.0-6.0-5.6","2733237","co39382","norming","","","","","","",""
"3698.6300000008196","","","post_reveal_questions","survey-likert","54","325093","0.0-6.0-6.6","2733237","co39382","norming","","","{""aha"":2}","[0]","../img/tt/1241tt.jpg","",""
"null","<div style=""font-size:60px;""> </div>","null","fixation","html-keyboard-response","55","325296","0.0-6.0-0.7","2733237","co39382","norming","","","","","","",""
"null","../img/tt/1260tt.jpg","null","mooney1","image-keyboard-response","56","328299","0.0-6.0-1.7","2733237","co39382","norming","","","","","","",""
"4511.94500000024","","","post_mooney1_questions","survey-likert","57","332813","0.0-6.0-2.7","2733237","co39382","norming","","","{""curiosity"":5,""confidence"":6}","[0,1]","../img/tt/1260tt.jpg","",""
"1854.0549999997602","","","recognition","survey-text","58","334669","0.0-6.0-3.7","2733237","co39382","norming","","","{""guess"":""rat""}","","../img/tt/1260tt.jpg","",""
"null","../img/gs/1260gs.jpg","null","reveal","image-keyboard-response","59","336671","0.0-6.0-4.7","2733237","co39382","norming","","","","","","",""
"null","../img/tt/1260tt.jpg","null","mooney2","image-keyboard-response","60","338672","0.0-6.0-5.7","2733237","co39382","norming","","","","","","",""
"3050.704999999667","","","post_reveal_questions","survey-likert","61","341725","0.0-6.0-6.7","2733237","co39382","norming","","","{""aha"":5}","[0]","../img/tt/1260tt.jpg","",""
"null","<div style=""font-size:60px;""> </div>","null","fixation","html-keyboard-response","62","341927","0.0-6.0-0.8","2733237","co39382","norming","","","","","","",""
"null","../img/tt/279tt.jpg","null","mooney1","image-keyboard-response","63","344930","0.0-6.0-1.8","2733237","co39382","norming","","","","","","",""
"4954.665000001143","","","post_mooney1_questions","survey-likert","64","349885","0.0-6.0-2.8","2733237","co39382","norming","","","{""curiosity"":4,""confidence"":3}","[0,1]","../img/tt/279tt.jpg","",""
"4149.890000000596","","","recognition","survey-text","65","354038","0.0-6.0-3.8","2733237","co39382","norming","","","{""guess"":""koalabear""}","","../img/tt/279tt.jpg","",""
"null","../img/gs/279gs.jpg","null","reveal","image-keyboard-response","66","356040","0.0-6.0-4.8","2733237","co39382","norming","","","","","","",""
"null","../img/tt/279tt.jpg","null","mooney2","image-keyboard-response","67","358042","0.0-6.0-5.8","2733237","co39382","norming","","","","","","",""
"1954.625000000291","","","post_reveal_questions","survey-likert","68","359999","0.0-6.0-6.8","2733237","co39382","norming","","","{""aha"":0}","[0]","../img/tt/279tt.jpg","",""
"null","<div style=""font-size:60px;""> </div>","null","fixation","html-keyboard-response","69","360201","0.0-6.0-0.9","2733237","co39382","norming","","","","","","",""
"null","../img/tt/1116tt.jpg","null","mooney1","image-keyboard-response","70","363203","0.0-6.0-1.9","2733237","co39382","norming","","","","","","",""
"5256.849999999744","","","post_mooney1_questions","survey-likert","71","368463","0.0-6.0-2.9","2733237","co39382","norming","","","{""curiosity"":1,""confidence"":1}","[0,1]","../img/tt/1116tt.jpg","",""
"6030.080000000424","","","recognition","survey-text","72","374495","0.0-6.0-3.9","2733237","co39382","norming","","","{""guess"":""carpark""}","","../img/tt/1116tt.jpg","",""
"null","../img/gs/1116gs.jpg","null","reveal","image-keyboard-response","73","376496","0.0-6.0-4.9","2733237","co39382","norming","","","","","","",""
"null","../img/tt/1116tt.jpg","null","mooney2","image-keyboard-response","74","378498","0.0-6.0-5.9","2733237","co39382","norming","","","","","","",""
"2530.6499999987427","","","post_reveal_questions","survey-likert","75","381031","0.0-6.0-6.9","2733237","co39382","norming","","","{""aha"":3}","[0]","../img/tt/1116tt.jpg","",""
"null","<div style=""font-size:60px;""> </div>","null","fixation","html-keyboard-response","76","381232","0.0-6.0-0.10","2733237","co39382","norming","","","","","","",""
"null","../img/tt/1235tt.jpg","null","mooney1","image-keyboard-response","77","384236","0.0-6.0-1.10","2733237","co39382","norming","","","","","","",""
"5608.369999999937","","","post_mooney1_questions","survey-likert","78","389847","0.0-6.0-2.10","2733237","co39382","norming","","","{""curiosity"":5,""confidence"":1}","[0,1]","../img/tt/1235tt.jpg","",""
"4374.0800000014715","","","recognition","survey-text","79","394222","0.0-6.0-3.10","2733237","co39382","norming","","","{""guess"":""chicken""}","","../img/tt/1235tt.jpg","",""
"null","../img/gs/1235gs.jpg","null","reveal","image-keyboard-response","80","396223","0.0-6.0-4.10","2733237","co39382","norming","","","","","","",""
"null","../img/tt/1235tt.jpg","null","mooney2","image-keyboard-response","81","398225","0.0-6.0-5.10","2733237","co39382","norming","","","","","","",""
"2154.9300000006333","","","post_reveal_questions","survey-likert","82","400383","0.0-6.0-6.10","2733237","co39382","norming","","","{""aha"":6}","[0]","../img/tt/1235tt.jpg","",""
"null","<div style=""font-size:60px;""> </div>","null","fixation","html-keyboard-response","83","400585","0.0-6.0-0.11","2733237","co39382","norming","","","","","","",""
"null","../img/tt/1061tt.jpg","null","mooney1","image-keyboard-response","84","403586","0.0-6.0-1.11","2733237","co39382","norming","","","","","","",""
"4841.795000000275","","","post_mooney1_questions","survey-likert","85","408431","0.0-6.0-2.11","2733237","co39382","norming","","","{""curiosity"":5,""confidence"":0}","[0,1]","../img/tt/1061tt.jpg","",""
"1758.014999999432","","","recognition","survey-text","86","410190","0.0-6.0-3.11","2733237","co39382","norming","","","{""guess"":""""}","","../img/tt/1061tt.jpg","",""
"null","../img/gs/1061gs.jpg","null","reveal","image-keyboard-response","87","412193","0.0-6.0-4.11","2733237","co39382","norming","","","","","","",""
"null","../img/tt/1061tt.jpg","null","mooney2","image-keyboard-response","88","414197","0.0-6.0-5.11","2733237","co39382","norming","","","","","","",""
"2816.820000000065","","","post_reveal_questions","survey-likert","89","417016","0.0-6.0-6.11","2733237","co39382","norming","","","{""aha"":4}","[0]","../img/tt/1061tt.jpg","",""
"null","<div style=""font-size:60px;""> </div>","null","fixation","html-keyboard-response","90","417218","0.0-6.0-0.12","2733237","co39382","norming","","","","","","",""
"null","../img/tt/135tt.jpg","null","mooney1","image-keyboard-response","91","420220","0.0-6.0-1.12","2733237","co39382","norming","","","","","","",""
"4673.4999999990105","","","post_mooney1_questions","survey-likert","92","424896","0.0-6.0-2.12","2733237","co39382","norming","","","{""curiosity"":3,""confidence"":5}","[0,1]","../img/tt/135tt.jpg","",""
"3565.8850000000093","","","recognition","survey-text","93","428464","0.0-6.0-3.12","2733237","co39382","norming","","","{""guess"":""toilet""}","","../img/tt/135tt.jpg","",""
"null","../img/gs/135gs.jpg","null","reveal","image-keyboard-response","94","430466","0.0-6.0-4.12","2733237","co39382","norming","","","","","","",""
"null","../img/tt/135tt.jpg","null","mooney2","image-keyboard-response","95","432469","0.0-6.0-5.12","2733237","co39382","norming","","","","","","",""
"3728.624999999709","","","post_reveal_questions","survey-likert","96","436200","0.0-6.0-6.12","2733237","co39382","norming","","","{""aha"":6}","[0]","../img/tt/135tt.jpg","",""
"null","<div style=""font-size:60px;""> </div>","null","fixation","html-keyboard-response","97","436402","0.0-6.0-0.13","2733237","co39382","norming","","","","","","",""
"null","../img/tt/468tt.jpg","null","mooney1","image-keyboard-response","98","439404","0.0-6.0-1.13","2733237","co39382","norming","","","","","","",""
"5561.4150000000955","","","post_mooney1_questions","survey-likert","99","444968","0.0-6.0-2.13","2733237","co39382","norming","","","{""curiosity"":6,""confidence"":2}","[0,1]","../img/tt/468tt.jpg","",""
"4974.425000000279","","","recognition","survey-text","100","449944","0.0-6.0-3.13","2733237","co39382","norming","","","{""guess"":""wizard""}","","../img/tt/468tt.jpg","",""
"null","../img/gs/468gs.jpg","null","reveal","image-keyboard-response","101","451945","0.0-6.0-4.13","2733237","co39382","norming","","","","","","",""
"null","../img/tt/468tt.jpg","null","mooney2","image-keyboard-response","102","453947","0.0-6.0-5.13","2733237","co39382","norming","","","","","","",""
"3115.2949999996345","","","post_reveal_questions","survey-likert","103","457064","0.0-6.0-6.13","2733237","co39382","norming","","","{""aha"":6}","[0]","../img/tt/468tt.jpg","",""
"null","<div style=""font-size:60px;""> </div>","null","fixation","html-keyboard-response","104","457265","0.0-6.0-0.14","2733237","co39382","norming","","","","","","",""
"null","../img/tt/507tt.jpg","null","mooney1","image-keyboard-response","105","460269","0.0-6.0-1.14","2733237","co39382","norming","","","","","","",""
"3608.850000000559","","","post_mooney1_questions","survey-likert","106","463880","0.0-6.0-2.14","2733237","co39382","norming","","","{""curiosity"":3,""confidence"":6}","[0,1]","../img/tt/507tt.jpg","",""
"2638.290000000794","","","recognition","survey-text","107","466520","0.0-6.0-3.14","2733237","co39382","norming","","","{""guess"":""dancer""}","","../img/tt/507tt.jpg","",""
"null","../img/gs/507gs.jpg","null","reveal","image-keyboard-response","108","468522","0.0-6.0-4.14","2733237","co39382","norming","","","","","","",""
"null","../img/tt/507tt.jpg","null","mooney2","image-keyboard-response","109","470525","0.0-6.0-5.14","2733237","co39382","norming","","","","","","",""
"2593.4450000004144","","","post_reveal_questions","survey-likert","110","473120","0.0-6.0-6.14","2733237","co39382","norming","","","{""aha"":4}","[0]","../img/tt/507tt.jpg","",""
"null","<div style=""font-size:60px;""> </div>","null","fixation","html-keyboard-response","111","473323","0.0-6.0-0.15","2733237","co39382","norming","","","","","","",""
"null","../img/tt/1102tt.jpg","null","mooney1","image-keyboard-response","112","476326","0.0-6.0-1.15","2733237","co39382","norming","","","","","","",""
"3441.26499999949","","","post_mooney1_questions","survey-likert","113","479770","0.0-6.0-2.15","2733237","co39382","norming","","","{""curiosity"":5,""confidence"":1}","[0,1]","../img/tt/1102tt.jpg","",""
"3438.2200000000303","","","recognition","survey-text","114","483209","0.0-6.0-3.15","2733237","co39382","norming","","","{""guess"":""hammock""}","","../img/tt/1102tt.jpg","",""
"null","../img/gs/1102gs.jpg","null","reveal","image-keyboard-response","115","485210","0.0-6.0-4.15","2733237","co39382","norming","","","","","","",""
"null","../img/tt/1102tt.jpg","null","mooney2","image-keyboard-response","116","487214","0.0-6.0-5.15","2733237","co39382","norming","","","","","","",""
"4857.269999998622","","","post_reveal_questions","survey-likert","117","492073","0.0-6.0-6.15","2733237","co39382","norming","","","{""aha"":5}","[0]","../img/tt/1102tt.jpg","",""
"null","<div style=""font-size:60px;""> </div>","null","fixation","html-keyboard-response","118","492275","0.0-6.0-0.16","2733237","co39382","norming","","","","","","",""
"null","../img/tt/098tt.jpg","null","mooney1","image-keyboard-response","119","495279","0.0-6.0-1.16","2733237","co39382","norming","","","","","","",""
"3088.7000000002445","","","post_mooney1_questions","survey-likert","120","498370","0.0-6.0-2.16","2733237","co39382","norming","","","{""curiosity"":3,""confidence"":1}","[0,1]","../img/tt/098tt.jpg","",""
"3021.870000000519","","","recognition","survey-text","121","501393","0.0-6.0-3.16","2733237","co39382","norming","","","{""guess"":""horse""}","","../img/tt/098tt.jpg","",""
"null","../img/gs/098gs.jpg","null","reveal","image-keyboard-response","122","503396","0.0-6.0-4.16","2733237","co39382","norming","","","","","","",""
"null","../img/tt/098tt.jpg","null","mooney2","image-keyboard-response","123","505399","0.0-6.0-5.16","2733237","co39382","norming","","","","","","",""
"3008.615000000631","","","post_reveal_questions","survey-likert","124","508410","0.0-6.0-6.16","2733237","co39382","norming","","","{""aha"":6}","[0]","../img/tt/098tt.jpg","",""
"null","<div style=""font-size:60px;""> </div>","null","fixation","html-keyboard-response","125","508611","0.0-6.0-0.17","2733237","co39382","norming","","","","","","",""
"null","../img/tt/412tt.jpg","null","mooney1","image-keyboard-response","126","511615","0.0-6.0-1.17","2733237","co39382","norming","","","","","","",""
"5863.6800000004005","","","post_mooney1_questions","survey-likert","127","517482","0.0-6.0-2.17","2733237","co39382","norming","","","{""curiosity"":4,""confidence"":2}","[0,1]","../img/tt/412tt.jpg","",""
"2710.064999999304","","","recognition","survey-text","128","520194","0.0-6.0-3.17","2733237","co39382","norming","","","{""guess"":""camera""}","","../img/tt/412tt.jpg","",""
"null","../img/gs/412gs.jpg","null","reveal","image-keyboard-response","129","522196","0.0-6.0-4.17","2733237","co39382","norming","","","","","","",""
"null","../img/tt/412tt.jpg","null","mooney2","image-keyboard-response","130","524198","0.0-6.0-5.17","2733237","co39382","norming","","","","","","",""
"1872.9299999995856","","","post_reveal_questions","survey-likert","131","526074","0.0-6.0-6.17","2733237","co39382","norming","","","{""aha"":4}","[0]","../img/tt/412tt.jpg","",""
"null","<div style=""font-size:60px;""> </div>","null","fixation","html-keyboard-response","132","526276","0.0-6.0-0.18","2733237","co39382","norming","","","","","","",""
"null","../img/tt/329tt.jpg","null","mooney1","image-keyboard-response","133","529279","0.0-6.0-1.18","2733237","co39382","norming","","","","","","",""
"6831.6250000006985","","","post_mooney1_questions","survey-likert","134","536114","0.0-6.0-2.18","2733237","co39382","norming","","","{""curiosity"":5,""confidence"":1}","[0,1]","../img/tt/329tt.jpg","",""
"4813.325000001001","","","recognition","survey-text","135","540930","0.0-6.0-3.18","2733237","co39382","norming","","","{""guess"":""baby stroller""}","","../img/tt/329tt.jpg","",""
"null","../img/gs/329gs.jpg","null","reveal","image-keyboard-response","136","542932","0.0-6.0-4.18","2733237","co39382","norming","","","","","","",""
"null","../img/tt/329tt.jpg","null","mooney2","image-keyboard-response","137","544933","0.0-6.0-5.18","2733237","co39382","norming","","","","","","",""
"1940.254999999539","","","post_reveal_questions","survey-likert","138","546874","0.0-6.0-6.18","2733237","co39382","norming","","","{""aha"":4}","[0]","../img/tt/329tt.jpg","",""
"null","<div style=""font-size:60px;""> </div>","null","fixation","html-keyboard-response","139","547075","0.0-6.0-0.19","2733237","co39382","norming","","","","","","",""
"null","../img/tt/080tt.jpg","null","mooney1","image-keyboard-response","140","550079","0.0-6.0-1.19","2733237","co39382","norming","","","","","","",""
"5712.714999999618","","","post_mooney1_questions","survey-likert","141","555794","0.0-6.0-2.19","2733237","co39382","norming","","","{""curiosity"":5,""confidence"":1}","[0,1]","../img/tt/080tt.jpg","",""
"2501.6799999993527","","","recognition","survey-text","142","558298","0.0-6.0-3.19","2733237","co39382","norming","","","{""guess"":""rabbit""}","","../img/tt/080tt.jpg","",""
"null","../img/gs/080gs.jpg","null","reveal","image-keyboard-response","143","560299","0.0-6.0-4.19","2733237","co39382","norming","","","","","","",""
"null","../img/tt/080tt.jpg","null","mooney2","image-keyboard-response","144","562300","0.0-6.0-5.19","2733237","co39382","norming","","","","","","",""
"1965.4649999993853","","","post_reveal_questions","survey-likert","145","564266","0.0-6.0-6.19","2733237","co39382","norming","","","{""aha"":5}","[0]","../img/tt/080tt.jpg","",""
"null","<div style=""font-size:60px;""> </div>","null","fixation","html-keyboard-response","146","564467","0.0-6.0-0.20","2733237","co39382","norming","","","","","","",""
"null","../img/tt/085tt.jpg","null","mooney1","image-keyboard-response","147","567471","0.0-6.0-1.20","2733237","co39382","norming","","","","","","",""
"8024.355000001378","","","post_mooney1_questions","survey-likert","148","575498","0.0-6.0-2.20","2733237","co39382","norming","","","{""curiosity"":4,""confidence"":2}","[0,1]","../img/tt/085tt.jpg","",""
"2774.1150000002235","","","recognition","survey-text","149","578274","0.0-6.0-3.20","2733237","co39382","norming","","","{""guess"":""vulture""}","","../img/tt/085tt.jpg","",""
"null","../img/gs/085gs.jpg","null","reveal","image-keyboard-response","150","580275","0.0-6.0-4.20","2733237","co39382","norming","","","","","","",""
"null","../img/tt/085tt.jpg","null","mooney2","image-keyboard-response","151","582277","0.0-6.0-5.20","2733237","co39382","norming","","","","","","",""
"1818.5749999993714","","","post_reveal_questions","survey-likert","152","584098","0.0-6.0-6.20","2733237","co39382","norming","","","{""aha"":5}","[0]","../img/tt/085tt.jpg","",""
"null","<div style=""font-size:60px;""> </div>","null","fixation","html-keyboard-response","153","584300","0.0-6.0-0.21","2733237","co39382","norming","","","","","","",""
"null","../img/tt/108tt.jpg","null","mooney1","image-keyboard-response","154","587304","0.0-6.0-1.21","2733237","co39382","norming","","","","","","",""
"4934.764999999898","","","post_mooney1_questions","survey-likert","155","592242","0.0-6.0-2.21","2733237","co39382","norming","","","{""curiosity"":5,""confidence"":1}","[0,1]","../img/tt/108tt.jpg","",""
"3477.9949999991804","","","recognition","survey-text","156","595722","0.0-6.0-3.21","2733237","co39382","norming","","","{""guess"":""mountain""}","","../img/tt/108tt.jpg","",""
"null","../img/gs/108gs.jpg","null","reveal","image-keyboard-response","157","597723","0.0-6.0-4.21","2733237","co39382","norming","","","","","","",""
"null","../img/tt/108tt.jpg","null","mooney2","image-keyboard-response","158","599727","0.0-6.0-5.21","2733237","co39382","norming","","","","","","",""
"3233.6450000002515","","","post_reveal_questions","survey-likert","159","602963","0.0-6.0-6.21","2733237","co39382","norming","","","{""aha"":6}","[0]","../img/tt/108tt.jpg","",""
"null","<div style=""font-size:60px;""> </div>","null","fixation","html-keyboard-response","160","603164","0.0-6.0-0.22","2733237","co39382","norming","","","","","","",""
"null","../img/tt/1046tt.jpg","null","mooney1","image-keyboard-response","161","606167","0.0-6.0-1.22","2733237","co39382","norming","","","","","","",""
"2863.1600000008475","","","post_mooney1_questions","survey-likert","162","609035","0.0-6.0-2.22","2733237","co39382","norming","","","{""curiosity"":1,""confidence"":1}","[0,1]","../img/tt/1046tt.jpg","",""
"3590.1750000010943","","","recognition","survey-text","163","612627","0.0-6.0-3.22","2733237","co39382","norming","","","{""guess"":""picknick""}","","../img/tt/1046tt.jpg","",""
"null","../img/gs/1046gs.jpg","null","reveal","image-keyboard-response","164","614629","0.0-6.0-4.22","2733237","co39382","norming","","","","","","",""
"null","../img/tt/1046tt.jpg","null","mooney2","image-keyboard-response","165","616631","0.0-6.0-5.22","2733237","co39382","norming","","","","","","",""
"3242.9049999990966","","","post_reveal_questions","survey-likert","166","619875","0.0-6.0-6.22","2733237","co39382","norming","","","{""aha"":4}","[0]","../img/tt/1046tt.jpg","",""
"null","<div style=""font-size:60px;""> </div>","null","fixation","html-keyboard-response","167","620077","0.0-6.0-0.23","2733237","co39382","norming","","","","","","",""
"null","../img/tt/1084tt.jpg","null","mooney1","image-keyboard-response","168","623081","0.0-6.0-1.23","2733237","co39382","norming","","","","","","",""
"9391.509999999427","","","post_mooney1_questions","survey-likert","169","632475","0.0-6.0-2.23","2733237","co39382","norming","","","{""curiosity"":3,""confidence"":2}","[0,1]","../img/tt/1084tt.jpg","",""
"5605.854999999865","","","recognition","survey-text","170","638083","0.0-6.0-3.23","2733237","co39382","norming","","","{""guess"":""coffee mug""}","","../img/tt/1084tt.jpg","",""
"null","../img/gs/1084gs.jpg","null","reveal","image-keyboard-response","171","640085","0.0-6.0-4.23","2733237","co39382","norming","","","","","","",""
"null","../img/tt/1084tt.jpg","null","mooney2","image-keyboard-response","172","642086","0.0-6.0-5.23","2733237","co39382","norming","","","","","","",""
"2698.910000000964","","","post_reveal_questions","survey-likert","173","644787","0.0-6.0-6.23","2733237","co39382","norming","","","{""aha"":5}","[0]","../img/tt/1084tt.jpg","",""
"null","<div style=""font-size:60px;""> </div>","null","fixation","html-keyboard-response","174","644989","0.0-6.0-0.24","2733237","co39382","norming","","","","","","",""
"null","../img/tt/1251tt.jpg","null","mooney1","image-keyboard-response","175","647991","0.0-6.0-1.24","2733237","co39382","norming","","","","","","",""
"9026.010000001406","","","post_mooney1_questions","survey-likert","176","657019","0.0-6.0-2.24","2733237","co39382","norming","","","{""curiosity"":3,""confidence"":0}","[0,1]","../img/tt/1251tt.jpg","",""
"798.1899999995949","","","recognition","survey-text","177","657819","0.0-6.0-3.24","2733237","co39382","norming","","","{""guess"":""""}","","../img/tt/1251tt.jpg","",""
"null","../img/gs/1251gs.jpg","null","reveal","image-keyboard-response","178","659821","0.0-6.0-4.24","2733237","co39382","norming","","","","","","",""
"null","../img/tt/1251tt.jpg","null","mooney2","image-keyboard-response","179","661823","0.0-6.0-5.24","2733237","co39382","norming","","","","","","",""
"1954.2999999994645","","","post_reveal_questions","survey-likert","180","663780","0.0-6.0-6.24","2733237","co39382","norming","","","{""aha"":5}","[0]","../img/tt/1251tt.jpg","",""
"null","<div style=""font-size:60px;""> </div>","null","fixation","html-keyboard-response","181","663981","0.0-6.0-0.25","2733237","co39382","norming","","","","","","",""
"null","../img/tt/1091tt.jpg","null","mooney1","image-keyboard-response","182","666985","0.0-6.0-1.25","2733237","co39382","norming","","","","","","",""
"4185.974999998463","","","post_mooney1_questions","survey-likert","183","671172","0.0-6.0-2.25","2733237","co39382","norming","","","{""curiosity"":1,""confidence"":6}","[0,1]","../img/tt/1091tt.jpg","",""
"2830.045000000624","","","recognition","survey-text","184","674003","0.0-6.0-3.25","2733237","co39382","norming","","","{""guess"":""horse""}","","../img/tt/1091tt.jpg","",""
"null","../img/gs/1091gs.jpg","null","reveal","image-keyboard-response","185","676006","0.0-6.0-4.25","2733237","co39382","norming","","","","","","",""
"null","../img/tt/1091tt.jpg","null","mooney2","image-keyboard-response","186","678009","0.0-6.0-5.25","2733237","co39382","norming","","","","","","",""
"1695.8850000009406","","","post_reveal_questions","survey-likert","187","679707","0.0-6.0-6.25","2733237","co39382","norming","","","{""aha"":5}","[0]","../img/tt/1091tt.jpg","",""
"null","<div style=""font-size:60px;""> </div>","null","fixation","html-keyboard-response","188","679910","0.0-6.0-0.26","2733237","co39382","norming","","","","","","",""
"null","../img/tt/124tt.jpg","null","mooney1","image-keyboard-response","189","682914","0.0-6.0-1.26","2733237","co39382","norming","","","","","","",""
"3249.0450000005076","","","post_mooney1_questions","survey-likert","190","686164","0.0-6.0-2.26","2733237","co39382","norming","","","{""curiosity"":1,""confidence"":6}","[0,1]","../img/tt/124tt.jpg","",""
"2894.2600000009406","","","recognition","survey-text","191","689059","0.0-6.0-3.26","2733237","co39382","norming","","","{""guess"":""panda""}","","../img/tt/124tt.jpg","",""
"null","../img/gs/124gs.jpg","null","reveal","image-keyboard-response","192","691061","0.0-6.0-4.26","2733237","co39382","norming","","","","","","",""
"null","../img/tt/124tt.jpg","null","mooney2","image-keyboard-response","193","693062","0.0-6.0-5.26","2733237","co39382","norming","","","","","","",""
"2532.8000000008615","","","post_reveal_questions","survey-likert","194","695595","0.0-6.0-6.26","2733237","co39382","norming","","","{""aha"":5}","[0]","../img/tt/124tt.jpg","",""
"null","<div style=""font-size:60px;""> </div>","null","fixation","html-keyboard-response","195","695797","0.0-6.0-0.27","2733237","co39382","norming","","","","","","",""
"null","../img/tt/1307tt.jpg","null","mooney1","image-keyboard-response","196","698799","0.0-6.0-1.27","2733237","co39382","norming","","","","","","",""
"4217.109999999637","","","post_mooney1_questions","survey-likert","197","703020","0.0-6.0-2.27","2733237","co39382","norming","","","{""curiosity"":5,""confidence"":1}","[0,1]","../img/tt/1307tt.jpg","",""
"4438.179999999236","","","recognition","survey-text","198","707459","0.0-6.0-3.27","2733237","co39382","norming","","","{""guess"":""statue of liberty""}","","../img/tt/1307tt.jpg","",""
"null","../img/gs/1307gs.jpg","null","reveal","image-keyboard-response","199","709461","0.0-6.0-4.27","2733237","co39382","norming","","","","","","",""
"null","../img/tt/1307tt.jpg","null","mooney2","image-keyboard-response","200","711464","0.0-6.0-5.27","2733237","co39382","norming","","","","","","",""
"3657.4949999994133","","","post_reveal_questions","survey-likert","201","715124","0.0-6.0-6.27","2733237","co39382","norming","","","{""aha"":6}","[0]","../img/tt/1307tt.jpg","",""
"null","<div style=""font-size:60px;""> </div>","null","fixation","html-keyboard-response","202","715325","0.0-6.0-0.28","2733237","co39382","norming","","","","","","",""
"null","../img/tt/1070tt.jpg","null","mooney1","image-keyboard-response","203","718327","0.0-6.0-1.28","2733237","co39382","norming","","","","","","",""
"4377.345000000903","","","post_mooney1_questions","survey-likert","204","722709","0.0-6.0-2.28","2733237","co39382","norming","","","{""curiosity"":2,""confidence"":5}","[0,1]","../img/tt/1070tt.jpg","",""
"2221.835000000312","","","recognition","survey-text","205","724932","0.0-6.0-3.28","2733237","co39382","norming","","","{""guess"":""pie""}","","../img/tt/1070tt.jpg","",""
"null","../img/gs/1070gs.jpg","null","reveal","image-keyboard-response","206","726933","0.0-6.0-4.28","2733237","co39382","norming","","","","","","",""
"null","../img/tt/1070tt.jpg","null","mooney2","image-keyboard-response","207","728934","0.0-6.0-5.28","2733237","co39382","norming","","","","","","",""
"3821.234999999404","","","post_reveal_questions","survey-likert","208","732756","0.0-6.0-6.28","2733237","co39382","norming","","","{""aha"":1}","[0]","../img/tt/1070tt.jpg","",""
"null","<div style=""font-size:60px;""> </div>","null","fixation","html-keyboard-response","209","732959","0.0-6.0-0.29","2733237","co39382","norming","","","","","","",""
"null","../img/tt/1366tt.jpg","null","mooney1","image-keyboard-response","210","735961","0.0-6.0-1.29","2733237","co39382","norming","","","","","","",""
"4968.074999998906","","","post_mooney1_questions","survey-likert","211","740932","0.0-6.0-2.29","2733237","co39382","norming","","","{""curiosity"":3,""confidence"":4}","[0,1]","../img/tt/1366tt.jpg","",""
"2790.274999999441","","","recognition","survey-text","212","743724","0.0-6.0-3.29","2733237","co39382","norming","","","{""guess"":""taco""}","","../img/tt/1366tt.jpg","",""
"null","../img/gs/1366gs.jpg","null","reveal","image-keyboard-response","213","745727","0.0-6.0-4.29","2733237","co39382","norming","","","","","","",""
"null","../img/tt/1366tt.jpg","null","mooney2","image-keyboard-response","214","747730","0.0-6.0-5.29","2733237","co39382","norming","","","","","","",""
"3927.6850000005215","","","post_reveal_questions","survey-likert","215","751660","0.0-6.0-6.29","2733237","co39382","norming","","","{""aha"":1}","[0]","../img/tt/1366tt.jpg","",""
"null","<div style=""font-size:60px;""> </div>","null","fixation","html-keyboard-response","216","751862","0.0-6.0-0.30","2733237","co39382","norming","","","","","","",""
"null","../img/tt/1148tt.jpg","null","mooney1","image-keyboard-response","217","754865","0.0-6.0-1.30","2733237","co39382","norming","","","","","","",""
"4112.590000000666","","","post_mooney1_questions","survey-likert","218","758981","0.0-6.0-2.30","2733237","co39382","norming","","","{""curiosity"":5,""confidence"":2}","[0,1]","../img/tt/1148tt.jpg","",""
"3782.0499999998137","","","recognition","survey-text","219","762764","0.0-6.0-3.30","2733237","co39382","norming","","","{""guess"":""falling woman""}","","../img/tt/1148tt.jpg","",""
"null","../img/gs/1148gs.jpg","null","reveal","image-keyboard-response","220","764765","0.0-6.0-4.30","2733237","co39382","norming","","","","","","",""
"null","../img/tt/1148tt.jpg","null","mooney2","image-keyboard-response","221","766767","0.0-6.0-5.30","2733237","co39382","norming","","","","","","",""
"3562.7800000001444","","","post_reveal_questions","survey-likert","222","770332","0.0-6.0-6.30","2733237","co39382","norming","","","{""aha"":5}","[0]","../img/tt/1148tt.jpg","",""
"null","<div style=""font-size:60px;""> </div>","null","fixation","html-keyboard-response","223","770533","0.0-6.0-0.31","2733237","co39382","norming","","","","","","",""
"null","../img/tt/194tt.jpg","null","mooney1","image-keyboard-response","224","773537","0.0-6.0-1.31","2733237","co39382","norming","","","","","","",""
"6168.85999999987","","","post_mooney1_questions","survey-likert","225","779708","0.0-6.0-2.31","2733237","co39382","norming","","","{""curiosity"":5,""confidence"":2}","[0,1]","../img/tt/194tt.jpg","",""
"2494.0999999998603","","","recognition","survey-text","226","782204","0.0-6.0-3.31","2733237","co39382","norming","","","{""guess"":""music player""}","","../img/tt/194tt.jpg","",""
"null","../img/gs/194gs.jpg","null","reveal","image-keyboard-response","227","784206","0.0-6.0-4.31","2733237","co39382","norming","","","","","","",""
"null","../img/tt/194tt.jpg","null","mooney2","image-keyboard-response","228","786208","0.0-6.0-5.31","2733237","co39382","norming","","","","","","",""
"2448.9900000008056","","","post_reveal_questions","survey-likert","229","788660","0.0-6.0-6.31","2733237","co39382","norming","","","{""aha"":3}","[0]","../img/tt/194tt.jpg","",""
"null","<div style=""font-size:60px;""> </div>","null","fixation","html-keyboard-response","230","788862","0.0-6.0-0.32","2733237","co39382","norming","","","","","","",""
"null","../img/tt/031tt.jpg","null","mooney1","image-keyboard-response","231","791865","0.0-6.0-1.32","2733237","co39382","norming","","","","","","",""
"6383.9900000002235","","","post_mooney1_questions","survey-likert","232","798252","0.0-6.0-2.32","2733237","co39382","norming","","","{""curiosity"":5,""confidence"":4}","[0,1]","../img/tt/031tt.jpg","",""
"1702.2000000014668","","","recognition","survey-text","233","799956","0.0-6.0-3.32","2733237","co39382","norming","","","{""guess"":""cat""}","","../img/tt/031tt.jpg","",""
"null","../img/gs/031gs.jpg","null","reveal","image-keyboard-response","234","801959","0.0-6.0-4.32","2733237","co39382","norming","","","","","","",""
"null","../img/tt/031tt.jpg","null","mooney2","image-keyboard-response","235","803961","0.0-6.0-5.32","2733237","co39382","norming","","","","","","",""
"1904.5800000004238","","","post_reveal_questions","survey-likert","236","805868","0.0-6.0-6.32","2733237","co39382","norming","","","{""aha"":5}","[0]","../img/tt/031tt.jpg","",""
"null","<div style=""font-size:60px;""> </div>","null","fixation","html-keyboard-response","237","806069","0.0-6.0-0.33","2733237","co39382","norming","","","","","","",""
"null","../img/tt/1043tt.jpg","null","mooney1","image-keyboard-response","238","809072","0.0-6.0-1.33","2733237","co39382","norming","","","","","","",""
"3465.2299999997485","","","post_mooney1_questions","survey-likert","239","812540","0.0-6.0-2.33","2733237","co39382","norming","","","{""curiosity"":4,""confidence"":2}","[0,1]","../img/tt/1043tt.jpg","",""
"2630.100000000326","","","recognition","survey-text","240","815172","0.0-6.0-3.33","2733237","co39382","norming","","","{""guess"":""rowboat""}","","../img/tt/1043tt.jpg","",""
"null","../img/gs/1043gs.jpg","null","reveal","image-keyboard-response","241","817174","0.0-6.0-4.33","2733237","co39382","norming","","","","","","",""
"null","../img/tt/1043tt.jpg","null","mooney2","image-keyboard-response","242","819176","0.0-6.0-5.33","2733237","co39382","norming","","","","","","",""
"2561.2550000004703","","","post_reveal_questions","survey-likert","243","821740","0.0-6.0-6.33","2733237","co39382","norming","","","{""aha"":6}","[0]","../img/tt/1043tt.jpg","",""
"null","<div style=""font-size:60px;""> </div>","null","fixation","html-keyboard-response","244","821941","0.0-6.0-0.34","2733237","co39382","norming","","","","","","",""
"null","../img/tt/301tt.jpg","null","mooney1","image-keyboard-response","245","824942","0.0-6.0-1.34","2733237","co39382","norming","","","","","","",""
"3628.680000001681","","","post_mooney1_questions","survey-likert","246","828572","0.0-6.0-2.34","2733237","co39382","norming","","","{""curiosity"":4,""confidence"":1}","[0,1]","../img/tt/301tt.jpg","",""
"2357.9099999988684","","","recognition","survey-text","247","830932","0.0-6.0-3.34","2733237","co39382","norming","","","{""guess"":""theater""}","","../img/tt/301tt.jpg","",""
"null","../img/gs/301gs.jpg","null","reveal","image-keyboard-response","248","832933","0.0-6.0-4.34","2733237","co39382","norming","","","","","","",""
"null","../img/tt/301tt.jpg","null","mooney2","image-keyboard-response","249","834933","0.0-6.0-5.34","2733237","co39382","norming","","","","","","",""
"2493.8650000004563","","","post_reveal_questions","survey-likert","250","837428","0.0-6.0-6.34","2733237","co39382","norming","","","{""aha"":5}","[0]","../img/tt/301tt.jpg","",""
"null","<div style=""font-size:60px;""> </div>","null","fixation","html-keyboard-response","251","837629","0.0-6.0-0.35","2733237","co39382","norming","","","","","","",""
"null","../img/tt/189tt.jpg","null","mooney1","image-keyboard-response","252","840633","0.0-6.0-1.35","2733237","co39382","norming","","","","","","",""
"6935.909999998286","","","post_mooney1_questions","survey-likert","253","847573","0.0-6.0-2.35","2733237","co39382","norming","","","{""curiosity"":5,""confidence"":1}","[0,1]","../img/tt/189tt.jpg","",""
"4117.995000000577","","","recognition","survey-text","254","851692","0.0-6.0-3.35","2733237","co39382","norming","","","{""guess"":""horse with wings""}","","../img/tt/189tt.jpg","",""
"null","../img/gs/189gs.jpg","null","reveal","image-keyboard-response","255","853693","0.0-6.0-4.35","2733237","co39382","norming","","","","","","",""
"null","../img/tt/189tt.jpg","null","mooney2","image-keyboard-response","256","855695","0.0-6.0-5.35","2733237","co39382","norming","","","","","","",""
"3146.6299999991897","","","post_reveal_questions","survey-likert","257","858844","0.0-6.0-6.35","2733237","co39382","norming","","","{""aha"":5}","[0]","../img/tt/189tt.jpg","",""
"null","<div style=""font-size:60px;""> </div>","null","fixation","html-keyboard-response","258","859045","0.0-6.0-0.36","2733237","co39382","norming","","","","","","",""
"null","../img/tt/1037tt.jpg","null","mooney1","image-keyboard-response","259","862047","0.0-6.0-1.36","2733237","co39382","norming","","","","","","",""
"3866.7750000003725","","","post_mooney1_questions","survey-likert","260","865917","0.0-6.0-2.36","2733237","co39382","norming","","","{""curiosity"":5,""confidence"":0}","[0,1]","../img/tt/1037tt.jpg","",""
"774.0700000012293","","","recognition","survey-text","261","866692","0.0-6.0-3.36","2733237","co39382","norming","","","{""guess"":""""}","","../img/tt/1037tt.jpg","",""
"null","../img/gs/1037gs.jpg","null","reveal","image-keyboard-response","262","868695","0.0-6.0-4.36","2733237","co39382","norming","","","","","","",""
"null","../img/tt/1037tt.jpg","null","mooney2","image-keyboard-response","263","870698","0.0-6.0-5.36","2733237","co39382","norming","","","","","","",""
"3223.6950000006473","","","post_reveal_questions","survey-likert","264","873924","0.0-6.0-6.36","2733237","co39382","norming","","","{""aha"":4}","[0]","../img/tt/1037tt.jpg","",""
"null","<div style=""font-size:60px;""> </div>","null","fixation","html-keyboard-response","265","874126","0.0-6.0-0.37","2733237","co39382","norming","","","","","","",""
"null","../img/tt/036tt.jpg","null","mooney1","image-keyboard-response","266","877130","0.0-6.0-1.37","2733237","co39382","norming","","","","","","",""
"6079.429999999818","","","post_mooney1_questions","survey-likert","267","883212","0.0-6.0-2.37","2733237","co39382","norming","","","{""curiosity"":6,""confidence"":1}","[0,1]","../img/tt/036tt.jpg","",""
"3254.2549999998882","","","recognition","survey-text","268","886468","0.0-6.0-3.37","2733237","co39382","norming","","","{""guess"":""fireworks""}","","../img/tt/036tt.jpg","",""
"null","../img/gs/036gs.jpg","null","reveal","image-keyboard-response","269","888471","0.0-6.0-4.37","2733237","co39382","norming","","","","","","",""
"null","../img/tt/036tt.jpg","null","mooney2","image-keyboard-response","270","890472","0.0-6.0-5.37","2733237","co39382","norming","","","","","","",""
"2169.960000001127","","","post_reveal_questions","survey-likert","271","892644","0.0-6.0-6.37","2733237","co39382","norming","","","{""aha"":5}","[0]","../img/tt/036tt.jpg","",""
"null","<div style=""font-size:60px;""> </div>","null","fixation","html-keyboard-response","272","892846","0.0-6.0-0.38","2733237","co39382","norming","","","","","","",""
"null","../img/tt/1226tt.jpg","null","mooney1","image-keyboard-response","273","895848","0.0-6.0-1.38","2733237","co39382","norming","","","","","","",""
"4985.420000000857","","","post_mooney1_questions","survey-likert","274","900837","0.0-6.0-2.38","2733237","co39382","norming","","","{""curiosity"":2,""confidence"":1}","[0,1]","../img/tt/1226tt.jpg","",""
"2213.8549999999814","","","recognition","survey-text","275","903052","0.0-6.0-3.38","2733237","co39382","norming","","","{""guess"":""ducks""}","","../img/tt/1226tt.jpg","",""
"null","../img/gs/1226gs.jpg","null","reveal","image-keyboard-response","276","905054","0.0-6.0-4.38","2733237","co39382","norming","","","","","","",""
"null","../img/tt/1226tt.jpg","null","mooney2","image-keyboard-response","277","907057","0.0-6.0-5.38","2733237","co39382","norming","","","","","","",""
"1435.059999999823","","","post_reveal_questions","survey-likert","278","908493","0.0-6.0-6.38","2733237","co39382","norming","","","{""aha"":4}","[0]","../img/tt/1226tt.jpg","",""
"null","<div style=""font-size:60px;""> </div>","null","fixation","html-keyboard-response","279","908694","0.0-6.0-0.39","2733237","co39382","norming","","","","","","",""
"null","../img/tt/273tt.jpg","null","mooney1","image-keyboard-response","280","911697","0.0-6.0-1.39","2733237","co39382","norming","","","","","","",""
"7201.23000000068","","","post_mooney1_questions","survey-likert","281","918901","0.0-6.0-2.39","2733237","co39382","norming","","","{""curiosity"":2,""confidence"":1}","[0,1]","../img/tt/273tt.jpg","",""
"5725.689999999246","","","recognition","survey-text","282","924629","0.0-6.0-3.39","2733237","co39382","norming","","","{""guess"":""someone eating""}","","../img/tt/273tt.jpg","",""
"null","../img/gs/273gs.jpg","null","reveal","image-keyboard-response","283","926635","0.0-6.0-4.39","2733237","co39382","norming","","","","","","",""
"null","../img/tt/273tt.jpg","null","mooney2","image-keyboard-response","284","928642","0.0-6.0-5.39","2733237","co39382","norming","","","","","","",""
"2785.535000000964","","","post_reveal_questions","survey-likert","285","931429","0.0-6.0-6.39","2733237","co39382","norming","","","{""aha"":2}","[0]","../img/tt/273tt.jpg","",""
"null","<div style=""font-size:60px;""> </div>","null","fixation","html-keyboard-response","286","931632","0.0-6.0-0.40","2733237","co39382","norming","","","","","","",""
"null","../img/tt/1040tt.jpg","null","mooney1","image-keyboard-response","287","934633","0.0-6.0-1.40","2733237","co39382","norming","","","","","","",""
"4931.819999999716","","","post_mooney1_questions","survey-likert","288","939565","0.0-6.0-2.40","2733237","co39382","norming","","","{""curiosity"":6,""confidence"":1}","[0,1]","../img/tt/1040tt.jpg","",""
"6229.980000000098","","","recognition","survey-text","289","945797","0.0-6.0-3.40","2733237","co39382","norming","","","{""guess"":""Freddie Mercury""}","","../img/tt/1040tt.jpg","",""
"null","../img/gs/1040gs.jpg","null","reveal","image-keyboard-response","290","947799","0.0-6.0-4.40","2733237","co39382","norming","","","","","","",""
"null","../img/tt/1040tt.jpg","null","mooney2","image-keyboard-response","291","949802","0.0-6.0-5.40","2733237","co39382","norming","","","","","","",""
"3368.664999999921","","","post_reveal_questions","survey-likert","292","953173","0.0-6.0-6.40","2733237","co39382","norming","","","{""aha"":5}","[0]","../img/tt/1040tt.jpg","",""
"null","<div style=""font-size:60px;""> </div>","null","fixation","html-keyboard-response","293","953375","0.0-6.0-0.41","2733237","co39382","norming","","","","","","",""
"null","../img/tt/1156tt.jpg","null","mooney1","image-keyboard-response","294","956378","0.0-6.0-1.41","2733237","co39382","norming","","","","","","",""
"4320.174999998882","","","post_mooney1_questions","survey-likert","295","960702","0.0-6.0-2.41","2733237","co39382","norming","","","{""curiosity"":2,""confidence"":6}","[0,1]","../img/tt/1156tt.jpg","",""
"3021.865000000689","","","recognition","survey-text","296","963725","0.0-6.0-3.41","2733237","co39382","norming","","","{""guess"":""sunbathing""}","","../img/tt/1156tt.jpg","",""
"null","../img/gs/1156gs.jpg","null","reveal","image-keyboard-response","297","965727","0.0-6.0-4.41","2733237","co39382","norming","","","","","","",""
"null","../img/tt/1156tt.jpg","null","mooney2","image-keyboard-response","298","967730","0.0-6.0-5.41","2733237","co39382","norming","","","","","","",""
"1640.4149999998044","","","post_reveal_questions","survey-likert","299","969373","0.0-6.0-6.41","2733237","co39382","norming","","","{""aha"":0}","[0]","../img/tt/1156tt.jpg","",""
"null","<div style=""font-size:60px;""> </div>","null","fixation","html-keyboard-response","300","969576","0.0-6.0-0.42","2733237","co39382","norming","","","","","","",""
"null","../img/tt/307tt.jpg","null","mooney1","image-keyboard-response","301","972579","0.0-6.0-1.42","2733237","co39382","norming","","","","","","",""
"5656.350000001141","","","post_mooney1_questions","survey-likert","302","978237","0.0-6.0-2.42","2733237","co39382","norming","","","{""curiosity"":6,""confidence"":0}","[0,1]","../img/tt/307tt.jpg","",""
"3934.1149999999907","","","recognition","survey-text","303","982173","0.0-6.0-3.42","2733237","co39382","norming","","","{""guess"":""long hair""}","","../img/tt/307tt.jpg","",""
"null","../img/gs/307gs.jpg","null","reveal","image-keyboard-response","304","984174","0.0-6.0-4.42","2733237","co39382","norming","","","","","","",""
"null","../img/tt/307tt.jpg","null","mooney2","image-keyboard-response","305","986176","0.0-6.0-5.42","2733237","co39382","norming","","","","","","",""
"3256.04000000027","","","post_reveal_questions","survey-likert","306","989437","0.0-6.0-6.42","2733237","co39382","norming","","","{""aha"":4}","[0]","../img/tt/307tt.jpg","",""
"null","<div style=""font-size:60px;""> </div>","null","fixation","html-keyboard-response","307","989638","0.0-6.0-0.43","2733237","co39382","norming","","","","","","",""
"null","../img/tt/140tt.jpg","null","mooney1","image-keyboard-response","308","992642","0.0-6.0-1.43","2733237","co39382","norming","","","","","","",""
"8720.100000000442","","","post_mooney1_questions","survey-likert","309","1001365","0.0-6.0-2.43","2733237","co39382","norming","","","{""curiosity"":6,""confidence"":2}","[0,1]","../img/tt/140tt.jpg","",""
"4510.000000000233","","","recognition","survey-text","310","1005877","0.0-6.0-3.43","2733237","co39382","norming","","","{""guess"":""singing peacock""}","","../img/tt/140tt.jpg","",""
"null","../img/gs/140gs.jpg","null","reveal","image-keyboard-response","311","1007879","0.0-6.0-4.43","2733237","co39382","norming","","","","","","",""
"null","../img/tt/140tt.jpg","null","mooney2","image-keyboard-response","312","1009880","0.0-6.0-5.43","2733237","co39382","norming","","","","","","",""
"3281.9550000004238","","","post_reveal_questions","survey-likert","313","1013165","0.0-6.0-6.43","2733237","co39382","norming","","","{""aha"":1}","[0]","../img/tt/140tt.jpg","",""
"null","<div style=""font-size:60px;""> </div>","null","fixation","html-keyboard-response","314","1013368","0.0-6.0-0.44","2733237","co39382","norming","","","","","","",""
"null","../img/tt/032tt.jpg","null","mooney1","image-keyboard-response","315","1016371","0.0-6.0-1.44","2733237","co39382","norming","","","","","","",""
"4239.1849999985425","","","post_mooney1_questions","survey-likert","316","1020614","0.0-6.0-2.44","2733237","co39382","norming","","","{""curiosity"":6,""confidence"":2}","[0,1]","../img/tt/032tt.jpg","",""
"4069.885000000824","","","recognition","survey-text","317","1024685","0.0-6.0-3.44","2733237","co39382","norming","","","{""guess"":""bear with a hat""}","","../img/tt/032tt.jpg","",""
"null","../img/gs/032gs.jpg","null","reveal","image-keyboard-response","318","1026688","0.0-6.0-4.44","2733237","co39382","norming","","","","","","",""
"null","../img/tt/032tt.jpg","null","mooney2","image-keyboard-response","319","1028691","0.0-6.0-5.44","2733237","co39382","norming","","","","","","",""
"2368.180000001332","","","post_reveal_questions","survey-likert","320","1031062","0.0-6.0-6.44","2733237","co39382","norming","","","{""aha"":1}","[0]","../img/tt/032tt.jpg","",""
"null","<div style=""font-size:60px;""> </div>","null","fixation","html-keyboard-response","321","1031263","0.0-6.0-0.45","2733237","co39382","norming","","","","","","",""
"null","../img/tt/121tt.jpg","null","mooney1","image-keyboard-response","322","1034266","0.0-6.0-1.45","2733237","co39382","norming","","","","","","",""
"10848.355000000098","","","post_mooney1_questions","survey-likert","323","1045118","0.0-6.0-2.45","2733237","co39382","norming","","","{""curiosity"":4,""confidence"":5}","[0,1]","../img/tt/121tt.jpg","",""
"3277.8999999989755","","","recognition","survey-text","324","1048397","0.0-6.0-3.45","2733237","co39382","norming","","","{""guess"":""kangaroo""}","","../img/tt/121tt.jpg","",""
"null","../img/gs/121gs.jpg","null","reveal","image-keyboard-response","325","1050399","0.0-6.0-4.45","2733237","co39382","norming","","","","","","",""
"null","../img/tt/121tt.jpg","null","mooney2","image-keyboard-response","326","1052401","0.0-6.0-5.45","2733237","co39382","norming","","","","","","",""
"2209.7749999992084","","","post_reveal_questions","survey-likert","327","1054614","0.0-6.0-6.45","2733237","co39382","norming","","","{""aha"":6}","[0]","../img/tt/121tt.jpg","",""
"null","<div style=""font-size:60px;""> </div>","null","fixation","html-keyboard-response","328","1054815","0.0-6.0-0.46","2733237","co39382","norming","","","","","","",""
"null","../img/tt/1123tt.jpg","null","mooney1","image-keyboard-response","329","1057818","0.0-6.0-1.46","2733237","co39382","norming","","","","","","",""
"8280.585000000428","","","post_mooney1_questions","survey-likert","330","1066102","0.0-6.0-2.46","2733237","co39382","norming","","","{""curiosity"":2,""confidence"":2}","[0,1]","../img/tt/1123tt.jpg","",""
"7494.08000000054","","","recognition","survey-text","331","1073597","0.0-6.0-3.46","2733237","co39382","norming","","","{""guess"":""beer at sunset""}","","../img/tt/1123tt.jpg","",""
"null","../img/gs/1123gs.jpg","null","reveal","image-keyboard-response","332","1075600","0.0-6.0-4.46","2733237","co39382","norming","","","","","","",""
"null","../img/tt/1123tt.jpg","null","mooney2","image-keyboard-response","333","1077602","0.0-6.0-5.46","2733237","co39382","norming","","","","","","",""
"2858.200000000419","","","post_reveal_questions","survey-likert","334","1080462","0.0-6.0-6.46","2733237","co39382","norming","","","{""aha"":1}","[0]","../img/tt/1123tt.jpg","",""
"null","<div style=""font-size:60px;""> </div>","null","fixation","html-keyboard-response","335","1080663","0.0-6.0-0.47","2733237","co39382","norming","","","","","","",""
"null","../img/tt/163tt.jpg","null","mooney1","image-keyboard-response","336","1083667","0.0-6.0-1.47","2733237","co39382","norming","","","","","","",""
"4567.735000000568","","","post_mooney1_questions","survey-likert","337","1088238","0.0-6.0-2.47","2733237","co39382","norming","","","{""curiosity"":1,""confidence"":1}","[0,1]","../img/tt/163tt.jpg","",""
"2229.3950000002515","","","recognition","survey-text","338","1090469","0.0-6.0-3.47","2733237","co39382","norming","","","{""guess"":""flower""}","","../img/tt/163tt.jpg","",""
"null","../img/gs/163gs.jpg","null","reveal","image-keyboard-response","339","1092470","0.0-6.0-4.47","2733237","co39382","norming","","","","","","",""
"null","../img/tt/163tt.jpg","null","mooney2","image-keyboard-response","340","1094473","0.0-6.0-5.47","2733237","co39382","norming","","","","","","",""
"1961.4099999999162","","","post_reveal_questions","survey-likert","341","1096437","0.0-6.0-6.47","2733237","co39382","norming","","","{""aha"":1}","[0]","../img/tt/163tt.jpg","",""
"null","<div style=""font-size:60px;""> </div>","null","fixation","html-keyboard-response","342","1096639","0.0-6.0-0.48","2733237","co39382","norming","","","","","","",""
"null","../img/tt/1270tt.jpg","null","mooney1","image-keyboard-response","343","1099642","0.0-6.0-1.48","2733237","co39382","norming","","","","","","",""
"4008.754999998957","","","post_mooney1_questions","survey-likert","344","1103653","0.0-6.0-2.48","2733237","co39382","norming","","","{""curiosity"":1,""confidence"":1}","[0,1]","../img/tt/1270tt.jpg","",""
"2222.0550000001676","","","recognition","survey-text","345","1105877","0.0-6.0-3.48","2733237","co39382","norming","","","{""guess"":""fish""}","","../img/tt/1270tt.jpg","",""
"null","../img/gs/1270gs.jpg","null","reveal","image-keyboard-response","346","1107879","0.0-6.0-4.48","2733237","co39382","norming","","","","","","",""
"null","../img/tt/1270tt.jpg","null","mooney2","image-keyboard-response","347","1109881","0.0-6.0-5.48","2733237","co39382","norming","","","","","","",""
"1993.620000001043","","","post_reveal_questions","survey-likert","348","1111877","0.0-6.0-6.48","2733237","co39382","norming","","","{""aha"":2}","[0]","../img/tt/1270tt.jpg","",""
"null","<div style=""font-size:60px;""> </div>","null","fixation","html-keyboard-response","349","1112079","0.0-6.0-0.49","2733237","co39382","norming","","","","","","",""
"null","../img/tt/1268tt.jpg","null","mooney1","image-keyboard-response","350","1115083","0.0-6.0-1.49","2733237","co39382","norming","","","","","","",""
"5055.584999999963","","","post_mooney1_questions","survey-likert","351","1120141","0.0-6.0-2.49","2733237","co39382","norming","","","{""curiosity"":1,""confidence"":1}","[0,1]","../img/tt/1268tt.jpg","",""
"2957.9499999999534","","","recognition","survey-text","352","1123101","0.0-6.0-3.49","2733237","co39382","norming","","","{""guess"":""wombat""}","","../img/tt/1268tt.jpg","",""
"null","../img/gs/1268gs.jpg","null","reveal","image-keyboard-response","353","1125104","0.0-6.0-4.49","2733237","co39382","norming","","","","","","",""
"null","../img/tt/1268tt.jpg","null","mooney2","image-keyboard-response","354","1127105","0.0-6.0-5.49","2733237","co39382","norming","","","","","","",""
"3241.4100000006147","","","post_reveal_questions","survey-likert","355","1130349","0.0-6.0-6.49","2733237","co39382","norming","","","{""aha"":2}","[0]","../img/tt/1268tt.jpg","",""
"null","<div style=""font-size:60px;""> </div>","null","fixation","html-keyboard-response","356","1130550","0.0-6.0-0.50","2733237","co39382","norming","","","","","","",""
"null","../img/tt/1189tt.jpg","null","mooney1","image-keyboard-response","357","1133554","0.0-6.0-1.50","2733237","co39382","norming","","","","","","",""
"4466.360000000568","","","post_mooney1_questions","survey-likert","358","1138021","0.0-6.0-2.50","2733237","co39382","norming","","","{""curiosity"":2,""confidence"":1}","[0,1]","../img/tt/1189tt.jpg","",""
"2597.469999998808","","","recognition","survey-text","359","1140621","0.0-6.0-3.50","2733237","co39382","norming","","","{""guess"":""clouds""}","","../img/tt/1189tt.jpg","",""
"null","../img/gs/1189gs.jpg","null","reveal","image-keyboard-response","360","1142623","0.0-6.0-4.50","2733237","co39382","norming","","","","","","",""
"null","../img/tt/1189tt.jpg","null","mooney2","image-keyboard-response","361","1144625","0.0-6.0-5.50","2733237","co39382","norming","","","","","","",""
"2761.795000000391","","","post_reveal_questions","survey-likert","362","1147389","0.0-6.0-6.50","2733237","co39382","norming","","","{""aha"":2}","[0]","../img/tt/1189tt.jpg","",""
"null","<div style=""font-size:60px;""> </div>","null","fixation","html-keyboard-response","363","1147590","0.0-6.0-0.51","2733237","co39382","norming","","","","","","",""
"null","../img/tt/044tt.jpg","null","mooney1","image-keyboard-response","364","1150594","0.0-6.0-1.51","2733237","co39382","norming","","","","","","",""
"8881.255000000354","","","post_mooney1_questions","survey-likert","365","1159478","0.0-6.0-2.51","2733237","co39382","norming","","","{""curiosity"":4,""confidence"":1}","[0,1]","../img/tt/044tt.jpg","",""
"2469.9599999985658","","","recognition","survey-text","366","1161950","0.0-6.0-3.51","2733237","co39382","norming","","","{""guess"":""couch""}","","../img/tt/044tt.jpg","",""
"null","../img/gs/044gs.jpg","null","reveal","image-keyboard-response","367","1163952","0.0-6.0-4.51","2733237","co39382","norming","","","","","","",""
"null","../img/tt/044tt.jpg","null","mooney2","image-keyboard-response","368","1165955","0.0-6.0-5.51","2733237","co39382","norming","","","","","","",""
"2552.754999998724","","","post_reveal_questions","survey-likert","369","1168510","0.0-6.0-6.51","2733237","co39382","norming","","","{""aha"":1}","[0]","../img/tt/044tt.jpg","",""
"null","<div style=""font-size:60px;""> </div>","null","fixation","html-keyboard-response","370","1168711","0.0-6.0-0.52","2733237","co39382","norming","","","","","","",""
"null","../img/tt/1236tt.jpg","null","mooney1","image-keyboard-response","371","1171714","0.0-6.0-1.52","2733237","co39382","norming","","","","","","",""
"7880.735000000568","","","post_mooney1_questions","survey-likert","372","1179598","0.0-6.0-2.52","2733237","co39382","norming","","","{""curiosity"":5,""confidence"":0}","[0,1]","../img/tt/1236tt.jpg","",""
"757.9549999991432","","","recognition","survey-text","373","1180358","0.0-6.0-3.52","2733237","co39382","norming","","","{""guess"":""""}","","../img/tt/1236tt.jpg","",""
"null","../img/gs/1236gs.jpg","null","reveal","image-keyboard-response","374","1182359","0.0-6.0-4.52","2733237","co39382","norming","","","","","","",""
"null","../img/tt/1236tt.jpg","null","mooney2","image-keyboard-response","375","1184361","0.0-6.0-5.52","2733237","co39382","norming","","","","","","",""
"2505.769999999553","","","post_reveal_questions","survey-likert","376","1186870","0.0-6.0-6.52","2733237","co39382","norming","","","{""aha"":0}","[0]","../img/tt/1236tt.jpg","",""
"null","<div style=""font-size:60px;""> </div>","null","fixation","html-keyboard-response","377","1187071","0.0-6.0-0.53","2733237","co39382","norming","","","","","","",""
"null","../img/tt/1080tt.jpg","null","mooney1","image-keyboard-response","378","1190075","0.0-6.0-1.53","2733237","co39382","norming","","","","","","",""
"7313.855000000447","","","post_mooney1_questions","survey-likert","379","1197390","0.0-6.0-2.53","2733237","co39382","norming","","","{""curiosity"":1,""confidence"":1}","[0,1]","../img/tt/1080tt.jpg","",""
"5365.144999999786","","","recognition","survey-text","380","1202757","0.0-6.0-3.53","2733237","co39382","norming","","","{""guess"":""warehouse""}","","../img/tt/1080tt.jpg","",""
"null","../img/gs/1080gs.jpg","null","reveal","image-keyboard-response","381","1204759","0.0-6.0-4.53","2733237","co39382","norming","","","","","","",""
"null","../img/tt/1080tt.jpg","null","mooney2","image-keyboard-response","382","1206760","0.0-6.0-5.53","2733237","co39382","norming","","","","","","",""
"6828.159999999218","","","post_reveal_questions","survey-likert","383","1213590","0.0-6.0-6.53","2733237","co39382","norming","","","{""aha"":5}","[0]","../img/tt/1080tt.jpg","",""
"null","<div style=""font-size:60px;""> </div>","null","fixation","html-keyboard-response","384","1213793","0.0-6.0-0.54","2733237","co39382","norming","","","","","","",""
"null","../img/tt/440tt.jpg","null","mooney1","image-keyboard-response","385","1216796","0.0-6.0-1.54","2733237","co39382","norming","","","","","","",""
"4373.755000000587","","","post_mooney1_questions","survey-likert","386","1221174","0.0-6.0-2.54","2733237","co39382","norming","","","{""curiosity"":4,""confidence"":1}","[0,1]","../img/tt/440tt.jpg","",""
"2149.885000000708","","","recognition","survey-text","387","1223325","0.0-6.0-3.54","2733237","co39382","norming","","","{""guess"":""horse""}","","../img/tt/440tt.jpg","",""
"null","../img/gs/440gs.jpg","null","reveal","image-keyboard-response","388","1225328","0.0-6.0-4.54","2733237","co39382","norming","","","","","","",""
"null","../img/tt/440tt.jpg","null","mooney2","image-keyboard-response","389","1227330","0.0-6.0-5.54","2733237","co39382","norming","","","","","","",""
"2897.210000000894","","","post_reveal_questions","survey-likert","390","1230230","0.0-6.0-6.54","2733237","co39382","norming","","","{""aha"":1}","[0]","../img/tt/440tt.jpg","",""
"null","<div style=""font-size:60px;""> </div>","null","fixation","html-keyboard-response","391","1230431","0.0-6.0-0.55","2733237","co39382","norming","","","","","","",""
"null","../img/tt/1234tt.jpg","null","mooney1","image-keyboard-response","392","1233434","0.0-6.0-1.55","2733237","co39382","norming","","","","","","",""
"3296.9150000007357","","","post_mooney1_questions","survey-likert","393","1236734","0.0-6.0-2.55","2733237","co39382","norming","","","{""curiosity"":4,""confidence"":1}","[0,1]","../img/tt/1234tt.jpg","",""
"3278.220000000205","","","recognition","survey-text","394","1240014","0.0-6.0-3.55","2733237","co39382","norming","","","{""guess"":""surfer""}","","../img/tt/1234tt.jpg","",""
"null","../img/gs/1234gs.jpg","null","reveal","image-keyboard-response","395","1242015","0.0-6.0-4.55","2733237","co39382","norming","","","","","","",""
"null","../img/tt/1234tt.jpg","null","mooney2","image-keyboard-response","396","1244019","0.0-6.0-5.55","2733237","co39382","norming","","","","","","",""
"7704.240000000922","","","post_reveal_questions","survey-likert","397","1251726","0.0-6.0-6.55","2733237","co39382","norming","","","{""aha"":5}","[0]","../img/tt/1234tt.jpg","",""
"null","<div style=""font-size:60px;""> </div>","null","fixation","html-keyboard-response","398","1251927","0.0-6.0-0.56","2733237","co39382","norming","","","","","","",""
"null","../img/tt/603tt.jpg","null","mooney1","image-keyboard-response","399","1254931","0.0-6.0-1.56","2733237","co39382","norming","","","","","","",""
"4786.079999999842","","","post_mooney1_questions","survey-likert","400","1259718","0.0-6.0-2.56","2733237","co39382","norming","","","{""curiosity"":3,""confidence"":5}","[0,1]","../img/tt/603tt.jpg","",""
"2430.024999999441","","","recognition","survey-text","401","1262150","0.0-6.0-3.56","2733237","co39382","norming","","","{""guess"":""hawk""}","","../img/tt/603tt.jpg","",""
"null","../img/gs/603gs.jpg","null","reveal","image-keyboard-response","402","1264151","0.0-6.0-4.56","2733237","co39382","norming","","","","","","",""
"null","../img/tt/603tt.jpg","null","mooney2","image-keyboard-response","403","1266153","0.0-6.0-5.56","2733237","co39382","norming","","","","","","",""
"1891.780000000028","","","post_reveal_questions","survey-likert","404","1268046","0.0-6.0-6.56","2733237","co39382","norming","","","{""aha"":4}","[0]","../img/tt/603tt.jpg","",""
"null","<div style=""font-size:60px;""> </div>","null","fixation","html-keyboard-response","405","1268248","0.0-6.0-0.57","2733237","co39382","norming","","","","","","",""
"null","../img/tt/1066tt.jpg","null","mooney1","image-keyboard-response","406","1271250","0.0-6.0-1.57","2733237","co39382","norming","","","","","","",""
"3272.2099999992643","","","post_mooney1_questions","survey-likert","407","1274527","0.0-6.0-2.57","2733237","co39382","norming","","","{""curiosity"":2,""confidence"":6}","[0,1]","../img/tt/1066tt.jpg","",""
"2085.9600000004284","","","recognition","survey-text","408","1276615","0.0-6.0-3.57","2733237","co39382","norming","","","{""guess"":""bus""}","","../img/tt/1066tt.jpg","",""
"null","../img/gs/1066gs.jpg","null","reveal","image-keyboard-response","409","1278616","0.0-6.0-4.57","2733237","co39382","norming","","","","","","",""
"null","../img/tt/1066tt.jpg","null","mooney2","image-keyboard-response","410","1280618","0.0-6.0-5.57","2733237","co39382","norming","","","","","","",""
"2610.7549999996554","","","post_reveal_questions","survey-likert","411","1283231","0.0-6.0-6.57","2733237","co39382","norming","","","{""aha"":5}","[0]","../img/tt/1066tt.jpg","",""
"null","<div style=""font-size:60px;""> </div>","null","fixation","html-keyboard-response","412","1283432","0.0-6.0-0.58","2733237","co39382","norming","","","","","","",""
"null","../img/tt/123tt.jpg","null","mooney1","image-keyboard-response","413","1286435","0.0-6.0-1.58","2733237","co39382","norming","","","","","","",""
"6578.355000001611","","","post_mooney1_questions","survey-likert","414","1293015","0.0-6.0-2.58","2733237","co39382","norming","","","{""curiosity"":4,""confidence"":3}","[0,1]","../img/tt/123tt.jpg","",""
"1822.1750000012107","","","recognition","survey-text","415","1294839","0.0-6.0-3.58","2733237","co39382","norming","","","{""guess"":""sled""}","","../img/tt/123tt.jpg","",""
"null","../img/gs/123gs.jpg","null","reveal","image-keyboard-response","416","1296840","0.0-6.0-4.58","2733237","co39382","norming","","","","","","",""
"null","../img/tt/123tt.jpg","null","mooney2","image-keyboard-response","417","1298844","0.0-6.0-5.58","2733237","co39382","norming","","","","","","",""
"1200.5449999996927","","","post_reveal_questions","survey-likert","418","1300047","0.0-6.0-6.58","2733237","co39382","norming","","","{""aha"":6}","[0]","../img/tt/123tt.jpg","",""
"null","<div style=""font-size:60px;""> </div>","null","fixation","html-keyboard-response","419","1300249","0.0-6.0-0.59","2733237","co39382","norming","","","","","","",""
"null","../img/tt/1125tt.jpg","null","mooney1","image-keyboard-response","420","1303252","0.0-6.0-1.59","2733237","co39382","norming","","","","","","",""
"5600.179999999469","","","post_mooney1_questions","survey-likert","421","1308855","0.0-6.0-2.59","2733237","co39382","norming","","","{""curiosity"":3,""confidence"":2}","[0,1]","../img/tt/1125tt.jpg","",""
"4150.144999999553","","","recognition","survey-text","422","1313007","0.0-6.0-3.59","2733237","co39382","norming","","","{""guess"":""spearthrowing""}","","../img/tt/1125tt.jpg","",""
"null","../img/gs/1125gs.jpg","null","reveal","image-keyboard-response","423","1315009","0.0-6.0-4.59","2733237","co39382","norming","","","","","","",""
"null","../img/tt/1125tt.jpg","null","mooney2","image-keyboard-response","424","1317009","0.0-6.0-5.59","2733237","co39382","norming","","","","","","",""
"3004.4949999991804","","","post_reveal_questions","survey-likert","425","1320015","0.0-6.0-6.59","2733237","co39382","norming","","","{""aha"":4}","[0]","../img/tt/1125tt.jpg","",""
"null","<div style=""font-size:60px;""> </div>","null","fixation","html-keyboard-response","426","1320218","0.0-6.0-0.60","2733237","co39382","norming","","","","","","",""
"null","../img/tt/1217tt.jpg","null","mooney1","image-keyboard-response","427","1323220","0.0-6.0-1.60","2733237","co39382","norming","","","","","","",""
"3943.0900000005495","","","post_mooney1_questions","survey-likert","428","1327167","0.0-6.0-2.60","2733237","co39382","norming","","","{""curiosity"":2,""confidence"":2}","[0,1]","../img/tt/1217tt.jpg","",""
"3174.16500000027","","","recognition","survey-text","429","1330343","0.0-6.0-3.60","2733237","co39382","norming","","","{""guess"":""football players""}","","../img/tt/1217tt.jpg","",""
"null","../img/gs/1217gs.jpg","null","reveal","image-keyboard-response","430","1332344","0.0-6.0-4.60","2733237","co39382","norming","","","","","","",""
"null","../img/tt/1217tt.jpg","null","mooney2","image-keyboard-response","431","1334348","0.0-6.0-5.60","2733237","co39382","norming","","","","","","",""
"5122.009999999078","","","post_reveal_questions","survey-likert","432","1339472","0.0-6.0-6.60","2733237","co39382","norming","","","{""aha"":2}","[0]","../img/tt/1217tt.jpg","",""
"null","<div style=""font-size:60px;""> </div>","null","fixation","html-keyboard-response","433","1339674","0.0-6.0-0.61","2733237","co39382","norming","","","","","","",""
"null","../img/tt/184tt.jpg","null","mooney1","image-keyboard-response","434","1342676","0.0-6.0-1.61","2733237","co39382","norming","","","","","","",""
"4872.915000000037","","","post_mooney1_questions","survey-likert","435","1347553","0.0-6.0-2.61","2733237","co39382","norming","","","{""curiosity"":5,""confidence"":0}","[0,1]","../img/tt/184tt.jpg","",""
"653.8600000003353","","","recognition","survey-text","436","1348208","0.0-6.0-3.61","2733237","co39382","norming","","","{""guess"":""""}","","../img/tt/184tt.jpg","",""
"null","../img/gs/184gs.jpg","null","reveal","image-keyboard-response","437","1350211","0.0-6.0-4.61","2733237","co39382","norming","","","","","","",""
"null","../img/tt/184tt.jpg","null","mooney2","image-keyboard-response","438","1352213","0.0-6.0-5.61","2733237","co39382","norming","","","","","","",""
"2399.9500000011176","","","post_reveal_questions","survey-likert","439","1354616","0.0-6.0-6.61","2733237","co39382","norming","","","{""aha"":4}","[0]","../img/tt/184tt.jpg","",""
"null","<div style=""font-size:60px;""> </div>","null","fixation","html-keyboard-response","440","1354818","0.0-6.0-0.62","2733237","co39382","norming","","","","","","",""
"null","../img/tt/1191tt.jpg","null","mooney1","image-keyboard-response","441","1357823","0.0-6.0-1.62","2733237","co39382","norming","","","","","","",""
"3406.315000000177","","","post_mooney1_questions","survey-likert","442","1361232","0.0-6.0-2.62","2733237","co39382","norming","","","{""curiosity"":5,""confidence"":1}","[0,1]","../img/tt/1191tt.jpg","",""
"2485.8950000014156","","","recognition","survey-text","443","1363720","0.0-6.0-3.62","2733237","co39382","norming","","","{""guess"":""dancers""}","","../img/tt/1191tt.jpg","",""
"null","../img/gs/1191gs.jpg","null","reveal","image-keyboard-response","444","1365721","0.0-6.0-4.62","2733237","co39382","norming","","","","","","",""
"null","../img/tt/1191tt.jpg","null","mooney2","image-keyboard-response","445","1367722","0.0-6.0-5.62","2733237","co39382","norming","","","","","","",""
"2218.1899999994785","","","post_reveal_questions","survey-likert","446","1369944","0.0-6.0-6.62","2733237","co39382","norming","","","{""aha"":5}","[0]","../img/tt/1191tt.jpg","",""
"null","<div style=""font-size:60px;""> </div>","null","fixation","html-keyboard-response","447","1370145","0.0-6.0-0.63","2733237","co39382","norming","","","","","","",""
"null","../img/tt/358tt.jpg","null","mooney1","image-keyboard-response","448","1373149","0.0-6.0-1.63","2733237","co39382","norming","","","","","","",""
"3375.6450000002515","","","post_mooney1_questions","survey-likert","449","1376528","0.0-6.0-2.63","2733237","co39382","norming","","","{""curiosity"":5,""confidence"":5}","[0,1]","../img/tt/358tt.jpg","",""
"2734.0550000006333","","","recognition","survey-text","450","1379264","0.0-6.0-3.63","2733237","co39382","norming","","","{""guess"":""dog""}","","../img/tt/358tt.jpg","",""
"null","../img/gs/358gs.jpg","null","reveal","image-keyboard-response","451","1381266","0.0-6.0-4.63","2733237","co39382","norming","","","","","","",""
"null","../img/tt/358tt.jpg","null","mooney2","image-keyboard-response","452","1383269","0.0-6.0-5.63","2733237","co39382","norming","","","","","","",""
"1930.1900000008754","","","post_reveal_questions","survey-likert","453","1385200","0.0-6.0-6.63","2733237","co39382","norming","","","{""aha"":6}","[0]","../img/tt/358tt.jpg","",""
"null","<div style=""font-size:60px;""> </div>","null","fixation","html-keyboard-response","454","1385401","0.0-6.0-0.64","2733237","co39382","norming","","","","","","",""
"null","../img/tt/1078tt.jpg","null","mooney1","image-keyboard-response","455","1388404","0.0-6.0-1.64","2733237","co39382","norming","","","","","","",""
"3616.5350000010803","","","post_mooney1_questions","survey-likert","456","1392024","0.0-6.0-2.64","2733237","co39382","norming","","","{""curiosity"":1,""confidence"":2}","[0,1]","../img/tt/1078tt.jpg","",""
"2814.0999999996275","","","recognition","survey-text","457","1394842","0.0-6.0-3.64","2733237","co39382","norming","","","{""guess"":""bowling""}","","../img/tt/1078tt.jpg","",""
"null","../img/gs/1078gs.jpg","null","reveal","image-keyboard-response","458","1396844","0.0-6.0-4.64","2733237","co39382","norming","","","","","","",""
"null","../img/tt/1078tt.jpg","null","mooney2","image-keyboard-response","459","1398846","0.0-6.0-5.64","2733237","co39382","norming","","","","","","",""
"2875.234999999637","","","post_reveal_questions","survey-likert","460","1401722","0.0-6.0-6.64","2733237","co39382","norming","","","{""aha"":6}","[0]","../img/tt/1078tt.jpg","",""
"null","<div style=""font-size:60px;""> </div>","null","fixation","html-keyboard-response","461","1401923","0.0-6.0-0.65","2733237","co39382","norming","","","","","","",""
"null","../img/tt/1254tt.jpg","null","mooney1","image-keyboard-response","462","1404925","0.0-6.0-1.65","2733237","co39382","norming","","","","","","",""
"4513.084999998799","","","post_mooney1_questions","survey-likert","463","1409442","0.0-6.0-2.65","2733237","co39382","norming","","","{""curiosity"":4,""confidence"":0}","[0,1]","../img/tt/1254tt.jpg","",""
"814.1599999999162","","","recognition","survey-text","464","1410258","0.0-6.0-3.65","2733237","co39382","norming","","","{""guess"":""""}","","../img/tt/1254tt.jpg","",""
"null","../img/gs/1254gs.jpg","null","reveal","image-keyboard-response","465","1412260","0.0-6.0-4.65","2733237","co39382","norming","","","","","","",""
"null","../img/tt/1254tt.jpg","null","mooney2","image-keyboard-response","466","1414261","0.0-6.0-5.65","2733237","co39382","norming","","","","","","",""
"2344.9399999992456","","","post_reveal_questions","survey-likert","467","1416610","0.0-6.0-6.65","2733237","co39382","norming","","","{""aha"":4}","[0]","../img/tt/1254tt.jpg","",""
"null","<div style=""font-size:60px;""> </div>","null","fixation","html-keyboard-response","468","1416812","0.0-6.0-0.66","2733237","co39382","norming","","","","","","",""
"null","../img/tt/112tt.jpg","null","mooney1","image-keyboard-response","469","1419815","0.0-6.0-1.66","2733237","co39382","norming","","","","","","",""
"11087.585000001127","","","post_mooney1_questions","survey-likert","470","1430906","0.0-6.0-2.66","2733237","co39382","norming","","","{""curiosity"":3,""confidence"":2}","[0,1]","../img/tt/112tt.jpg","",""
"2390.195000000065","","","recognition","survey-text","471","1433298","0.0-6.0-3.66","2733237","co39382","norming","","","{""guess"":""parrot""}","","../img/tt/112tt.jpg","",""
"null","../img/gs/112gs.jpg","null","reveal","image-keyboard-response","472","1435300","0.0-6.0-4.66","2733237","co39382","norming","","","","","","",""
"null","../img/tt/112tt.jpg","null","mooney2","image-keyboard-response","473","1437302","0.0-6.0-5.66","2733237","co39382","norming","","","","","","",""
"1992.9699999992736","","","post_reveal_questions","survey-likert","474","1439298","0.0-6.0-6.66","2733237","co39382","norming","","","{""aha"":5}","[0]","../img/tt/112tt.jpg","",""
"null","<div style=""font-size:60px;""> </div>","null","fixation","html-keyboard-response","475","1439500","0.0-6.0-0.67","2733237","co39382","norming","","","","","","",""
"null","../img/tt/477tt.jpg","null","mooney1","image-keyboard-response","476","1442504","0.0-6.0-1.67","2733237","co39382","norming","","","","","","",""
"5213.389999998966","","","post_mooney1_questions","survey-likert","477","1447722","0.0-6.0-2.67","2733237","co39382","norming","","","{""curiosity"":6,""confidence"":1}","[0,1]","../img/tt/477tt.jpg","",""
"5574.1049999997485","","","recognition","survey-text","478","1453298","0.0-6.0-3.67","2733237","co39382","norming","","","{""guess"":""dog""}","","../img/tt/477tt.jpg","",""
"null","../img/gs/477gs.jpg","null","reveal","image-keyboard-response","479","1455301","0.0-6.0-4.67","2733237","co39382","norming","","","","","","",""
"null","../img/tt/477tt.jpg","null","mooney2","image-keyboard-response","480","1457306","0.0-6.0-5.67","2733237","co39382","norming","","","","","","",""
"2350.8349999992643","","","post_reveal_questions","survey-likert","481","1459659","0.0-6.0-6.67","2733237","co39382","norming","","","{""aha"":4}","[0]","../img/tt/477tt.jpg","",""
"null","<div style=""font-size:60px;""> </div>","null","fixation","html-keyboard-response","482","1459861","0.0-6.0-0.68","2733237","co39382","norming","","","","","","",""
"null","../img/tt/559tt.jpg","null","mooney1","image-keyboard-response","483","1462866","0.0-6.0-1.68","2733237","co39382","norming","","","","","","",""
"5493.759999999311","","","post_mooney1_questions","survey-likert","484","1468363","0.0-6.0-2.68","2733237","co39382","norming","","","{""curiosity"":2,""confidence"":5}","[0,1]","../img/tt/559tt.jpg","",""
"4150.014999999199","","","recognition","survey-text","485","1472515","0.0-6.0-3.68","2733237","co39382","norming","","","{""guess"":""sewing machine""}","","../img/tt/559tt.jpg","",""
"null","../img/gs/559gs.jpg","null","reveal","image-keyboard-response","486","1474517","0.0-6.0-4.68","2733237","co39382","norming","","","","","","",""
"null","../img/tt/559tt.jpg","null","mooney2","image-keyboard-response","487","1476519","0.0-6.0-5.68","2733237","co39382","norming","","","","","","",""
"2593.769999999553","","","post_reveal_questions","survey-likert","488","1479115","0.0-6.0-6.68","2733237","co39382","norming","","","{""aha"":5}","[0]","../img/tt/559tt.jpg","",""
"null","<div style=""font-size:60px;""> </div>","null","fixation","html-keyboard-response","489","1479317","0.0-6.0-0.69","2733237","co39382","norming","","","","","","",""
"null","../img/tt/1044tt.jpg","null","mooney1","image-keyboard-response","490","1482320","0.0-6.0-1.69","2733237","co39382","norming","","","","","","",""
"6591.655000000261","","","post_mooney1_questions","survey-likert","491","1488915","0.0-6.0-2.69","2733237","co39382","norming","","","{""curiosity"":6,""confidence"":1}","[0,1]","../img/tt/1044tt.jpg","",""
"2589.9699999990407","","","recognition","survey-text","492","1491507","0.0-6.0-3.69","2733237","co39382","norming","","","{""guess"":""closet""}","","../img/tt/1044tt.jpg","",""
"null","../img/gs/1044gs.jpg","null","reveal","image-keyboard-response","493","1493509","0.0-6.0-4.69","2733237","co39382","norming","","","","","","",""
"null","../img/tt/1044tt.jpg","null","mooney2","image-keyboard-response","494","1495511","0.0-6.0-5.69","2733237","co39382","norming","","","","","","",""
"1865.5699999998324","","","post_reveal_questions","survey-likert","495","1497380","0.0-6.0-6.69","2733237","co39382","norming","","","{""aha"":3}","[0]","../img/tt/1044tt.jpg","",""
"null","<div style=""font-size:60px;""> </div>","null","fixation","html-keyboard-response","496","1497581","0.0-6.0-0.70","2733237","co39382","norming","","","","","","",""
"null","../img/tt/1261tt.jpg","null","mooney1","image-keyboard-response","497","1500585","0.0-6.0-1.70","2733237","co39382","norming","","","","","","",""
"3797.925000000745","","","post_mooney1_questions","survey-likert","498","1504387","0.0-6.0-2.70","2733237","co39382","norming","","","{""curiosity"":6,""confidence"":1}","[0,1]","../img/tt/1261tt.jpg","",""
"1957.934999998659","","","recognition","survey-text","499","1506347","0.0-6.0-3.70","2733237","co39382","norming","","","{""guess"":""goat""}","","../img/tt/1261tt.jpg","",""
"null","../img/gs/1261gs.jpg","null","reveal","image-keyboard-response","500","1508349","0.0-6.0-4.70","2733237","co39382","norming","","","","","","",""
"null","../img/tt/1261tt.jpg","null","mooney2","image-keyboard-response","501","1510352","0.0-6.0-5.70","2733237","co39382","norming","","","","","","",""
"1232.369999999879","","","post_reveal_questions","survey-likert","502","1511587","0.0-6.0-6.70","2733237","co39382","norming","","","{""aha"":6}","[0]","../img/tt/1261tt.jpg","",""
"null","<div style=""font-size:60px;""> </div>","null","fixation","html-keyboard-response","503","1511789","0.0-6.0-0.71","2733237","co39382","norming","","","","","","",""
"null","../img/tt/1186tt.jpg","null","mooney1","image-keyboard-response","504","1514792","0.0-6.0-1.71","2733237","co39382","norming","","","","","","",""
"6182.924999999348","","","post_mooney1_questions","survey-likert","505","1520981","0.0-6.0-2.71","2733237","co39382","norming","","","{""curiosity"":5,""confidence"":2}","[0,1]","../img/tt/1186tt.jpg","",""
"1957.7399999997579","","","recognition","survey-text","506","1522940","0.0-6.0-3.71","2733237","co39382","norming","","","{""guess"":""skater""}","","../img/tt/1186tt.jpg","",""
"null","../img/gs/1186gs.jpg","null","reveal","image-keyboard-response","507","1524942","0.0-6.0-4.71","2733237","co39382","norming","","","","","","",""
"null","../img/tt/1186tt.jpg","null","mooney2","image-keyboard-response","508","1526943","0.0-6.0-5.71","2733237","co39382","norming","","","","","","",""
"1900.4899999999907","","","post_reveal_questions","survey-likert","509","1528845","0.0-6.0-6.71","2733237","co39382","norming","","","{""aha"":5}","[0]","../img/tt/1186tt.jpg","",""
"null","<div style=""font-size:60px;""> </div>","null","fixation","html-keyboard-response","510","1529046","0.0-6.0-0.72","2733237","co39382","norming","","","","","","",""
"null","../img/tt/1309tt.jpg","null","mooney1","image-keyboard-response","511","1532047","0.0-6.0-1.72","2733237","co39382","norming","","","","","","",""
"4434.269999999786","","","post_mooney1_questions","survey-likert","512","1536485","0.0-6.0-2.72","2733237","co39382","norming","","","{""curiosity"":4,""confidence"":5}","[0,1]","../img/tt/1309tt.jpg","",""
"2837.9399999994785","","","recognition","survey-text","513","1539324","0.0-6.0-3.72","2733237","co39382","norming","","","{""guess"":""land rover""}","","../img/tt/1309tt.jpg","",""
"null","../img/gs/1309gs.jpg","null","reveal","image-keyboard-response","514","1541326","0.0-6.0-4.72","2733237","co39382","norming","","","","","","",""
"null","../img/tt/1309tt.jpg","null","mooney2","image-keyboard-response","515","1543328","0.0-6.0-5.72","2733237","co39382","norming","","","","","","",""
"2993.979999999283","","","post_reveal_questions","survey-likert","516","1546325","0.0-6.0-6.72","2733237","co39382","norming","","","{""aha"":2}","[0]","../img/tt/1309tt.jpg","",""
"null","<div style=""font-size:60px;""> </div>","null","fixation","html-keyboard-response","517","1546526","0.0-6.0-0.73","2733237","co39382","norming","","","","","","",""
"null","../img/tt/008tt.jpg","null","mooney1","image-keyboard-response","518","1549530","0.0-6.0-1.73","2733237","co39382","norming","","","","","","",""
"4471.199999999953","","","post_mooney1_questions","survey-likert","519","1554005","0.0-6.0-2.73","2733237","co39382","norming","","","{""curiosity"":5,""confidence"":2}","[0,1]","../img/tt/008tt.jpg","",""
"3109.9549999998417","","","recognition","survey-text","520","1557116","0.0-6.0-3.73","2733237","co39382","norming","","","{""guess"":""speargun""}","","../img/tt/008tt.jpg","",""
"null","../img/gs/008gs.jpg","null","reveal","image-keyboard-response","521","1559118","0.0-6.0-4.73","2733237","co39382","norming","","","","","","",""
"null","../img/tt/008tt.jpg","null","mooney2","image-keyboard-response","522","1561121","0.0-6.0-5.73","2733237","co39382","norming","","","","","","",""
"4280.450000000186","","","post_reveal_questions","survey-likert","523","1565405","0.0-6.0-6.73","2733237","co39382","norming","","","{""aha"":4}","[0]","../img/tt/008tt.jpg","",""
"null","<div style=""font-size:60px;""> </div>","null","fixation","html-keyboard-response","524","1565606","0.0-6.0-0.74","2733237","co39382","norming","","","","","","",""
"null","../img/tt/010tt.jpg","null","mooney1","image-keyboard-response","525","1568609","0.0-6.0-1.74","2733237","co39382","norming","","","","","","",""
"4160.2500000006985","","","post_mooney1_questions","survey-likert","526","1572773","0.0-6.0-2.74","2733237","co39382","norming","","","{""curiosity"":4,""confidence"":1}","[0,1]","../img/tt/010tt.jpg","",""
"3781.984999999637","","","recognition","survey-text","527","1576556","0.0-6.0-3.74","2733237","co39382","norming","","","{""guess"":""contrabass""}","","../img/tt/010tt.jpg","",""
"null","../img/gs/010gs.jpg","null","reveal","image-keyboard-response","528","1578559","0.0-6.0-4.74","2733237","co39382","norming","","","","","","",""
"null","../img/tt/010tt.jpg","null","mooney2","image-keyboard-response","529","1580562","0.0-6.0-5.74","2733237","co39382","norming","","","","","","",""
"1832.5949999997392","","","post_reveal_questions","survey-likert","530","1582398","0.0-6.0-6.74","2733237","co39382","norming","","","{""aha"":3}","[0]","../img/tt/010tt.jpg","",""
"null","<div style=""font-size:60px;""> </div>","null","fixation","html-keyboard-response","531","1582599","0.0-6.0-0.75","2733237","co39382","norming","","","","","","",""
"null","../img/tt/1199tt.jpg","null","mooney1","image-keyboard-response","532","1585602","0.0-6.0-1.75","2733237","co39382","norming","","","","","","",""
"15710.369999998948","","","post_mooney1_questions","survey-likert","533","1601318","0.0-6.0-2.75","2733237","co39382","norming","","","{""curiosity"":4,""confidence"":5}","[0,1]","../img/tt/1199tt.jpg","",""
"2630.0250000003725","","","recognition","survey-text","534","1603949","0.0-6.0-3.75","2733237","co39382","norming","","","{""guess"":""gymnast""}","","../img/tt/1199tt.jpg","",""
"null","../img/gs/1199gs.jpg","null","reveal","image-keyboard-response","535","1605951","0.0-6.0-4.75","2733237","co39382","norming","","","","","","",""
"null","../img/tt/1199tt.jpg","null","mooney2","image-keyboard-response","536","1607954","0.0-6.0-5.75","2733237","co39382","norming","","","","","","",""
"1792.8949999986216","","","post_reveal_questions","survey-likert","537","1609750","0.0-6.0-6.75","2733237","co39382","norming","","","{""aha"":4}","[0]","../img/tt/1199tt.jpg","",""
"null","<div style=""font-size:60px;""> </div>","null","fixation","html-keyboard-response","538","1609951","0.0-6.0-0.76","2733237","co39382","norming","","","","","","",""
"null","../img/tt/063tt.jpg","null","mooney1","image-keyboard-response","539","1612954","0.0-6.0-1.76","2733237","co39382","norming","","","","","","",""
"4225.849999998696","","","post_mooney1_questions","survey-likert","540","1617181","0.0-6.0-2.76","2733237","co39382","norming","","","{""curiosity"":2,""confidence"":2}","[0,1]","../img/tt/063tt.jpg","",""
"3093.930000001099","","","recognition","survey-text","541","1620277","0.0-6.0-3.76","2733237","co39382","norming","","","{""guess"":""camera""}","","../img/tt/063tt.jpg","",""
"null","../img/gs/063gs.jpg","null","reveal","image-keyboard-response","542","1622279","0.0-6.0-4.76","2733237","co39382","norming","","","","","","",""
"null","../img/tt/063tt.jpg","null","mooney2","image-keyboard-response","543","1624281","0.0-6.0-5.76","2733237","co39382","norming","","","","","","",""
"6011.710000000661","","","post_reveal_questions","survey-likert","544","1630294","0.0-6.0-6.76","2733237","co39382","norming","","","{""aha"":4}","[0]","../img/tt/063tt.jpg","",""
"null","<div style=""font-size:60px;""> </div>","null","fixation","html-keyboard-response","545","1630495","0.0-6.0-0.77","2733237","co39382","norming","","","","","","",""
"null","../img/tt/435tt.jpg","null","mooney1","image-keyboard-response","546","1633499","0.0-6.0-1.77","2733237","co39382","norming","","","","","","",""
"5854.835000000196","","","post_mooney1_questions","survey-likert","547","1639358","0.0-6.0-2.77","2733237","co39382","norming","","","{""curiosity"":5,""confidence"":1}","[0,1]","../img/tt/435tt.jpg","",""
"3638.0399999998044","","","recognition","survey-text","548","1642998","0.0-6.0-3.77","2733237","co39382","norming","","","{""guess"":""map""}","","../img/tt/435tt.jpg","",""
"null","../img/gs/435gs.jpg","null","reveal","image-keyboard-response","549","1644999","0.0-6.0-4.77","2733237","co39382","norming","","","","","","",""
"null","../img/tt/435tt.jpg","null","mooney2","image-keyboard-response","550","1647000","0.0-6.0-5.77","2733237","co39382","norming","","","","","","",""
"1877.044999999227","","","post_reveal_questions","survey-likert","551","1648878","0.0-6.0-6.77","2733237","co39382","norming","","","{""aha"":5}","[0]","../img/tt/435tt.jpg","",""
