"rt","stimulus","key_press","test_part","trial_type","trial_index","time_elapsed","internal_node_id","totalTime","subject","experiment_name","button_pressed","success","responses","question_order","currentStim","old","correct"
"3711.189999999988","Welcome to the experiment. This is an online experiment so please don't close the tab/window until we say goodbye.  Press any key to begin.","32","instructions","html-keyboard-response","0","3761","0.0-0.0","2623389","co39040","norming","","","","","","",""
"11264.779999999519","<div style='word-wrap: break-word; width: 900px'><h3>Please consider this information carefully before deciding whether to participate in this research</h3><ul style='text-align: left; font-size: .8em;'><li><b>Purpose of the research</b>: To examine how people process images.</li><li><b>What you will do in this research</b>:  Stimuli (images) will be presented on the computer and you will be asked different questions about them.</li><li><b>Time required</b>: Participation will take between 45 and 60 minutes to complete.</li><li><b>Risks</b>:  There are no anticipated risks associated with participating in this study. The effects of participating should be comparable to those you would experience from viewing a computer monitor for 30 minutes and using a mouse or keyboard.</li><li><b>Benefits</b>:  This study provides no benefits to you individually except for the credit. The study provides important information about the nature of perception and learning.</li><li><b>Confidentiality</b>:  Your participation in this study will remain confidential. No personally identifiable information will be associated with your data. Your de-identified data may be shared with other researchers and used in future projects.</li><li><b>Participation and withdrawal</b>:  Your participation in this study is completely voluntary and you may refuse to participate or you may choose to withdraw at any time without penalty.</li><li><b>How to contact the researchers</b>: If you have questions or concerns about your participation or payment, or want to request a summary of research findings, please contact Sander Van de Cruys (KU Leuven), at sander.vandecruys@kuleuven.be.</li></ul><p>The nature and purpose of this research have been sufficiently explained and I agree to participate in this study.  I understand that I am free to withdraw at any time without incurring any penalty.</p><p>Please consent by clicking the button below to continue. Otherwise, please exit the study at this time.</p></div>","","instructions","html-button-response","1","15030","0.0-1.0","2623389","co39040","norming","0","","","","","",""
"","","","instructions","fullscreen","2","17570","0.0-2.0","2623389","co39040","norming","","true","","","","",""
"23130.369999998948","","","sona","survey-html-form","3","40706","0.0-3.0","2623389","co39040","norming","","","[{""name"":""sonaid"",""value"":""39040""},{""name"":""debrief"",""value"":""no""},{""name"":""datajoin"",""value"":""yes""}]","","","",""
"31499.990000000253","<div style='word-wrap: break-word; width: 900px'><h3>Instructions</h3><p>This experiment will have 3 parts. In the first part you will see a series of distorted images like the one below on the left. As you can see in the righthand image, the distorted images are derived from actual photographs. In what follows, you will <strong>briefly</strong> be presented with <strong>only</strong> the distorted image.</p> <div style='float: left; margin-right: 20px;'><img src='../img/018tt.jpg' height='250' width='250'></img></div><div style='float: right; margin-left: 20px;'><img src='../img/018gs.jpg' height='250' width='250'></img></div><p>Subsequently you will be asked a few questions about the image: One question on how <strong>curious</strong> you are about the solution and one on how <strong>confident</strong> you are that you know the solution.</p>Next, we ask you to make a guess on what is in the image. Note that it is OK to name just the <strong>basic level category</strong>. For example when you see a parrot in the image, 'parrot' will obviously be a correct answer but also correct is 'bird'. However, 'animal' will <strong>not</strong> be counted as a correct response. For the example above, 'rose' would be correct or 'flower', but not 'plant'. When soccer players are depicted, 'soccer', 'football', 'soccer players' will be correct, but not 'humans', 'outdoors', or 'sports'. You do not need to describe the image in full, just name the main object in it <strong>in one or two words</strong>. All images depict objects from one of the following broad level categories: animals, inanimate objects, plants, sports, vehicles, and food. Recognizing means knowing <strong>more</strong> than these broad labels for a given image. But we always encourage you to <strong>make a guess</strong> if you can. Note that you are allowed to use <strong>Dutch and English</strong> in your answers, whatever comes easiest for you.</p><p>Press any key to continue.</p></div>","32","instructions","html-keyboard-response","4","72207","0.0-4.0","2623389","co39040","norming","","","","","","",""
"286415.42000000115","<div style='word-wrap: break-word; width: 900px'><h3>Instructions</h3> <p>Next, the solution image will be revealed to you and you'll be asked to indicate how strong your <strong>aha-experience</strong> was after seeing the solution. This describes the positive feeling of the 'click' you sometimes experience, when the pieces of the 'puzzle' fall together and you suddenly have 'insight' in the image.</p><img src='aha.jpg' height='188' width='250'></img><p>Note that there are no right or wrong answers. We are interested in what <strong>you</strong> see in the image and how <strong>you</strong> feel about it.</p><p>Press any key to start the experiment.</p></div>","32","instructions","html-keyboard-response","5","358627","0.0-5.0","2623389","co39040","norming","","","","","","",""
"null","<div style=""font-size:60px;""> </div>","null","fixation","html-keyboard-response","6","358836","0.0-6.0-0.0","2623389","co39040","norming","","","","","","",""
"null","../img/tt/599tt.jpg","null","mooney1","image-keyboard-response","7","361842","0.0-6.0-1.0","2623389","co39040","norming","","","","","","",""
"6011.164999999863","","","post_mooney1_questions","survey-likert","8","367857","0.0-6.0-2.0","2623389","co39040","norming","","","{""curiosity"":2,""confidence"":5}","[0,1]","../img/tt/599tt.jpg","",""
"2701.6250000015134","","","recognition","survey-text","9","370561","0.0-6.0-3.0","2623389","co39040","norming","","","{""guess"":""uil""}","","../img/tt/599tt.jpg","",""
"null","../img/gs/599gs.jpg","null","reveal","image-keyboard-response","10","372569","0.0-6.0-4.0","2623389","co39040","norming","","","","","","",""
"null","../img/tt/599tt.jpg","null","mooney2","image-keyboard-response","11","374579","0.0-6.0-5.0","2623389","co39040","norming","","","","","","",""
"2843.684999999823","","","post_reveal_questions","survey-likert","12","377425","0.0-6.0-6.0","2623389","co39040","norming","","","{""aha"":4}","[0]","../img/tt/599tt.jpg","",""
"null","<div style=""font-size:60px;""> </div>","null","fixation","html-keyboard-response","13","377627","0.0-6.0-0.1","2623389","co39040","norming","","","","","","",""
"null","../img/tt/1033tt.jpg","null","mooney1","image-keyboard-response","14","380629","0.0-6.0-1.1","2623389","co39040","norming","","","","","","",""
"4824.955000000016","","","post_mooney1_questions","survey-likert","15","385457","0.0-6.0-2.1","2623389","co39040","norming","","","{""curiosity"":5,""confidence"":0}","[0,1]","../img/tt/1033tt.jpg","",""
"3661.7249999999185","","","recognition","survey-text","16","389121","0.0-6.0-3.1","2623389","co39040","norming","","","{""guess"":""vogel""}","","../img/tt/1033tt.jpg","",""
"null","../img/gs/1033gs.jpg","null","reveal","image-keyboard-response","17","391128","0.0-6.0-4.1","2623389","co39040","norming","","","","","","",""
"null","../img/tt/1033tt.jpg","null","mooney2","image-keyboard-response","18","393130","0.0-6.0-5.1","2623389","co39040","norming","","","","","","",""
"3460.380000000412","","","post_reveal_questions","survey-likert","19","396593","0.0-6.0-6.1","2623389","co39040","norming","","","{""aha"":0}","[0]","../img/tt/1033tt.jpg","",""
"null","<div style=""font-size:60px;""> </div>","null","fixation","html-keyboard-response","20","396794","0.0-6.0-0.2","2623389","co39040","norming","","","","","","",""
"null","../img/tt/040tt.jpg","null","mooney1","image-keyboard-response","21","399804","0.0-6.0-1.2","2623389","co39040","norming","","","","","","",""
"3690.349999998929","","","post_mooney1_questions","survey-likert","22","403497","0.0-6.0-2.2","2623389","co39040","norming","","","{""curiosity"":4,""confidence"":1}","[0,1]","../img/tt/040tt.jpg","",""
"2454.200000000128","","","recognition","survey-text","23","405953","0.0-6.0-3.2","2623389","co39040","norming","","","{""guess"":""hond""}","","../img/tt/040tt.jpg","",""
"null","../img/gs/040gs.jpg","null","reveal","image-keyboard-response","24","407960","0.0-6.0-4.2","2623389","co39040","norming","","","","","","",""
"null","../img/tt/040tt.jpg","null","mooney2","image-keyboard-response","25","409969","0.0-6.0-5.2","2623389","co39040","norming","","","","","","",""
"4662.855000000447","","","post_reveal_questions","survey-likert","26","414633","0.0-6.0-6.2","2623389","co39040","norming","","","{""aha"":0}","[0]","../img/tt/040tt.jpg","",""
"null","<div style=""font-size:60px;""> </div>","null","fixation","html-keyboard-response","27","414834","0.0-6.0-0.3","2623389","co39040","norming","","","","","","",""
"null","../img/tt/1241tt.jpg","null","mooney1","image-keyboard-response","28","417846","0.0-6.0-1.3","2623389","co39040","norming","","","","","","",""
"4119.899999999674","","","post_mooney1_questions","survey-likert","29","421963","0.0-6.0-2.3","2623389","co39040","norming","","","{""curiosity"":4,""confidence"":2}","[0,1]","../img/tt/1241tt.jpg","",""
"2382.3549999997485","","","recognition","survey-text","30","424347","0.0-6.0-3.3","2623389","co39040","norming","","","{""guess"":""hond""}","","../img/tt/1241tt.jpg","",""
"null","../img/gs/1241gs.jpg","null","reveal","image-keyboard-response","31","426355","0.0-6.0-4.3","2623389","co39040","norming","","","","","","",""
"null","../img/tt/1241tt.jpg","null","mooney2","image-keyboard-response","32","428359","0.0-6.0-5.3","2623389","co39040","norming","","","","","","",""
"3873.610000000568","","","post_reveal_questions","survey-likert","33","432235","0.0-6.0-6.3","2623389","co39040","norming","","","{""aha"":0}","[0]","../img/tt/1241tt.jpg","",""
"null","<div style=""font-size:60px;""> </div>","null","fixation","html-keyboard-response","34","432444","0.0-6.0-0.4","2623389","co39040","norming","","","","","","",""
"null","../img/tt/1353tt.jpg","null","mooney1","image-keyboard-response","35","435450","0.0-6.0-1.4","2623389","co39040","norming","","","","","","",""
"6414.779999999097","","","post_mooney1_questions","survey-likert","36","441867","0.0-6.0-2.4","2623389","co39040","norming","","","{""curiosity"":4,""confidence"":0}","[0,1]","../img/tt/1353tt.jpg","",""
"966.0999999996275","","","recognition","survey-text","37","442835","0.0-6.0-3.4","2623389","co39040","norming","","","{""guess"":""""}","","../img/tt/1353tt.jpg","",""
"null","../img/gs/1353gs.jpg","null","reveal","image-keyboard-response","38","444841","0.0-6.0-4.4","2623389","co39040","norming","","","","","","",""
"null","../img/tt/1353tt.jpg","null","mooney2","image-keyboard-response","39","446853","0.0-6.0-5.4","2623389","co39040","norming","","","","","","",""
"1892.4050000004936","","","post_reveal_questions","survey-likert","40","448747","0.0-6.0-6.4","2623389","co39040","norming","","","{""aha"":0}","[0]","../img/tt/1353tt.jpg","",""
"null","<div style=""font-size:60px;""> </div>","null","fixation","html-keyboard-response","41","448950","0.0-6.0-0.5","2623389","co39040","norming","","","","","","",""
"null","../img/tt/1232tt.jpg","null","mooney1","image-keyboard-response","42","451960","0.0-6.0-1.5","2623389","co39040","norming","","","","","","",""
"5088.884999999253","","","post_mooney1_questions","survey-likert","43","457051","0.0-6.0-2.5","2623389","co39040","norming","","","{""curiosity"":5,""confidence"":0}","[0,1]","../img/tt/1232tt.jpg","",""
"750.0149999996065","","","recognition","survey-text","44","457803","0.0-6.0-3.5","2623389","co39040","norming","","","{""guess"":""""}","","../img/tt/1232tt.jpg","",""
"null","../img/gs/1232gs.jpg","null","reveal","image-keyboard-response","45","459813","0.0-6.0-4.5","2623389","co39040","norming","","","","","","",""
"null","../img/tt/1232tt.jpg","null","mooney2","image-keyboard-response","46","461820","0.0-6.0-5.5","2623389","co39040","norming","","","","","","",""
"2188.505000000121","","","post_reveal_questions","survey-likert","47","464011","0.0-6.0-6.5","2623389","co39040","norming","","","{""aha"":0}","[0]","../img/tt/1232tt.jpg","",""
"null","<div style=""font-size:60px;""> </div>","null","fixation","html-keyboard-response","48","464212","0.0-6.0-0.6","2623389","co39040","norming","","","","","","",""
"null","../img/tt/1200tt.jpg","null","mooney1","image-keyboard-response","49","467222","0.0-6.0-1.6","2623389","co39040","norming","","","","","","",""
"3723.7299999997485","","","post_mooney1_questions","survey-likert","50","470947","0.0-6.0-2.6","2623389","co39040","norming","","","{""curiosity"":4,""confidence"":0}","[0,1]","../img/tt/1200tt.jpg","",""
"2774.4250000014435","","","recognition","survey-text","51","473723","0.0-6.0-3.6","2623389","co39040","norming","","","{""guess"":""rat""}","","../img/tt/1200tt.jpg","",""
"null","../img/gs/1200gs.jpg","null","reveal","image-keyboard-response","52","475725","0.0-6.0-4.6","2623389","co39040","norming","","","","","","",""
"null","../img/tt/1200tt.jpg","null","mooney2","image-keyboard-response","53","477729","0.0-6.0-5.6","2623389","co39040","norming","","","","","","",""
"3519.994999998715","","","post_reveal_questions","survey-likert","54","481256","0.0-6.0-6.6","2623389","co39040","norming","","","{""aha"":0}","[0]","../img/tt/1200tt.jpg","",""
"null","<div style=""font-size:60px;""> </div>","null","fixation","html-keyboard-response","55","481464","0.0-6.0-0.7","2623389","co39040","norming","","","","","","",""
"null","../img/tt/1366tt.jpg","null","mooney1","image-keyboard-response","56","484469","0.0-6.0-1.7","2623389","co39040","norming","","","","","","",""
"3784.5450000004494","","","post_mooney1_questions","survey-likert","57","488256","0.0-6.0-2.7","2623389","co39040","norming","","","{""curiosity"":6,""confidence"":0}","[0,1]","../img/tt/1366tt.jpg","",""
"878.0050000004703","","","recognition","survey-text","58","489136","0.0-6.0-3.7","2623389","co39040","norming","","","{""guess"":""""}","","../img/tt/1366tt.jpg","",""
"null","../img/gs/1366gs.jpg","null","reveal","image-keyboard-response","59","491138","0.0-6.0-4.7","2623389","co39040","norming","","","","","","",""
"null","../img/tt/1366tt.jpg","null","mooney2","image-keyboard-response","60","493146","0.0-6.0-5.7","2623389","co39040","norming","","","","","","",""
"2147.745000000228","","","post_reveal_questions","survey-likert","61","495296","0.0-6.0-6.7","2623389","co39040","norming","","","{""aha"":0}","[0]","../img/tt/1366tt.jpg","",""
"null","<div style=""font-size:60px;""> </div>","null","fixation","html-keyboard-response","62","495501","0.0-6.0-0.8","2623389","co39040","norming","","","","","","",""
"null","../img/tt/1102tt.jpg","null","mooney1","image-keyboard-response","63","498508","0.0-6.0-1.8","2623389","co39040","norming","","","","","","",""
"4793.579999999551","","","post_mooney1_questions","survey-likert","64","503304","0.0-6.0-2.8","2623389","co39040","norming","","","{""curiosity"":3,""confidence"":0}","[0,1]","../img/tt/1102tt.jpg","",""
"654.0899999999674","","","recognition","survey-text","65","503960","0.0-6.0-3.8","2623389","co39040","norming","","","{""guess"":""""}","","../img/tt/1102tt.jpg","",""
"null","../img/gs/1102gs.jpg","null","reveal","image-keyboard-response","66","505963","0.0-6.0-4.8","2623389","co39040","norming","","","","","","",""
"null","../img/tt/1102tt.jpg","null","mooney2","image-keyboard-response","67","507965","0.0-6.0-5.8","2623389","co39040","norming","","","","","","",""
"2113.5549999998766","","","post_reveal_questions","survey-likert","68","510080","0.0-6.0-6.8","2623389","co39040","norming","","","{""aha"":0}","[0]","../img/tt/1102tt.jpg","",""
"null","<div style=""font-size:60px;""> </div>","null","fixation","html-keyboard-response","69","510290","0.0-6.0-0.9","2623389","co39040","norming","","","","","","",""
"null","../img/tt/055tt.jpg","null","mooney1","image-keyboard-response","70","513298","0.0-6.0-1.9","2623389","co39040","norming","","","","","","",""
"4844.020000000426","","","post_mooney1_questions","survey-likert","71","518144","0.0-6.0-2.9","2623389","co39040","norming","","","{""curiosity"":3,""confidence"":0}","[0,1]","../img/tt/055tt.jpg","",""
"2190.2150000005495","","","recognition","survey-text","72","520336","0.0-6.0-3.9","2623389","co39040","norming","","","{""guess"":""paard""}","","../img/tt/055tt.jpg","",""
"null","../img/gs/055gs.jpg","null","reveal","image-keyboard-response","73","522345","0.0-6.0-4.9","2623389","co39040","norming","","","","","","",""
"null","../img/tt/055tt.jpg","null","mooney2","image-keyboard-response","74","524353","0.0-6.0-5.9","2623389","co39040","norming","","","","","","",""
"3508.410000000382","","","post_reveal_questions","survey-likert","75","527864","0.0-6.0-6.9","2623389","co39040","norming","","","{""aha"":0}","[0]","../img/tt/055tt.jpg","",""
"null","<div style=""font-size:60px;""> </div>","null","fixation","html-keyboard-response","76","528067","0.0-6.0-0.10","2623389","co39040","norming","","","","","","",""
"null","../img/tt/1217tt.jpg","null","mooney1","image-keyboard-response","77","531073","0.0-6.0-1.10","2623389","co39040","norming","","","","","","",""
"4420.420000000275","","","post_mooney1_questions","survey-likert","78","535496","0.0-6.0-2.10","2623389","co39040","norming","","","{""curiosity"":3,""confidence"":2}","[0,1]","../img/tt/1217tt.jpg","",""
"3878.2199999986915","","","recognition","survey-text","79","539376","0.0-6.0-3.10","2623389","co39040","norming","","","{""guess"":""basketballers""}","","../img/tt/1217tt.jpg","",""
"null","../img/gs/1217gs.jpg","null","reveal","image-keyboard-response","80","541389","0.0-6.0-4.10","2623389","co39040","norming","","","","","","",""
"null","../img/tt/1217tt.jpg","null","mooney2","image-keyboard-response","81","543398","0.0-6.0-5.10","2623389","co39040","norming","","","","","","",""
"2890.6399999996647","","","post_reveal_questions","survey-likert","82","546291","0.0-6.0-6.10","2623389","co39040","norming","","","{""aha"":0}","[0]","../img/tt/1217tt.jpg","",""
"null","<div style=""font-size:60px;""> </div>","null","fixation","html-keyboard-response","83","546498","0.0-6.0-0.11","2623389","co39040","norming","","","","","","",""
"null","../img/tt/1049tt.jpg","null","mooney1","image-keyboard-response","84","549508","0.0-6.0-1.11","2623389","co39040","norming","","","","","","",""
"7067.729999998817","","","post_mooney1_questions","survey-likert","85","556579","0.0-6.0-2.11","2623389","co39040","norming","","","{""curiosity"":2,""confidence"":1}","[0,1]","../img/tt/1049tt.jpg","",""
"1582.155000000028","","","recognition","survey-text","86","558163","0.0-6.0-3.11","2623389","co39040","norming","","","{""guess"":""mensen""}","","../img/tt/1049tt.jpg","",""
"null","../img/gs/1049gs.jpg","null","reveal","image-keyboard-response","87","560165","0.0-6.0-4.11","2623389","co39040","norming","","","","","","",""
"null","../img/tt/1049tt.jpg","null","mooney2","image-keyboard-response","88","562167","0.0-6.0-5.11","2623389","co39040","norming","","","","","","",""
"3216.9400000002934","","","post_reveal_questions","survey-likert","89","565387","0.0-6.0-6.11","2623389","co39040","norming","","","{""aha"":0}","[0]","../img/tt/1049tt.jpg","",""
"null","<div style=""font-size:60px;""> </div>","null","fixation","html-keyboard-response","90","565590","0.0-6.0-0.12","2623389","co39040","norming","","","","","","",""
"null","../img/tt/1278tt.jpg","null","mooney1","image-keyboard-response","91","568592","0.0-6.0-1.12","2623389","co39040","norming","","","","","","",""
"5480.1349999997765","","","post_mooney1_questions","survey-likert","92","574075","0.0-6.0-2.12","2623389","co39040","norming","","","{""curiosity"":1,""confidence"":0}","[0,1]","../img/tt/1278tt.jpg","",""
"1181.9350000005215","","","recognition","survey-text","93","575259","0.0-6.0-3.12","2623389","co39040","norming","","","{""guess"":""""}","","../img/tt/1278tt.jpg","",""
"null","../img/gs/1278gs.jpg","null","reveal","image-keyboard-response","94","577261","0.0-6.0-4.12","2623389","co39040","norming","","","","","","",""
"null","../img/tt/1278tt.jpg","null","mooney2","image-keyboard-response","95","579271","0.0-6.0-5.12","2623389","co39040","norming","","","","","","",""
"1953.8100000008708","","","post_reveal_questions","survey-likert","96","581227","0.0-6.0-6.12","2623389","co39040","norming","","","{""aha"":0}","[0]","../img/tt/1278tt.jpg","",""
"null","<div style=""font-size:60px;""> </div>","null","fixation","html-keyboard-response","97","581429","0.0-6.0-0.13","2623389","co39040","norming","","","","","","",""
"null","../img/tt/222tt.jpg","null","mooney1","image-keyboard-response","98","584440","0.0-6.0-1.13","2623389","co39040","norming","","","","","","",""
"3432.030000001774","","","post_mooney1_questions","survey-likert","99","587875","0.0-6.0-2.13","2623389","co39040","norming","","","{""curiosity"":1,""confidence"":0}","[0,1]","../img/tt/222tt.jpg","",""
"2142.3350000004284","","","recognition","survey-text","100","590019","0.0-6.0-3.13","2623389","co39040","norming","","","{""guess"":""boot""}","","../img/tt/222tt.jpg","",""
"null","../img/gs/222gs.jpg","null","reveal","image-keyboard-response","101","592024","0.0-6.0-4.13","2623389","co39040","norming","","","","","","",""
"null","../img/tt/222tt.jpg","null","mooney2","image-keyboard-response","102","594033","0.0-6.0-5.13","2623389","co39040","norming","","","","","","",""
"2415.0949999984587","","","post_reveal_questions","survey-likert","103","596451","0.0-6.0-6.13","2623389","co39040","norming","","","{""aha"":0}","[0]","../img/tt/222tt.jpg","",""
"null","<div style=""font-size:60px;""> </div>","null","fixation","html-keyboard-response","104","596658","0.0-6.0-0.14","2623389","co39040","norming","","","","","","",""
"null","../img/tt/124tt.jpg","null","mooney1","image-keyboard-response","105","599660","0.0-6.0-1.14","2623389","co39040","norming","","","","","","",""
"4981.789999999804","","","post_mooney1_questions","survey-likert","106","604639","0.0-6.0-2.14","2623389","co39040","norming","","","{""curiosity"":1,""confidence"":1}","[0,1]","../img/tt/124tt.jpg","",""
"1773.8749999989523","","","recognition","survey-text","107","606415","0.0-6.0-3.14","2623389","co39040","norming","","","{""guess"":""koala""}","","../img/tt/124tt.jpg","",""
"null","../img/gs/124gs.jpg","null","reveal","image-keyboard-response","108","608425","0.0-6.0-4.14","2623389","co39040","norming","","","","","","",""
"null","../img/tt/124tt.jpg","null","mooney2","image-keyboard-response","109","610428","0.0-6.0-5.14","2623389","co39040","norming","","","","","","",""
"1920.415000000503","","","post_reveal_questions","survey-likert","110","612351","0.0-6.0-6.14","2623389","co39040","norming","","","{""aha"":0}","[0]","../img/tt/124tt.jpg","",""
"null","<div style=""font-size:60px;""> </div>","null","fixation","html-keyboard-response","111","612560","0.0-6.0-0.15","2623389","co39040","norming","","","","","","",""
"null","../img/tt/1012tt.jpg","null","mooney1","image-keyboard-response","112","615564","0.0-6.0-1.15","2623389","co39040","norming","","","","","","",""
"5186.364999999525","","","post_mooney1_questions","survey-likert","113","620751","0.0-6.0-2.15","2623389","co39040","norming","","","{""curiosity"":0,""confidence"":0}","[0,1]","../img/tt/1012tt.jpg","",""
"542.125","","","recognition","survey-text","114","621295","0.0-6.0-3.15","2623389","co39040","norming","","","{""guess"":""""}","","../img/tt/1012tt.jpg","",""
"null","../img/gs/1012gs.jpg","null","reveal","image-keyboard-response","115","623298","0.0-6.0-4.15","2623389","co39040","norming","","","","","","",""
"null","../img/tt/1012tt.jpg","null","mooney2","image-keyboard-response","116","625309","0.0-6.0-5.15","2623389","co39040","norming","","","","","","",""
"3392.120000000461","","","post_reveal_questions","survey-likert","117","628703","0.0-6.0-6.15","2623389","co39040","norming","","","{""aha"":0}","[0]","../img/tt/1012tt.jpg","",""
"null","<div style=""font-size:60px;""> </div>","null","fixation","html-keyboard-response","118","628908","0.0-6.0-0.16","2623389","co39040","norming","","","","","","",""
"null","../img/tt/1130tt.jpg","null","mooney1","image-keyboard-response","119","631911","0.0-6.0-1.16","2623389","co39040","norming","","","","","","",""
"4501.1250000006985","","","post_mooney1_questions","survey-likert","120","636415","0.0-6.0-2.16","2623389","co39040","norming","","","{""curiosity"":1,""confidence"":1}","[0,1]","../img/tt/1130tt.jpg","",""
"2670.2999999998137","","","recognition","survey-text","121","639087","0.0-6.0-3.16","2623389","co39040","norming","","","{""guess"":""wielrenner""}","","../img/tt/1130tt.jpg","",""
"null","../img/gs/1130gs.jpg","null","reveal","image-keyboard-response","122","641091","0.0-6.0-4.16","2623389","co39040","norming","","","","","","",""
"null","../img/tt/1130tt.jpg","null","mooney2","image-keyboard-response","123","643095","0.0-6.0-5.16","2623389","co39040","norming","","","","","","",""
"2758.0049999996554","","","post_reveal_questions","survey-likert","124","645855","0.0-6.0-6.16","2623389","co39040","norming","","","{""aha"":2}","[0]","../img/tt/1130tt.jpg","",""
"null","<div style=""font-size:60px;""> </div>","null","fixation","html-keyboard-response","125","646060","0.0-6.0-0.17","2623389","co39040","norming","","","","","","",""
"null","../img/tt/056tt.jpg","null","mooney1","image-keyboard-response","126","649067","0.0-6.0-1.17","2623389","co39040","norming","","","","","","",""
"3257.1900000002934","","","post_mooney1_questions","survey-likert","127","652327","0.0-6.0-2.17","2623389","co39040","norming","","","{""curiosity"":0,""confidence"":0}","[0,1]","../img/tt/056tt.jpg","",""
"1054.0999999993946","","","recognition","survey-text","128","653383","0.0-6.0-3.17","2623389","co39040","norming","","","{""guess"":""""}","","../img/tt/056tt.jpg","",""
"null","../img/gs/056gs.jpg","null","reveal","image-keyboard-response","129","655393","0.0-6.0-4.17","2623389","co39040","norming","","","","","","",""
"null","../img/tt/056tt.jpg","null","mooney2","image-keyboard-response","130","657402","0.0-6.0-5.17","2623389","co39040","norming","","","","","","",""
"2883.155000001425","","","post_reveal_questions","survey-likert","131","660287","0.0-6.0-6.17","2623389","co39040","norming","","","{""aha"":0}","[0]","../img/tt/056tt.jpg","",""
"null","<div style=""font-size:60px;""> </div>","null","fixation","html-keyboard-response","132","660490","0.0-6.0-0.18","2623389","co39040","norming","","","","","","",""
"null","../img/tt/378tt.jpg","null","mooney1","image-keyboard-response","133","663505","0.0-6.0-1.18","2623389","co39040","norming","","","","","","",""
"2951.9499999987893","","","post_mooney1_questions","survey-likert","134","666459","0.0-6.0-2.18","2623389","co39040","norming","","","{""curiosity"":0,""confidence"":0}","[0,1]","../img/tt/378tt.jpg","",""
"2214.119999998715","","","recognition","survey-text","135","668675","0.0-6.0-3.18","2623389","co39040","norming","","","{""guess"":""vogel""}","","../img/tt/378tt.jpg","",""
"null","../img/gs/378gs.jpg","null","reveal","image-keyboard-response","136","670685","0.0-6.0-4.18","2623389","co39040","norming","","","","","","",""
"null","../img/tt/378tt.jpg","null","mooney2","image-keyboard-response","137","672687","0.0-6.0-5.18","2623389","co39040","norming","","","","","","",""
"2921.465000001248","","","post_reveal_questions","survey-likert","138","675611","0.0-6.0-6.18","2623389","co39040","norming","","","{""aha"":0}","[0]","../img/tt/378tt.jpg","",""
"null","<div style=""font-size:60px;""> </div>","null","fixation","html-keyboard-response","139","675817","0.0-6.0-0.19","2623389","co39040","norming","","","","","","",""
"null","../img/tt/1123tt.jpg","null","mooney1","image-keyboard-response","140","678821","0.0-6.0-1.19","2623389","co39040","norming","","","","","","",""
"4979.470000000205","","","post_mooney1_questions","survey-likert","141","683803","0.0-6.0-2.19","2623389","co39040","norming","","","{""curiosity"":0,""confidence"":1}","[0,1]","../img/tt/1123tt.jpg","",""
"2102.2150000007823","","","recognition","survey-text","142","685907","0.0-6.0-3.19","2623389","co39040","norming","","","{""guess"":""basket""}","","../img/tt/1123tt.jpg","",""
"null","../img/gs/1123gs.jpg","null","reveal","image-keyboard-response","143","687909","0.0-6.0-4.19","2623389","co39040","norming","","","","","","",""
"null","../img/tt/1123tt.jpg","null","mooney2","image-keyboard-response","144","689911","0.0-6.0-5.19","2623389","co39040","norming","","","","","","",""
"3673.4550000000745","","","post_reveal_questions","survey-likert","145","693587","0.0-6.0-6.19","2623389","co39040","norming","","","{""aha"":0}","[0]","../img/tt/1123tt.jpg","",""
"null","<div style=""font-size:60px;""> </div>","null","fixation","html-keyboard-response","146","693789","0.0-6.0-0.20","2623389","co39040","norming","","","","","","",""
"null","../img/tt/1055tt.jpg","null","mooney1","image-keyboard-response","147","696796","0.0-6.0-1.20","2623389","co39040","norming","","","","","","",""
"4036.055000000517","","","post_mooney1_questions","survey-likert","148","700835","0.0-6.0-2.20","2623389","co39040","norming","","","{""curiosity"":0,""confidence"":0}","[0,1]","../img/tt/1055tt.jpg","",""
"1982.2149999999674","","","recognition","survey-text","149","702819","0.0-6.0-3.20","2623389","co39040","norming","","","{""guess"":""boot""}","","../img/tt/1055tt.jpg","",""
"null","../img/gs/1055gs.jpg","null","reveal","image-keyboard-response","150","704821","0.0-6.0-4.20","2623389","co39040","norming","","","","","","",""
"null","../img/tt/1055tt.jpg","null","mooney2","image-keyboard-response","151","706831","0.0-6.0-5.20","2623389","co39040","norming","","","","","","",""
"2761.2549999994226","","","post_reveal_questions","survey-likert","152","709595","0.0-6.0-6.20","2623389","co39040","norming","","","{""aha"":0}","[0]","../img/tt/1055tt.jpg","",""
"null","<div style=""font-size:60px;""> </div>","null","fixation","html-keyboard-response","153","709796","0.0-6.0-0.21","2623389","co39040","norming","","","","","","",""
"null","../img/tt/053tt.jpg","null","mooney1","image-keyboard-response","154","712802","0.0-6.0-1.21","2623389","co39040","norming","","","","","","",""
"4222.560000000056","","","post_mooney1_questions","survey-likert","155","717027","0.0-6.0-2.21","2623389","co39040","norming","","","{""curiosity"":0,""confidence"":1}","[0,1]","../img/tt/053tt.jpg","",""
"3038.2749999989755","","","recognition","survey-text","156","720067","0.0-6.0-3.21","2623389","co39040","norming","","","{""guess"":""surfers""}","","../img/tt/053tt.jpg","",""
"null","../img/gs/053gs.jpg","null","reveal","image-keyboard-response","157","722069","0.0-6.0-4.21","2623389","co39040","norming","","","","","","",""
"null","../img/tt/053tt.jpg","null","mooney2","image-keyboard-response","158","724072","0.0-6.0-5.21","2623389","co39040","norming","","","","","","",""
"2273.1499999989755","","","post_reveal_questions","survey-likert","159","726347","0.0-6.0-6.21","2623389","co39040","norming","","","{""aha"":1}","[0]","../img/tt/053tt.jpg","",""
"null","<div style=""font-size:60px;""> </div>","null","fixation","html-keyboard-response","160","726549","0.0-6.0-0.22","2623389","co39040","norming","","","","","","",""
"null","../img/tt/1061tt.jpg","null","mooney1","image-keyboard-response","161","729552","0.0-6.0-1.22","2623389","co39040","norming","","","","","","",""
"4394.690000000992","","","post_mooney1_questions","survey-likert","162","733948","0.0-6.0-2.22","2623389","co39040","norming","","","{""curiosity"":0,""confidence"":1}","[0,1]","../img/tt/1061tt.jpg","",""
"2214.144999999902","","","recognition","survey-text","163","736163","0.0-6.0-3.22","2623389","co39040","norming","","","{""guess"":""mensen""}","","../img/tt/1061tt.jpg","",""
"null","../img/gs/1061gs.jpg","null","reveal","image-keyboard-response","164","738165","0.0-6.0-4.22","2623389","co39040","norming","","","","","","",""
"null","../img/tt/1061tt.jpg","null","mooney2","image-keyboard-response","165","740175","0.0-6.0-5.22","2623389","co39040","norming","","","","","","",""
"2449.500000000582","","","post_reveal_questions","survey-likert","166","742627","0.0-6.0-6.22","2623389","co39040","norming","","","{""aha"":1}","[0]","../img/tt/1061tt.jpg","",""
"null","<div style=""font-size:60px;""> </div>","null","fixation","html-keyboard-response","167","742832","0.0-6.0-0.23","2623389","co39040","norming","","","","","","",""
"null","../img/tt/1199tt.jpg","null","mooney1","image-keyboard-response","168","745836","0.0-6.0-1.23","2623389","co39040","norming","","","","","","",""
"12941.029999999912","","","post_mooney1_questions","survey-likert","169","758779","0.0-6.0-2.23","2623389","co39040","norming","","","{""curiosity"":0,""confidence"":2}","[0,1]","../img/tt/1199tt.jpg","",""
"13414.240000000107","","","recognition","survey-text","170","772195","0.0-6.0-3.23","2623389","co39040","norming","","","{""guess"":""balk meisje""}","","../img/tt/1199tt.jpg","",""
"null","../img/gs/1199gs.jpg","null","reveal","image-keyboard-response","171","774200","0.0-6.0-4.23","2623389","co39040","norming","","","","","","",""
"null","../img/tt/1199tt.jpg","null","mooney2","image-keyboard-response","172","776211","0.0-6.0-5.23","2623389","co39040","norming","","","","","","",""
"3413.984999999171","","","post_reveal_questions","survey-likert","173","779627","0.0-6.0-6.23","2623389","co39040","norming","","","{""aha"":2}","[0]","../img/tt/1199tt.jpg","",""
"null","<div style=""font-size:60px;""> </div>","null","fixation","html-keyboard-response","174","779835","0.0-6.0-0.24","2623389","co39040","norming","","","","","","",""
"null","../img/tt/549tt.jpg","null","mooney1","image-keyboard-response","175","782840","0.0-6.0-1.24","2623389","co39040","norming","","","","","","",""
"3144.674999999581","","","post_mooney1_questions","survey-likert","176","785987","0.0-6.0-2.24","2623389","co39040","norming","","","{""curiosity"":0,""confidence"":0}","[0,1]","../img/tt/549tt.jpg","",""
"1838.5949999992736","","","recognition","survey-text","177","787827","0.0-6.0-3.24","2623389","co39040","norming","","","{""guess"":""""}","","../img/tt/549tt.jpg","",""
"null","../img/gs/549gs.jpg","null","reveal","image-keyboard-response","178","789829","0.0-6.0-4.24","2623389","co39040","norming","","","","","","",""
"null","../img/tt/549tt.jpg","null","mooney2","image-keyboard-response","179","791832","0.0-6.0-5.24","2623389","co39040","norming","","","","","","",""
"1976.5700000007637","","","post_reveal_questions","survey-likert","180","793811","0.0-6.0-6.24","2623389","co39040","norming","","","{""aha"":0}","[0]","../img/tt/549tt.jpg","",""
"null","<div style=""font-size:60px;""> </div>","null","fixation","html-keyboard-response","181","794012","0.0-6.0-0.25","2623389","co39040","norming","","","","","","",""
"null","../img/tt/306tt.jpg","null","mooney1","image-keyboard-response","182","797016","0.0-6.0-1.25","2623389","co39040","norming","","","","","","",""
"5095.585000000894","","","post_mooney1_questions","survey-likert","183","802115","0.0-6.0-2.25","2623389","co39040","norming","","","{""curiosity"":1,""confidence"":2}","[0,1]","../img/tt/306tt.jpg","",""
"2014.1549999989802","","","recognition","survey-text","184","804131","0.0-6.0-3.25","2623389","co39040","norming","","","{""guess"":""kikker""}","","../img/tt/306tt.jpg","",""
"null","../img/gs/306gs.jpg","null","reveal","image-keyboard-response","185","806136","0.0-6.0-4.25","2623389","co39040","norming","","","","","","",""
"null","../img/tt/306tt.jpg","null","mooney2","image-keyboard-response","186","808138","0.0-6.0-5.25","2623389","co39040","norming","","","","","","",""
"2342.1749999998137","","","post_reveal_questions","survey-likert","187","810483","0.0-6.0-6.25","2623389","co39040","norming","","","{""aha"":2}","[0]","../img/tt/306tt.jpg","",""
"null","<div style=""font-size:60px;""> </div>","null","fixation","html-keyboard-response","188","810693","0.0-6.0-0.26","2623389","co39040","norming","","","","","","",""
"null","../img/tt/1027tt.jpg","null","mooney1","image-keyboard-response","189","813702","0.0-6.0-1.26","2623389","co39040","norming","","","","","","",""
"2699.2850000006147","","","post_mooney1_questions","survey-likert","190","816403","0.0-6.0-2.26","2623389","co39040","norming","","","{""curiosity"":1,""confidence"":1}","[0,1]","../img/tt/1027tt.jpg","",""
"1629.9799999996321","","","recognition","survey-text","191","818035","0.0-6.0-3.26","2623389","co39040","norming","","","{""guess"":""koe""}","","../img/tt/1027tt.jpg","",""
"null","../img/gs/1027gs.jpg","null","reveal","image-keyboard-response","192","820043","0.0-6.0-4.26","2623389","co39040","norming","","","","","","",""
"null","../img/tt/1027tt.jpg","null","mooney2","image-keyboard-response","193","822046","0.0-6.0-5.26","2623389","co39040","norming","","","","","","",""
"1706.5499999989988","","","post_reveal_questions","survey-likert","194","823755","0.0-6.0-6.26","2623389","co39040","norming","","","{""aha"":3}","[0]","../img/tt/1027tt.jpg","",""
"null","<div style=""font-size:60px;""> </div>","null","fixation","html-keyboard-response","195","823959","0.0-6.0-0.27","2623389","co39040","norming","","","","","","",""
"null","../img/tt/081tt.jpg","null","mooney1","image-keyboard-response","196","826962","0.0-6.0-1.27","2623389","co39040","norming","","","","","","",""
"4349.829999999143","","","post_mooney1_questions","survey-likert","197","831315","0.0-6.0-2.27","2623389","co39040","norming","","","{""curiosity"":1,""confidence"":1}","[0,1]","../img/tt/081tt.jpg","",""
"1950.5050000007031","","","recognition","survey-text","198","833267","0.0-6.0-3.27","2623389","co39040","norming","","","{""guess"":""kikker""}","","../img/tt/081tt.jpg","",""
"null","../img/gs/081gs.jpg","null","reveal","image-keyboard-response","199","835271","0.0-6.0-4.27","2623389","co39040","norming","","","","","","",""
"null","../img/tt/081tt.jpg","null","mooney2","image-keyboard-response","200","837273","0.0-6.0-5.27","2623389","co39040","norming","","","","","","",""
"2798.9949999991804","","","post_reveal_questions","survey-likert","201","840075","0.0-6.0-6.27","2623389","co39040","norming","","","{""aha"":3}","[0]","../img/tt/081tt.jpg","",""
"null","<div style=""font-size:60px;""> </div>","null","fixation","html-keyboard-response","202","840282","0.0-6.0-0.28","2623389","co39040","norming","","","","","","",""
"null","../img/tt/319tt.jpg","null","mooney1","image-keyboard-response","203","843285","0.0-6.0-1.28","2623389","co39040","norming","","","","","","",""
"4851.179999999702","","","post_mooney1_questions","survey-likert","204","848139","0.0-6.0-2.28","2623389","co39040","norming","","","{""curiosity"":1,""confidence"":4}","[0,1]","../img/tt/319tt.jpg","",""
"2774.1550000009593","","","recognition","survey-text","205","850915","0.0-6.0-3.28","2623389","co39040","norming","","","{""guess"":""2 ezels""}","","../img/tt/319tt.jpg","",""
"null","../img/gs/319gs.jpg","null","reveal","image-keyboard-response","206","852923","0.0-6.0-4.28","2623389","co39040","norming","","","","","","",""
"null","../img/tt/319tt.jpg","null","mooney2","image-keyboard-response","207","854934","0.0-6.0-5.28","2623389","co39040","norming","","","","","","",""
"2898.95500000054","","","post_reveal_questions","survey-likert","208","857835","0.0-6.0-6.28","2623389","co39040","norming","","","{""aha"":4}","[0]","../img/tt/319tt.jpg","",""
"null","<div style=""font-size:60px;""> </div>","null","fixation","html-keyboard-response","209","858041","0.0-6.0-0.29","2623389","co39040","norming","","","","","","",""
"null","../img/tt/1044tt.jpg","null","mooney1","image-keyboard-response","210","861047","0.0-6.0-1.29","2623389","co39040","norming","","","","","","",""
"4656.739999998594","","","post_mooney1_questions","survey-likert","211","865707","0.0-6.0-2.29","2623389","co39040","norming","","","{""curiosity"":1,""confidence"":2}","[0,1]","../img/tt/1044tt.jpg","",""
"3222.030000000843","","","recognition","survey-text","212","868931","0.0-6.0-3.29","2623389","co39040","norming","","","{""guess"":""giraffe""}","","../img/tt/1044tt.jpg","",""
"null","../img/gs/1044gs.jpg","null","reveal","image-keyboard-response","213","870940","0.0-6.0-4.29","2623389","co39040","norming","","","","","","",""
"null","../img/tt/1044tt.jpg","null","mooney2","image-keyboard-response","214","872942","0.0-6.0-5.29","2623389","co39040","norming","","","","","","",""
"15266.190000000293","","","post_reveal_questions","survey-likert","215","888211","0.0-6.0-6.29","2623389","co39040","norming","","","{""aha"":3}","[0]","../img/tt/1044tt.jpg","",""
"null","<div style=""font-size:60px;""> </div>","null","fixation","html-keyboard-response","216","888420","0.0-6.0-0.30","2623389","co39040","norming","","","","","","",""
"null","../img/tt/1272tt.jpg","null","mooney1","image-keyboard-response","217","891430","0.0-6.0-1.30","2623389","co39040","norming","","","","","","",""
"3458.7899999987567","","","post_mooney1_questions","survey-likert","218","894891","0.0-6.0-2.30","2623389","co39040","norming","","","{""curiosity"":1,""confidence"":0}","[0,1]","../img/tt/1272tt.jpg","",""
"4070.0849999993807","","","recognition","survey-text","219","898963","0.0-6.0-3.30","2623389","co39040","norming","","","{""guess"":""krokodil""}","","../img/tt/1272tt.jpg","",""
"null","../img/gs/1272gs.jpg","null","reveal","image-keyboard-response","220","900974","0.0-6.0-4.30","2623389","co39040","norming","","","","","","",""
"null","../img/tt/1272tt.jpg","null","mooney2","image-keyboard-response","221","902982","0.0-6.0-5.30","2623389","co39040","norming","","","","","","",""
"4490.425000000047","","","post_reveal_questions","survey-likert","222","907476","0.0-6.0-6.30","2623389","co39040","norming","","","{""aha"":1}","[0]","../img/tt/1272tt.jpg","",""
"null","<div style=""font-size:60px;""> </div>","null","fixation","html-keyboard-response","223","907680","0.0-6.0-0.31","2623389","co39040","norming","","","","","","",""
"null","../img/tt/315tt.jpg","null","mooney1","image-keyboard-response","224","910690","0.0-6.0-1.31","2623389","co39040","norming","","","","","","",""
"5431.594999999972","","","post_mooney1_questions","survey-likert","225","916124","0.0-6.0-2.31","2623389","co39040","norming","","","{""curiosity"":1,""confidence"":1}","[0,1]","../img/tt/315tt.jpg","",""
"3126.079999999958","","","recognition","survey-text","226","919252","0.0-6.0-3.31","2623389","co39040","norming","","","{""guess"":""vogel""}","","../img/tt/315tt.jpg","",""
"null","../img/gs/315gs.jpg","null","reveal","image-keyboard-response","227","921257","0.0-6.0-4.31","2623389","co39040","norming","","","","","","",""
"null","../img/tt/315tt.jpg","null","mooney2","image-keyboard-response","228","923258","0.0-6.0-5.31","2623389","co39040","norming","","","","","","",""
"2105.604999998817","","","post_reveal_questions","survey-likert","229","925364","0.0-6.0-6.31","2623389","co39040","norming","","","{""aha"":1}","[0]","../img/tt/315tt.jpg","",""
"null","<div style=""font-size:60px;""> </div>","null","fixation","html-keyboard-response","230","925567","0.0-6.0-0.32","2623389","co39040","norming","","","","","","",""
"null","../img/tt/1211tt.jpg","null","mooney1","image-keyboard-response","231","928568","0.0-6.0-1.32","2623389","co39040","norming","","","","","","",""
"4346.749999998836","","","post_mooney1_questions","survey-likert","232","932916","0.0-6.0-2.32","2623389","co39040","norming","","","{""curiosity"":0,""confidence"":0}","[0,1]","../img/tt/1211tt.jpg","",""
"861.609999999986","","","recognition","survey-text","233","933780","0.0-6.0-3.32","2623389","co39040","norming","","","{""guess"":""""}","","../img/tt/1211tt.jpg","",""
"null","../img/gs/1211gs.jpg","null","reveal","image-keyboard-response","234","935788","0.0-6.0-4.32","2623389","co39040","norming","","","","","","",""
"null","../img/tt/1211tt.jpg","null","mooney2","image-keyboard-response","235","937790","0.0-6.0-5.32","2623389","co39040","norming","","","","","","",""
"2597.1649999992223","","","post_reveal_questions","survey-likert","236","940388","0.0-6.0-6.32","2623389","co39040","norming","","","{""aha"":0}","[0]","../img/tt/1211tt.jpg","",""
"null","<div style=""font-size:60px;""> </div>","null","fixation","html-keyboard-response","237","940590","0.0-6.0-0.33","2623389","co39040","norming","","","","","","",""
"null","../img/tt/112tt.jpg","null","mooney1","image-keyboard-response","238","943595","0.0-6.0-1.33","2623389","co39040","norming","","","","","","",""
"5488.509999999194","","","post_mooney1_questions","survey-likert","239","949084","0.0-6.0-2.33","2623389","co39040","norming","","","{""curiosity"":1,""confidence"":0}","[0,1]","../img/tt/112tt.jpg","",""
"1606.2750000001397","","","recognition","survey-text","240","950693","0.0-6.0-3.33","2623389","co39040","norming","","","{""guess"":""mes""}","","../img/tt/112tt.jpg","",""
"null","../img/gs/112gs.jpg","null","reveal","image-keyboard-response","241","952699","0.0-6.0-4.33","2623389","co39040","norming","","","","","","",""
"null","../img/tt/112tt.jpg","null","mooney2","image-keyboard-response","242","954708","0.0-6.0-5.33","2623389","co39040","norming","","","","","","",""
"3206.694999998901","","","post_reveal_questions","survey-likert","243","957916","0.0-6.0-6.33","2623389","co39040","norming","","","{""aha"":0}","[0]","../img/tt/112tt.jpg","",""
"null","<div style=""font-size:60px;""> </div>","null","fixation","html-keyboard-response","244","958123","0.0-6.0-0.34","2623389","co39040","norming","","","","","","",""
"null","../img/tt/1189tt.jpg","null","mooney1","image-keyboard-response","245","961126","0.0-6.0-1.34","2623389","co39040","norming","","","","","","",""
"3883.6749999991152","","","post_mooney1_questions","survey-likert","246","965012","0.0-6.0-2.34","2623389","co39040","norming","","","{""curiosity"":0,""confidence"":0}","[0,1]","../img/tt/1189tt.jpg","",""
"3214.3049999995856","","","recognition","survey-text","247","968225","0.0-6.0-3.34","2623389","co39040","norming","","","{""guess"":""zwemmer""}","","../img/tt/1189tt.jpg","",""
"null","../img/gs/1189gs.jpg","null","reveal","image-keyboard-response","248","970229","0.0-6.0-4.34","2623389","co39040","norming","","","","","","",""
"null","../img/tt/1189tt.jpg","null","mooney2","image-keyboard-response","249","972237","0.0-6.0-5.34","2623389","co39040","norming","","","","","","",""
"2450.3100000001723","","","post_reveal_questions","survey-likert","250","974689","0.0-6.0-6.34","2623389","co39040","norming","","","{""aha"":1}","[0]","../img/tt/1189tt.jpg","",""
"null","<div style=""font-size:60px;""> </div>","null","fixation","html-keyboard-response","251","974893","0.0-6.0-0.35","2623389","co39040","norming","","","","","","",""
"null","../img/tt/1261tt.jpg","null","mooney1","image-keyboard-response","252","977903","0.0-6.0-1.35","2623389","co39040","norming","","","","","","",""
"3246.5449999999255","","","post_mooney1_questions","survey-likert","253","981153","0.0-6.0-2.35","2623389","co39040","norming","","","{""curiosity"":1,""confidence"":1}","[0,1]","../img/tt/1261tt.jpg","",""
"2286.09499999939","","","recognition","survey-text","254","983440","0.0-6.0-3.35","2623389","co39040","norming","","","{""guess"":""geiten""}","","../img/tt/1261tt.jpg","",""
"null","../img/gs/1261gs.jpg","null","reveal","image-keyboard-response","255","985444","0.0-6.0-4.35","2623389","co39040","norming","","","","","","",""
"null","../img/tt/1261tt.jpg","null","mooney2","image-keyboard-response","256","987454","0.0-6.0-5.35","2623389","co39040","norming","","","","","","",""
"2119.8850000001257","","","post_reveal_questions","survey-likert","257","989576","0.0-6.0-6.35","2623389","co39040","norming","","","{""aha"":1}","[0]","../img/tt/1261tt.jpg","",""
"null","<div style=""font-size:60px;""> </div>","null","fixation","html-keyboard-response","258","989781","0.0-6.0-0.36","2623389","co39040","norming","","","","","","",""
"null","../img/tt/1070tt.jpg","null","mooney1","image-keyboard-response","259","992791","0.0-6.0-1.36","2623389","co39040","norming","","","","","","",""
"4086.4249999994645","","","post_mooney1_questions","survey-likert","260","996881","0.0-6.0-2.36","2623389","co39040","norming","","","{""curiosity"":0,""confidence"":1}","[0,1]","../img/tt/1070tt.jpg","",""
"2701.670000000391","","","recognition","survey-text","261","999584","0.0-6.0-3.36","2623389","co39040","norming","","","{""guess"":""taart""}","","../img/tt/1070tt.jpg","",""
"null","../img/gs/1070gs.jpg","null","reveal","image-keyboard-response","262","1001593","0.0-6.0-4.36","2623389","co39040","norming","","","","","","",""
"null","../img/tt/1070tt.jpg","null","mooney2","image-keyboard-response","263","1003596","0.0-6.0-5.36","2623389","co39040","norming","","","","","","",""
"2500.1749999992317","","","post_reveal_questions","survey-likert","264","1006097","0.0-6.0-6.36","2623389","co39040","norming","","","{""aha"":3}","[0]","../img/tt/1070tt.jpg","",""
"null","<div style=""font-size:60px;""> </div>","null","fixation","html-keyboard-response","265","1006301","0.0-6.0-0.37","2623389","co39040","norming","","","","","","",""
"null","../img/tt/318tt.jpg","null","mooney1","image-keyboard-response","266","1009312","0.0-6.0-1.37","2623389","co39040","norming","","","","","","",""
"3181.3300000012387","","","post_mooney1_questions","survey-likert","267","1012497","0.0-6.0-2.37","2623389","co39040","norming","","","{""curiosity"":0,""confidence"":0}","[0,1]","../img/tt/318tt.jpg","",""
"813.8449999988079","","","recognition","survey-text","268","1013312","0.0-6.0-3.37","2623389","co39040","norming","","","{""guess"":""""}","","../img/tt/318tt.jpg","",""
"null","../img/gs/318gs.jpg","null","reveal","image-keyboard-response","269","1015315","0.0-6.0-4.37","2623389","co39040","norming","","","","","","",""
"null","../img/tt/318tt.jpg","null","mooney2","image-keyboard-response","270","1017326","0.0-6.0-5.37","2623389","co39040","norming","","","","","","",""
"2199.814999999944","","","post_reveal_questions","survey-likert","271","1019529","0.0-6.0-6.37","2623389","co39040","norming","","","{""aha"":1}","[0]","../img/tt/318tt.jpg","",""
"null","<div style=""font-size:60px;""> </div>","null","fixation","html-keyboard-response","272","1019731","0.0-6.0-0.38","2623389","co39040","norming","","","","","","",""
"null","../img/tt/1161tt.jpg","null","mooney1","image-keyboard-response","273","1022738","0.0-6.0-1.38","2623389","co39040","norming","","","","","","",""
"3043.465000000666","","","post_mooney1_questions","survey-likert","274","1025785","0.0-6.0-2.38","2623389","co39040","norming","","","{""curiosity"":0,""confidence"":0}","[0,1]","../img/tt/1161tt.jpg","",""
"957.9649999996182","","","recognition","survey-text","275","1026748","0.0-6.0-3.38","2623389","co39040","norming","","","{""guess"":""""}","","../img/tt/1161tt.jpg","",""
"null","../img/gs/1161gs.jpg","null","reveal","image-keyboard-response","276","1028751","0.0-6.0-4.38","2623389","co39040","norming","","","","","","",""
"null","../img/tt/1161tt.jpg","null","mooney2","image-keyboard-response","277","1030754","0.0-6.0-5.38","2623389","co39040","norming","","","","","","",""
"2214.7599999989616","","","post_reveal_questions","survey-likert","278","1032972","0.0-6.0-6.38","2623389","co39040","norming","","","{""aha"":0}","[0]","../img/tt/1161tt.jpg","",""
"null","<div style=""font-size:60px;""> </div>","null","fixation","html-keyboard-response","279","1033181","0.0-6.0-0.39","2623389","co39040","norming","","","","","","",""
"null","../img/tt/1154tt.jpg","null","mooney1","image-keyboard-response","280","1036192","0.0-6.0-1.39","2623389","co39040","norming","","","","","","",""
"4440.690000001225","","","post_mooney1_questions","survey-likert","281","1040636","0.0-6.0-2.39","2623389","co39040","norming","","","{""curiosity"":0,""confidence"":0}","[0,1]","../img/tt/1154tt.jpg","",""
"2006.1949999999488","","","recognition","survey-text","282","1042644","0.0-6.0-3.39","2623389","co39040","norming","","","{""guess"":""water""}","","../img/tt/1154tt.jpg","",""
"null","../img/gs/1154gs.jpg","null","reveal","image-keyboard-response","283","1044647","0.0-6.0-4.39","2623389","co39040","norming","","","","","","",""
"null","../img/tt/1154tt.jpg","null","mooney2","image-keyboard-response","284","1046649","0.0-6.0-5.39","2623389","co39040","norming","","","","","","",""
"2735.394999999786","","","post_reveal_questions","survey-likert","285","1049388","0.0-6.0-6.39","2623389","co39040","norming","","","{""aha"":1}","[0]","../img/tt/1154tt.jpg","",""
"null","<div style=""font-size:60px;""> </div>","null","fixation","html-keyboard-response","286","1049589","0.0-6.0-0.40","2623389","co39040","norming","","","","","","",""
"null","../img/tt/031tt.jpg","null","mooney1","image-keyboard-response","287","1052590","0.0-6.0-1.40","2623389","co39040","norming","","","","","","",""
"3914.5599999991246","","","post_mooney1_questions","survey-likert","288","1056508","0.0-6.0-2.40","2623389","co39040","norming","","","{""curiosity"":1,""confidence"":2}","[0,1]","../img/tt/031tt.jpg","",""
"1573.9100000010803","","","recognition","survey-text","289","1058084","0.0-6.0-3.40","2623389","co39040","norming","","","{""guess"":""beer""}","","../img/tt/031tt.jpg","",""
"null","../img/gs/031gs.jpg","null","reveal","image-keyboard-response","290","1060089","0.0-6.0-4.40","2623389","co39040","norming","","","","","","",""
"null","../img/tt/031tt.jpg","null","mooney2","image-keyboard-response","291","1062099","0.0-6.0-5.40","2623389","co39040","norming","","","","","","",""
"2510.0750000001863","","","post_reveal_questions","survey-likert","292","1064612","0.0-6.0-6.40","2623389","co39040","norming","","","{""aha"":1}","[0]","../img/tt/031tt.jpg","",""
"null","<div style=""font-size:60px;""> </div>","null","fixation","html-keyboard-response","293","1064813","0.0-6.0-0.41","2623389","co39040","norming","","","","","","",""
"null","../img/tt/091tt.jpg","null","mooney1","image-keyboard-response","294","1067817","0.0-6.0-1.41","2623389","co39040","norming","","","","","","",""
"5015.944999999134","","","post_mooney1_questions","survey-likert","295","1072836","0.0-6.0-2.41","2623389","co39040","norming","","","{""curiosity"":0,""confidence"":0}","[0,1]","../img/tt/091tt.jpg","",""
"518.2249999998603","","","recognition","survey-text","296","1073356","0.0-6.0-3.41","2623389","co39040","norming","","","{""guess"":""""}","","../img/tt/091tt.jpg","",""
"null","../img/gs/091gs.jpg","null","reveal","image-keyboard-response","297","1075365","0.0-6.0-4.41","2623389","co39040","norming","","","","","","",""
"null","../img/tt/091tt.jpg","null","mooney2","image-keyboard-response","298","1077373","0.0-6.0-5.41","2623389","co39040","norming","","","","","","",""
"2227.6299999994226","","","post_reveal_questions","survey-likert","299","1079603","0.0-6.0-6.41","2623389","co39040","norming","","","{""aha"":0}","[0]","../img/tt/091tt.jpg","",""
"null","<div style=""font-size:60px;""> </div>","null","fixation","html-keyboard-response","300","1079808","0.0-6.0-0.42","2623389","co39040","norming","","","","","","",""
"null","../img/tt/1101tt.jpg","null","mooney1","image-keyboard-response","301","1082813","0.0-6.0-1.42","2623389","co39040","norming","","","","","","",""
"3859.999999998603","","","post_mooney1_questions","survey-likert","302","1086679","0.0-6.0-2.42","2623389","co39040","norming","","","{""curiosity"":1,""confidence"":1}","[0,1]","../img/tt/1101tt.jpg","",""
"1774.0900000007823","","","recognition","survey-text","303","1088455","0.0-6.0-3.42","2623389","co39040","norming","","","{""guess"":""persoon""}","","../img/tt/1101tt.jpg","",""
"null","../img/gs/1101gs.jpg","null","reveal","image-keyboard-response","304","1090463","0.0-6.0-4.42","2623389","co39040","norming","","","","","","",""
"null","../img/tt/1101tt.jpg","null","mooney2","image-keyboard-response","305","1092473","0.0-6.0-5.42","2623389","co39040","norming","","","","","","",""
"3000.985000000568","","","post_reveal_questions","survey-likert","306","1095479","0.0-6.0-6.42","2623389","co39040","norming","","","{""aha"":1}","[0]","../img/tt/1101tt.jpg","",""
"null","<div style=""font-size:60px;""> </div>","null","fixation","html-keyboard-response","307","1095686","0.0-6.0-0.43","2623389","co39040","norming","","","","","","",""
"null","../img/tt/1275tt.jpg","null","mooney1","image-keyboard-response","308","1098688","0.0-6.0-1.43","2623389","co39040","norming","","","","","","",""
"3828.429999999469","","","post_mooney1_questions","survey-likert","309","1102519","0.0-6.0-2.43","2623389","co39040","norming","","","{""curiosity"":1,""confidence"":0}","[0,1]","../img/tt/1275tt.jpg","",""
"2734.3300000012387","","","recognition","survey-text","310","1105255","0.0-6.0-3.43","2623389","co39040","norming","","","{""guess"":""boom""}","","../img/tt/1275tt.jpg","",""
"null","../img/gs/1275gs.jpg","null","reveal","image-keyboard-response","311","1107265","0.0-6.0-4.43","2623389","co39040","norming","","","","","","",""
"null","../img/tt/1275tt.jpg","null","mooney2","image-keyboard-response","312","1109274","0.0-6.0-5.43","2623389","co39040","norming","","","","","","",""
"2578.3349999999627","","","post_reveal_questions","survey-likert","313","1111855","0.0-6.0-6.43","2623389","co39040","norming","","","{""aha"":0}","[0]","../img/tt/1275tt.jpg","",""
"null","<div style=""font-size:60px;""> </div>","null","fixation","html-keyboard-response","314","1112063","0.0-6.0-0.44","2623389","co39040","norming","","","","","","",""
"null","../img/tt/1254tt.jpg","null","mooney1","image-keyboard-response","315","1115076","0.0-6.0-1.44","2623389","co39040","norming","","","","","","",""
"2904.414999999106","","","post_mooney1_questions","survey-likert","316","1117983","0.0-6.0-2.44","2623389","co39040","norming","","","{""curiosity"":0,""confidence"":0}","[0,1]","../img/tt/1254tt.jpg","",""
"734.0750000001863","","","recognition","survey-text","317","1118719","0.0-6.0-3.44","2623389","co39040","norming","","","{""guess"":""""}","","../img/tt/1254tt.jpg","",""
"null","../img/gs/1254gs.jpg","null","reveal","image-keyboard-response","318","1120724","0.0-6.0-4.44","2623389","co39040","norming","","","","","","",""
"null","../img/tt/1254tt.jpg","null","mooney2","image-keyboard-response","319","1122735","0.0-6.0-5.44","2623389","co39040","norming","","","","","","",""
"2156.880000000354","","","post_reveal_questions","survey-likert","320","1124895","0.0-6.0-6.44","2623389","co39040","norming","","","{""aha"":0}","[0]","../img/tt/1254tt.jpg","",""
"null","<div style=""font-size:60px;""> </div>","null","fixation","html-keyboard-response","321","1125100","0.0-6.0-0.45","2623389","co39040","norming","","","","","","",""
"null","../img/tt/1270tt.jpg","null","mooney1","image-keyboard-response","322","1128103","0.0-6.0-1.45","2623389","co39040","norming","","","","","","",""
"3901.045000000624","","","post_mooney1_questions","survey-likert","323","1132007","0.0-6.0-2.45","2623389","co39040","norming","","","{""curiosity"":0,""confidence"":0}","[0,1]","../img/tt/1270tt.jpg","",""
"1022.0349999999162","","","recognition","survey-text","324","1133031","0.0-6.0-3.45","2623389","co39040","norming","","","{""guess"":""""}","","../img/tt/1270tt.jpg","",""
"null","../img/gs/1270gs.jpg","null","reveal","image-keyboard-response","325","1135032","0.0-6.0-4.45","2623389","co39040","norming","","","","","","",""
"null","../img/tt/1270tt.jpg","null","mooney2","image-keyboard-response","326","1137039","0.0-6.0-5.45","2623389","co39040","norming","","","","","","",""
"2189.005000000121","","","post_reveal_questions","survey-likert","327","1139231","0.0-6.0-6.45","2623389","co39040","norming","","","{""aha"":0}","[0]","../img/tt/1270tt.jpg","",""
"null","<div style=""font-size:60px;""> </div>","null","fixation","html-keyboard-response","328","1139433","0.0-6.0-0.46","2623389","co39040","norming","","","","","","",""
"null","../img/tt/584tt.jpg","null","mooney1","image-keyboard-response","329","1142442","0.0-6.0-1.46","2623389","co39040","norming","","","","","","",""
"6209.704999999143","","","post_mooney1_questions","survey-likert","330","1148648","0.0-6.0-2.46","2623389","co39040","norming","","","{""curiosity"":0,""confidence"":1}","[0,1]","../img/tt/584tt.jpg","",""
"3862.034999999916","","","recognition","survey-text","331","1152512","0.0-6.0-3.46","2623389","co39040","norming","","","{""guess"":""handen""}","","../img/tt/584tt.jpg","",""
"null","../img/gs/584gs.jpg","null","reveal","image-keyboard-response","332","1154518","0.0-6.0-4.46","2623389","co39040","norming","","","","","","",""
"null","../img/tt/584tt.jpg","null","mooney2","image-keyboard-response","333","1156521","0.0-6.0-5.46","2623389","co39040","norming","","","","","","",""
"13836.76000000001","","","post_reveal_questions","survey-likert","334","1170360","0.0-6.0-6.46","2623389","co39040","norming","","","{""aha"":0}","[0]","../img/tt/584tt.jpg","",""
"null","<div style=""font-size:60px;""> </div>","null","fixation","html-keyboard-response","335","1170564","0.0-6.0-0.47","2623389","co39040","norming","","","","","","",""
"null","../img/tt/517tt.jpg","null","mooney1","image-keyboard-response","336","1173571","0.0-6.0-1.47","2623389","co39040","norming","","","","","","",""
"3580.4500000011176","","","post_mooney1_questions","survey-likert","337","1177152","0.0-6.0-2.47","2623389","co39040","norming","","","{""curiosity"":1,""confidence"":1}","[0,1]","../img/tt/517tt.jpg","",""
"5997.685000000289","","","recognition","survey-text","338","1183152","0.0-6.0-3.47","2623389","co39040","norming","","","{""guess"":""wasbeer boom""}","","../img/tt/517tt.jpg","",""
"null","../img/gs/517gs.jpg","null","reveal","image-keyboard-response","339","1185159","0.0-6.0-4.47","2623389","co39040","norming","","","","","","",""
"null","../img/tt/517tt.jpg","null","mooney2","image-keyboard-response","340","1187165","0.0-6.0-5.47","2623389","co39040","norming","","","","","","",""
"3216.0000000004657","","","post_reveal_questions","survey-likert","341","1190384","0.0-6.0-6.47","2623389","co39040","norming","","","{""aha"":2}","[0]","../img/tt/517tt.jpg","",""
"null","<div style=""font-size:60px;""> </div>","null","fixation","html-keyboard-response","342","1190594","0.0-6.0-0.48","2623389","co39040","norming","","","","","","",""
"null","../img/tt/1279tt.jpg","null","mooney1","image-keyboard-response","343","1193598","0.0-6.0-1.48","2623389","co39040","norming","","","","","","",""
"4817.245000000112","","","post_mooney1_questions","survey-likert","344","1198416","0.0-6.0-2.48","2623389","co39040","norming","","","{""curiosity"":1,""confidence"":0}","[0,1]","../img/tt/1279tt.jpg","",""
"758.0049999996554","","","recognition","survey-text","345","1199176","0.0-6.0-3.48","2623389","co39040","norming","","","{""guess"":""""}","","../img/tt/1279tt.jpg","",""
"null","../img/gs/1279gs.jpg","null","reveal","image-keyboard-response","346","1201182","0.0-6.0-4.48","2623389","co39040","norming","","","","","","",""
"null","../img/tt/1279tt.jpg","null","mooney2","image-keyboard-response","347","1203184","0.0-6.0-5.48","2623389","co39040","norming","","","","","","",""
"2214.0749999999534","","","post_reveal_questions","survey-likert","348","1205400","0.0-6.0-6.48","2623389","co39040","norming","","","{""aha"":0}","[0]","../img/tt/1279tt.jpg","",""
"null","<div style=""font-size:60px;""> </div>","null","fixation","html-keyboard-response","349","1205605","0.0-6.0-0.49","2623389","co39040","norming","","","","","","",""
"null","../img/tt/1181tt.jpg","null","mooney1","image-keyboard-response","350","1208616","0.0-6.0-1.49","2623389","co39040","norming","","","","","","",""
"4084.1500000006054","","","post_mooney1_questions","survey-likert","351","1212704","0.0-6.0-2.49","2623389","co39040","norming","","","{""curiosity"":1,""confidence"":1}","[0,1]","../img/tt/1181tt.jpg","",""
"3366.1399999998976","","","recognition","survey-text","352","1216072","0.0-6.0-3.49","2623389","co39040","norming","","","{""guess"":""2 mensen""}","","../img/tt/1181tt.jpg","",""
"null","../img/gs/1181gs.jpg","null","reveal","image-keyboard-response","353","1218073","0.0-6.0-4.49","2623389","co39040","norming","","","","","","",""
"null","../img/tt/1181tt.jpg","null","mooney2","image-keyboard-response","354","1220075","0.0-6.0-5.49","2623389","co39040","norming","","","","","","",""
"4602.310000000056","","","post_reveal_questions","survey-likert","355","1224680","0.0-6.0-6.49","2623389","co39040","norming","","","{""aha"":0}","[0]","../img/tt/1181tt.jpg","",""
"null","<div style=""font-size:60px;""> </div>","null","fixation","html-keyboard-response","356","1224883","0.0-6.0-0.50","2623389","co39040","norming","","","","","","",""
"null","../img/tt/1043tt.jpg","null","mooney1","image-keyboard-response","357","1227891","0.0-6.0-1.50","2623389","co39040","norming","","","","","","",""
"2945.4650000005495","","","post_mooney1_questions","survey-likert","358","1230840","0.0-6.0-2.50","2623389","co39040","norming","","","{""curiosity"":0,""confidence"":0}","[0,1]","../img/tt/1043tt.jpg","",""
"918.0899999991525","","","recognition","survey-text","359","1231760","0.0-6.0-3.50","2623389","co39040","norming","","","{""guess"":""""}","","../img/tt/1043tt.jpg","",""
"null","../img/gs/1043gs.jpg","null","reveal","image-keyboard-response","360","1233771","0.0-6.0-4.50","2623389","co39040","norming","","","","","","",""
"null","../img/tt/1043tt.jpg","null","mooney2","image-keyboard-response","361","1235775","0.0-6.0-5.50","2623389","co39040","norming","","","","","","",""
"1822.3500000005588","","","post_reveal_questions","survey-likert","362","1237600","0.0-6.0-6.50","2623389","co39040","norming","","","{""aha"":0}","[0]","../img/tt/1043tt.jpg","",""
"null","<div style=""font-size:60px;""> </div>","null","fixation","html-keyboard-response","363","1237805","0.0-6.0-0.51","2623389","co39040","norming","","","","","","",""
"null","../img/tt/010tt.jpg","null","mooney1","image-keyboard-response","364","1240810","0.0-6.0-1.51","2623389","co39040","norming","","","","","","",""
"4811.120000000345","","","post_mooney1_questions","survey-likert","365","1245624","0.0-6.0-2.51","2623389","co39040","norming","","","{""curiosity"":0,""confidence"":0}","[0,1]","../img/tt/010tt.jpg","",""
"1174.1000000000931","","","recognition","survey-text","366","1246800","0.0-6.0-3.51","2623389","co39040","norming","","","{""guess"":""""}","","../img/tt/010tt.jpg","",""
"null","../img/gs/010gs.jpg","null","reveal","image-keyboard-response","367","1248809","0.0-6.0-4.51","2623389","co39040","norming","","","","","","",""
"null","../img/tt/010tt.jpg","null","mooney2","image-keyboard-response","368","1250817","0.0-6.0-5.51","2623389","co39040","norming","","","","","","",""
"2772.1700000001583","","","post_reveal_questions","survey-likert","369","1253592","0.0-6.0-6.51","2623389","co39040","norming","","","{""aha"":3}","[0]","../img/tt/010tt.jpg","",""
"null","<div style=""font-size:60px;""> </div>","null","fixation","html-keyboard-response","370","1253799","0.0-6.0-0.52","2623389","co39040","norming","","","","","","",""
"null","../img/tt/438tt.jpg","null","mooney1","image-keyboard-response","371","1256810","0.0-6.0-1.52","2623389","co39040","norming","","","","","","",""
"3354.3449999997392","","","post_mooney1_questions","survey-likert","372","1260168","0.0-6.0-2.52","2623389","co39040","norming","","","{""curiosity"":0,""confidence"":1}","[0,1]","../img/tt/438tt.jpg","",""
"2477.965000000084","","","recognition","survey-text","373","1262648","0.0-6.0-3.52","2623389","co39040","norming","","","{""guess"":""vlinder""}","","../img/tt/438tt.jpg","",""
"null","../img/gs/438gs.jpg","null","reveal","image-keyboard-response","374","1264650","0.0-6.0-4.52","2623389","co39040","norming","","","","","","",""
"null","../img/tt/438tt.jpg","null","mooney2","image-keyboard-response","375","1266652","0.0-6.0-5.52","2623389","co39040","norming","","","","","","",""
"2345.0699999993667","","","post_reveal_questions","survey-likert","376","1268991","0.0-6.0-6.52","2623389","co39040","norming","","","{""aha"":1}","[0]","../img/tt/438tt.jpg","",""
"null","<div style=""font-size:60px;""> </div>","null","fixation","html-keyboard-response","377","1269202","0.0-6.0-0.53","2623389","co39040","norming","","","","","","",""
"null","../img/tt/1171tt.jpg","null","mooney1","image-keyboard-response","378","1272210","0.0-6.0-1.53","2623389","co39040","norming","","","","","","",""
"3370.0649999992456","","","post_mooney1_questions","survey-likert","379","1275583","0.0-6.0-2.53","2623389","co39040","norming","","","{""curiosity"":0,""confidence"":0}","[0,1]","../img/tt/1171tt.jpg","",""
"726.2900000005029","","","recognition","survey-text","380","1276311","0.0-6.0-3.53","2623389","co39040","norming","","","{""guess"":""""}","","../img/tt/1171tt.jpg","",""
"null","../img/gs/1171gs.jpg","null","reveal","image-keyboard-response","381","1278317","0.0-6.0-4.53","2623389","co39040","norming","","","","","","",""
"null","../img/tt/1171tt.jpg","null","mooney2","image-keyboard-response","382","1280323","0.0-6.0-5.53","2623389","co39040","norming","","","","","","",""
"2329.4700000004377","","","post_reveal_questions","survey-likert","383","1282655","0.0-6.0-6.53","2623389","co39040","norming","","","{""aha"":0}","[0]","../img/tt/1171tt.jpg","",""
"null","<div style=""font-size:60px;""> </div>","null","fixation","html-keyboard-response","384","1282858","0.0-6.0-0.54","2623389","co39040","norming","","","","","","",""
"null","../img/tt/1191tt.jpg","null","mooney1","image-keyboard-response","385","1285869","0.0-6.0-1.54","2623389","co39040","norming","","","","","","",""
"4407.440000000875","","","post_mooney1_questions","survey-likert","386","1290279","0.0-6.0-2.54","2623389","co39040","norming","","","{""curiosity"":1,""confidence"":0}","[0,1]","../img/tt/1191tt.jpg","",""
"1814.1250000006985","","","recognition","survey-text","387","1292095","0.0-6.0-3.54","2623389","co39040","norming","","","{""guess"":""eland""}","","../img/tt/1191tt.jpg","",""
"null","../img/gs/1191gs.jpg","null","reveal","image-keyboard-response","388","1294103","0.0-6.0-4.54","2623389","co39040","norming","","","","","","",""
"null","../img/tt/1191tt.jpg","null","mooney2","image-keyboard-response","389","1296106","0.0-6.0-5.54","2623389","co39040","norming","","","","","","",""
"4498.639999999898","","","post_reveal_questions","survey-likert","390","1300607","0.0-6.0-6.54","2623389","co39040","norming","","","{""aha"":1}","[0]","../img/tt/1191tt.jpg","",""
"null","<div style=""font-size:60px;""> </div>","null","fixation","html-keyboard-response","391","1300811","0.0-6.0-0.55","2623389","co39040","norming","","","","","","",""
"null","../img/tt/123tt.jpg","null","mooney1","image-keyboard-response","392","1303815","0.0-6.0-1.55","2623389","co39040","norming","","","","","","",""
"3100.140000000363","","","post_mooney1_questions","survey-likert","393","1306919","0.0-6.0-2.55","2623389","co39040","norming","","","{""curiosity"":0,""confidence"":0}","[0,1]","../img/tt/123tt.jpg","",""
"1734.2200000004377","","","recognition","survey-text","394","1308655","0.0-6.0-3.55","2623389","co39040","norming","","","{""guess"":""tas""}","","../img/tt/123tt.jpg","",""
"null","../img/gs/123gs.jpg","null","reveal","image-keyboard-response","395","1310660","0.0-6.0-4.55","2623389","co39040","norming","","","","","","",""
"null","../img/tt/123tt.jpg","null","mooney2","image-keyboard-response","396","1312670","0.0-6.0-5.55","2623389","co39040","norming","","","","","","",""
"3302.4650000005495","","","post_reveal_questions","survey-likert","397","1315975","0.0-6.0-6.55","2623389","co39040","norming","","","{""aha"":2}","[0]","../img/tt/123tt.jpg","",""
"null","<div style=""font-size:60px;""> </div>","null","fixation","html-keyboard-response","398","1316181","0.0-6.0-0.56","2623389","co39040","norming","","","","","","",""
"null","../img/tt/1307tt.jpg","null","mooney1","image-keyboard-response","399","1319190","0.0-6.0-1.56","2623389","co39040","norming","","","","","","",""
"3750.219999999972","","","post_mooney1_questions","survey-likert","400","1322943","0.0-6.0-2.56","2623389","co39040","norming","","","{""curiosity"":2,""confidence"":1}","[0,1]","../img/tt/1307tt.jpg","",""
"2078.0450000001583","","","recognition","survey-text","401","1325023","0.0-6.0-3.56","2623389","co39040","norming","","","{""guess"":""molen""}","","../img/tt/1307tt.jpg","",""
"null","../img/gs/1307gs.jpg","null","reveal","image-keyboard-response","402","1327032","0.0-6.0-4.56","2623389","co39040","norming","","","","","","",""
"null","../img/tt/1307tt.jpg","null","mooney2","image-keyboard-response","403","1329050","0.0-6.0-5.56","2623389","co39040","norming","","","","","","",""
"3469.755000000121","","","post_reveal_questions","survey-likert","404","1332521","0.0-6.0-6.56","2623389","co39040","norming","","","{""aha"":2}","[0]","../img/tt/1307tt.jpg","",""
"null","<div style=""font-size:60px;""> </div>","null","fixation","html-keyboard-response","405","1332723","0.0-6.0-0.57","2623389","co39040","norming","","","","","","",""
"null","../img/tt/163tt.jpg","null","mooney1","image-keyboard-response","406","1335733","0.0-6.0-1.57","2623389","co39040","norming","","","","","","",""
"3346.4399999992456","","","post_mooney1_questions","survey-likert","407","1339081","0.0-6.0-2.57","2623389","co39040","norming","","","{""curiosity"":1,""confidence"":0}","[0,1]","../img/tt/163tt.jpg","",""
"1014.2099999992643","","","recognition","survey-text","408","1340097","0.0-6.0-3.57","2623389","co39040","norming","","","{""guess"":""""}","","../img/tt/163tt.jpg","",""
"null","../img/gs/163gs.jpg","null","reveal","image-keyboard-response","409","1342103","0.0-6.0-4.57","2623389","co39040","norming","","","","","","",""
"null","../img/tt/163tt.jpg","null","mooney2","image-keyboard-response","410","1344112","0.0-6.0-5.57","2623389","co39040","norming","","","","","","",""
"6501.51500000013","","","post_reveal_questions","survey-likert","411","1350617","0.0-6.0-6.57","2623389","co39040","norming","","","{""aha"":0}","[0]","../img/tt/163tt.jpg","",""
"null","<div style=""font-size:60px;""> </div>","null","fixation","html-keyboard-response","412","1350824","0.0-6.0-0.58","2623389","co39040","norming","","","","","","",""
"null","../img/tt/1202tt.jpg","null","mooney1","image-keyboard-response","413","1353835","0.0-6.0-1.58","2623389","co39040","norming","","","","","","",""
"3346.4150000000373","","","post_mooney1_questions","survey-likert","414","1357185","0.0-6.0-2.58","2623389","co39040","norming","","","{""curiosity"":0,""confidence"":0}","[0,1]","../img/tt/1202tt.jpg","",""
"654.0050000003539","","","recognition","survey-text","415","1357841","0.0-6.0-3.58","2623389","co39040","norming","","","{""guess"":""""}","","../img/tt/1202tt.jpg","",""
"null","../img/gs/1202gs.jpg","null","reveal","image-keyboard-response","416","1359849","0.0-6.0-4.58","2623389","co39040","norming","","","","","","",""
"null","../img/tt/1202tt.jpg","null","mooney2","image-keyboard-response","417","1361860","0.0-6.0-5.58","2623389","co39040","norming","","","","","","",""
"16818.189999999944","","","post_reveal_questions","survey-likert","418","1378681","0.0-6.0-6.58","2623389","co39040","norming","","","{""aha"":1}","[0]","../img/tt/1202tt.jpg","",""
"null","<div style=""font-size:60px;""> </div>","null","fixation","html-keyboard-response","419","1378890","0.0-6.0-0.59","2623389","co39040","norming","","","","","","",""
"null","../img/tt/1235tt.jpg","null","mooney1","image-keyboard-response","420","1381892","0.0-6.0-1.59","2623389","co39040","norming","","","","","","",""
"3138.0950000004377","","","post_mooney1_questions","survey-likert","421","1385033","0.0-6.0-2.59","2623389","co39040","norming","","","{""curiosity"":1,""confidence"":1}","[0,1]","../img/tt/1235tt.jpg","",""
"2942.114999999758","","","recognition","survey-text","422","1387977","0.0-6.0-3.59","2623389","co39040","norming","","","{""guess"":""struisvogel""}","","../img/tt/1235tt.jpg","",""
"null","../img/gs/1235gs.jpg","null","reveal","image-keyboard-response","423","1389978","0.0-6.0-4.59","2623389","co39040","norming","","","","","","",""
"null","../img/tt/1235tt.jpg","null","mooney2","image-keyboard-response","424","1391981","0.0-6.0-5.59","2623389","co39040","norming","","","","","","",""
"2207.490000000689","","","post_reveal_questions","survey-likert","425","1394193","0.0-6.0-6.59","2623389","co39040","norming","","","{""aha"":1}","[0]","../img/tt/1235tt.jpg","",""
"null","<div style=""font-size:60px;""> </div>","null","fixation","html-keyboard-response","426","1394401","0.0-6.0-0.60","2623389","co39040","norming","","","","","","",""
"null","../img/tt/1247tt.jpg","null","mooney1","image-keyboard-response","427","1397411","0.0-6.0-1.60","2623389","co39040","norming","","","","","","",""
"4547.120000001043","","","post_mooney1_questions","survey-likert","428","1401961","0.0-6.0-2.60","2623389","co39040","norming","","","{""curiosity"":1,""confidence"":1}","[0,1]","../img/tt/1247tt.jpg","",""
"4190.155000000261","","","recognition","survey-text","429","1406153","0.0-6.0-3.60","2623389","co39040","norming","","","{""guess"":""panter tijger""}","","../img/tt/1247tt.jpg","",""
"null","../img/gs/1247gs.jpg","null","reveal","image-keyboard-response","430","1408154","0.0-6.0-4.60","2623389","co39040","norming","","","","","","",""
"null","../img/tt/1247tt.jpg","null","mooney2","image-keyboard-response","431","1410156","0.0-6.0-5.60","2623389","co39040","norming","","","","","","",""
"3113.8099999988917","","","post_reveal_questions","survey-likert","432","1413273","0.0-6.0-6.60","2623389","co39040","norming","","","{""aha"":1}","[0]","../img/tt/1247tt.jpg","",""
"null","<div style=""font-size:60px;""> </div>","null","fixation","html-keyboard-response","433","1413481","0.0-6.0-0.61","2623389","co39040","norming","","","","","","",""
"null","../img/tt/468tt.jpg","null","mooney1","image-keyboard-response","434","1416484","0.0-6.0-1.61","2623389","co39040","norming","","","","","","",""
"4290.175000000047","","","post_mooney1_questions","survey-likert","435","1420777","0.0-6.0-2.61","2623389","co39040","norming","","","{""curiosity"":0,""confidence"":0}","[0,1]","../img/tt/468tt.jpg","",""
"1286.025000001071","","","recognition","survey-text","436","1422065","0.0-6.0-3.61","2623389","co39040","norming","","","{""guess"":""""}","","../img/tt/468tt.jpg","",""
"null","../img/gs/468gs.jpg","null","reveal","image-keyboard-response","437","1424072","0.0-6.0-4.61","2623389","co39040","norming","","","","","","",""
"null","../img/tt/468tt.jpg","null","mooney2","image-keyboard-response","438","1426074","0.0-6.0-5.61","2623389","co39040","norming","","","","","","",""
"1788.9300000006333","","","post_reveal_questions","survey-likert","439","1427865","0.0-6.0-6.61","2623389","co39040","norming","","","{""aha"":1}","[0]","../img/tt/468tt.jpg","",""
"null","<div style=""font-size:60px;""> </div>","null","fixation","html-keyboard-response","440","1428066","0.0-6.0-0.62","2623389","co39040","norming","","","","","","",""
"null","../img/tt/307tt.jpg","null","mooney1","image-keyboard-response","441","1431076","0.0-6.0-1.62","2623389","co39040","norming","","","","","","",""
"3161.8900000012945","","","post_mooney1_questions","survey-likert","442","1434241","0.0-6.0-2.62","2623389","co39040","norming","","","{""curiosity"":1,""confidence"":0}","[0,1]","../img/tt/307tt.jpg","",""
"470.41999999969266","","","recognition","survey-text","443","1434713","0.0-6.0-3.62","2623389","co39040","norming","","","{""guess"":""""}","","../img/tt/307tt.jpg","",""
"null","../img/gs/307gs.jpg","null","reveal","image-keyboard-response","444","1436719","0.0-6.0-4.62","2623389","co39040","norming","","","","","","",""
"null","../img/tt/307tt.jpg","null","mooney2","image-keyboard-response","445","1438727","0.0-6.0-5.62","2623389","co39040","norming","","","","","","",""
"2376.415000000503","","","post_reveal_questions","survey-likert","446","1441105","0.0-6.0-6.62","2623389","co39040","norming","","","{""aha"":0}","[0]","../img/tt/307tt.jpg","",""
"null","<div style=""font-size:60px;""> </div>","null","fixation","html-keyboard-response","447","1441315","0.0-6.0-0.63","2623389","co39040","norming","","","","","","",""
"null","../img/tt/052tt.jpg","null","mooney1","image-keyboard-response","448","1444321","0.0-6.0-1.63","2623389","co39040","norming","","","","","","",""
"3598.9300000001676","","","post_mooney1_questions","survey-likert","449","1447921","0.0-6.0-2.63","2623389","co39040","norming","","","{""curiosity"":1,""confidence"":1}","[0,1]","../img/tt/052tt.jpg","",""
"2342.095000000205","","","recognition","survey-text","450","1450258","0.0-6.0-3.63","2623389","co39040","norming","","","{""guess"":""ring""}","","../img/tt/052tt.jpg","",""
"null","../img/gs/052gs.jpg","null","reveal","image-keyboard-response","451","1452260","0.0-6.0-4.63","2623389","co39040","norming","","","","","","",""
"null","../img/tt/052tt.jpg","null","mooney2","image-keyboard-response","452","1454267","0.0-6.0-5.63","2623389","co39040","norming","","","","","","",""
"2627.614999999525","","","post_reveal_questions","survey-likert","453","1456898","0.0-6.0-6.63","2623389","co39040","norming","","","{""aha"":3}","[0]","../img/tt/052tt.jpg","",""
"null","<div style=""font-size:60px;""> </div>","null","fixation","html-keyboard-response","454","1457100","0.0-6.0-0.64","2623389","co39040","norming","","","","","","",""
"null","../img/tt/1126tt.jpg","null","mooney1","image-keyboard-response","455","1460104","0.0-6.0-1.64","2623389","co39040","norming","","","","","","",""
"4397.150000000605","","","post_mooney1_questions","survey-likert","456","1464506","0.0-6.0-2.64","2623389","co39040","norming","","","{""curiosity"":1,""confidence"":0}","[0,1]","../img/tt/1126tt.jpg","",""
"870.1549999988638","","","recognition","survey-text","457","1465378","0.0-6.0-3.64","2623389","co39040","norming","","","{""guess"":""""}","","../img/tt/1126tt.jpg","",""
"null","../img/gs/1126gs.jpg","null","reveal","image-keyboard-response","458","1467385","0.0-6.0-4.64","2623389","co39040","norming","","","","","","",""
"null","../img/tt/1126tt.jpg","null","mooney2","image-keyboard-response","459","1469395","0.0-6.0-5.64","2623389","co39040","norming","","","","","","",""
"3748.3950000004843","","","post_reveal_questions","survey-likert","460","1473146","0.0-6.0-6.64","2623389","co39040","norming","","","{""aha"":0}","[0]","../img/tt/1126tt.jpg","",""
"null","<div style=""font-size:60px;""> </div>","null","fixation","html-keyboard-response","461","1473353","0.0-6.0-0.65","2623389","co39040","norming","","","","","","",""
"null","../img/tt/105tt.jpg","null","mooney1","image-keyboard-response","462","1476365","0.0-6.0-1.65","2623389","co39040","norming","","","","","","",""
"3906.9600000001956","","","post_mooney1_questions","survey-likert","463","1480274","0.0-6.0-2.65","2623389","co39040","norming","","","{""curiosity"":2,""confidence"":3}","[0,1]","../img/tt/105tt.jpg","",""
"2126.2150000003166","","","recognition","survey-text","464","1482402","0.0-6.0-3.65","2623389","co39040","norming","","","{""guess"":""spelden""}","","../img/tt/105tt.jpg","",""
"null","../img/gs/105gs.jpg","null","reveal","image-keyboard-response","465","1484405","0.0-6.0-4.65","2623389","co39040","norming","","","","","","",""
"null","../img/tt/105tt.jpg","null","mooney2","image-keyboard-response","466","1486411","0.0-6.0-5.65","2623389","co39040","norming","","","","","","",""
"1899.779999999795","","","post_reveal_questions","survey-likert","467","1488314","0.0-6.0-6.65","2623389","co39040","norming","","","{""aha"":2}","[0]","../img/tt/105tt.jpg","",""
"null","<div style=""font-size:60px;""> </div>","null","fixation","html-keyboard-response","468","1488522","0.0-6.0-0.66","2623389","co39040","norming","","","","","","",""
"null","../img/tt/008tt.jpg","null","mooney1","image-keyboard-response","469","1491524","0.0-6.0-1.66","2623389","co39040","norming","","","","","","",""
"4202.315000000643","","","post_mooney1_questions","survey-likert","470","1495730","0.0-6.0-2.66","2623389","co39040","norming","","","{""curiosity"":3,""confidence"":1}","[0,1]","../img/tt/008tt.jpg","",""
"638.2950000008568","","","recognition","survey-text","471","1496370","0.0-6.0-3.66","2623389","co39040","norming","","","{""guess"":""""}","","../img/tt/008tt.jpg","",""
"null","../img/gs/008gs.jpg","null","reveal","image-keyboard-response","472","1498381","0.0-6.0-4.66","2623389","co39040","norming","","","","","","",""
"null","../img/tt/008tt.jpg","null","mooney2","image-keyboard-response","473","1500383","0.0-6.0-5.66","2623389","co39040","norming","","","","","","",""
"2679.835000000894","","","post_reveal_questions","survey-likert","474","1503066","0.0-6.0-6.66","2623389","co39040","norming","","","{""aha"":1}","[0]","../img/tt/008tt.jpg","",""
"null","<div style=""font-size:60px;""> </div>","null","fixation","html-keyboard-response","475","1503270","0.0-6.0-0.67","2623389","co39040","norming","","","","","","",""
"null","../img/tt/598tt.jpg","null","mooney1","image-keyboard-response","476","1506275","0.0-6.0-1.67","2623389","co39040","norming","","","","","","",""
"3715.8899999996647","","","post_mooney1_questions","survey-likert","477","1509994","0.0-6.0-2.67","2623389","co39040","norming","","","{""curiosity"":1,""confidence"":0}","[0,1]","../img/tt/598tt.jpg","",""
"662.1000000014901","","","recognition","survey-text","478","1510657","0.0-6.0-3.67","2623389","co39040","norming","","","{""guess"":""""}","","../img/tt/598tt.jpg","",""
"null","../img/gs/598gs.jpg","null","reveal","image-keyboard-response","479","1512659","0.0-6.0-4.67","2623389","co39040","norming","","","","","","",""
"null","../img/tt/598tt.jpg","null","mooney2","image-keyboard-response","480","1514664","0.0-6.0-5.67","2623389","co39040","norming","","","","","","",""
"1976.4950000008103","","","post_reveal_questions","survey-likert","481","1516641","0.0-6.0-6.67","2623389","co39040","norming","","","{""aha"":2}","[0]","../img/tt/598tt.jpg","",""
"null","<div style=""font-size:60px;""> </div>","null","fixation","html-keyboard-response","482","1516852","0.0-6.0-0.68","2623389","co39040","norming","","","","","","",""
"null","../img/tt/515tt.jpg","null","mooney1","image-keyboard-response","483","1519860","0.0-6.0-1.68","2623389","co39040","norming","","","","","","",""
"4402.019999999553","","","post_mooney1_questions","survey-likert","484","1524265","0.0-6.0-2.68","2623389","co39040","norming","","","{""curiosity"":1,""confidence"":0}","[0,1]","../img/tt/515tt.jpg","",""
"757.955000000773","","","recognition","survey-text","485","1525025","0.0-6.0-3.68","2623389","co39040","norming","","","{""guess"":""""}","","../img/tt/515tt.jpg","",""
"null","../img/gs/515gs.jpg","null","reveal","image-keyboard-response","486","1527034","0.0-6.0-4.68","2623389","co39040","norming","","","","","","",""
"null","../img/tt/515tt.jpg","null","mooney2","image-keyboard-response","487","1529044","0.0-6.0-5.68","2623389","co39040","norming","","","","","","",""
"1922.3450000009034","","","post_reveal_questions","survey-likert","488","1530969","0.0-6.0-6.68","2623389","co39040","norming","","","{""aha"":0}","[0]","../img/tt/515tt.jpg","",""
"null","<div style=""font-size:60px;""> </div>","null","fixation","html-keyboard-response","489","1531170","0.0-6.0-0.69","2623389","co39040","norming","","","","","","",""
"null","../img/tt/1069tt.jpg","null","mooney1","image-keyboard-response","490","1534182","0.0-6.0-1.69","2623389","co39040","norming","","","","","","",""
"3327.405000000028","","","post_mooney1_questions","survey-likert","491","1537513","0.0-6.0-2.69","2623389","co39040","norming","","","{""curiosity"":1,""confidence"":3}","[0,1]","../img/tt/1069tt.jpg","",""
"3317.975000000093","","","recognition","survey-text","492","1540833","0.0-6.0-3.69","2623389","co39040","norming","","","{""guess"":""geiten bokken""}","","../img/tt/1069tt.jpg","",""
"null","../img/gs/1069gs.jpg","null","reveal","image-keyboard-response","493","1542839","0.0-6.0-4.69","2623389","co39040","norming","","","","","","",""
"null","../img/tt/1069tt.jpg","null","mooney2","image-keyboard-response","494","1544845","0.0-6.0-5.69","2623389","co39040","norming","","","","","","",""
"1617.375000001397","","","post_reveal_questions","survey-likert","495","1546465","0.0-6.0-6.69","2623389","co39040","norming","","","{""aha"":3}","[0]","../img/tt/1069tt.jpg","",""
"null","<div style=""font-size:60px;""> </div>","null","fixation","html-keyboard-response","496","1546668","0.0-6.0-0.70","2623389","co39040","norming","","","","","","",""
"null","../img/tt/1283tt.jpg","null","mooney1","image-keyboard-response","497","1549671","0.0-6.0-1.70","2623389","co39040","norming","","","","","","",""
"3161.3850000011735","","","post_mooney1_questions","survey-likert","498","1552833","0.0-6.0-2.70","2623389","co39040","norming","","","{""curiosity"":1,""confidence"":0}","[0,1]","../img/tt/1283tt.jpg","",""
"4334.010000000475","","","recognition","survey-text","499","1557169","0.0-6.0-3.70","2623389","co39040","norming","","","{""guess"":""hond""}","","../img/tt/1283tt.jpg","",""
"null","../img/gs/1283gs.jpg","null","reveal","image-keyboard-response","500","1559171","0.0-6.0-4.70","2623389","co39040","norming","","","","","","",""
"null","../img/tt/1283tt.jpg","null","mooney2","image-keyboard-response","501","1561183","0.0-6.0-5.70","2623389","co39040","norming","","","","","","",""
"2375.380000001518","","","post_reveal_questions","survey-likert","502","1563561","0.0-6.0-6.70","2623389","co39040","norming","","","{""aha"":2}","[0]","../img/tt/1283tt.jpg","",""
"null","<div style=""font-size:60px;""> </div>","null","fixation","html-keyboard-response","503","1563764","0.0-6.0-0.71","2623389","co39040","norming","","","","","","",""
"null","../img/tt/1242tt.jpg","null","mooney1","image-keyboard-response","504","1566769","0.0-6.0-1.71","2623389","co39040","norming","","","","","","",""
"3612.769999999786","","","post_mooney1_questions","survey-likert","505","1570385","0.0-6.0-2.71","2623389","co39040","norming","","","{""curiosity"":2,""confidence"":0}","[0,1]","../img/tt/1242tt.jpg","",""
"1614.040000000503","","","recognition","survey-text","506","1572007","0.0-6.0-3.71","2623389","co39040","norming","","","{""guess"":""vos""}","","../img/tt/1242tt.jpg","",""
"null","../img/gs/1242gs.jpg","null","reveal","image-keyboard-response","507","1574012","0.0-6.0-4.71","2623389","co39040","norming","","","","","","",""
"null","../img/tt/1242tt.jpg","null","mooney2","image-keyboard-response","508","1576023","0.0-6.0-5.71","2623389","co39040","norming","","","","","","",""
"1948.8550000006799","","","post_reveal_questions","survey-likert","509","1577975","0.0-6.0-6.71","2623389","co39040","norming","","","{""aha"":3}","[0]","../img/tt/1242tt.jpg","",""
"null","<div style=""font-size:60px;""> </div>","null","fixation","html-keyboard-response","510","1578182","0.0-6.0-0.72","2623389","co39040","norming","","","","","","",""
"null","../img/tt/1196tt.jpg","null","mooney1","image-keyboard-response","511","1581192","0.0-6.0-1.72","2623389","co39040","norming","","","","","","",""
"3987.9149999998044","","","post_mooney1_questions","survey-likert","512","1585183","0.0-6.0-2.72","2623389","co39040","norming","","","{""curiosity"":2,""confidence"":0}","[0,1]","../img/tt/1196tt.jpg","",""
"4166.260000000009","","","recognition","survey-text","513","1589351","0.0-6.0-3.72","2623389","co39040","norming","","","{""guess"":""mensen""}","","../img/tt/1196tt.jpg","",""
"null","../img/gs/1196gs.jpg","null","reveal","image-keyboard-response","514","1591353","0.0-6.0-4.72","2623389","co39040","norming","","","","","","",""
"null","../img/tt/1196tt.jpg","null","mooney2","image-keyboard-response","515","1593357","0.0-6.0-5.72","2623389","co39040","norming","","","","","","",""
"3495.100000000093","","","post_reveal_questions","survey-likert","516","1596855","0.0-6.0-6.72","2623389","co39040","norming","","","{""aha"":4}","[0]","../img/tt/1196tt.jpg","",""
"null","<div style=""font-size:60px;""> </div>","null","fixation","html-keyboard-response","517","1597060","0.0-6.0-0.73","2623389","co39040","norming","","","","","","",""
"null","../img/tt/1024tt.jpg","null","mooney1","image-keyboard-response","518","1600063","0.0-6.0-1.73","2623389","co39040","norming","","","","","","",""
"4779.7600000011735","","","post_mooney1_questions","survey-likert","519","1604847","0.0-6.0-2.73","2623389","co39040","norming","","","{""curiosity"":1,""confidence"":0}","[0,1]","../img/tt/1024tt.jpg","",""
"1069.9850000001024","","","recognition","survey-text","520","1605919","0.0-6.0-3.73","2623389","co39040","norming","","","{""guess"":""""}","","../img/tt/1024tt.jpg","",""
"null","../img/gs/1024gs.jpg","null","reveal","image-keyboard-response","521","1607925","0.0-6.0-4.73","2623389","co39040","norming","","","","","","",""
"null","../img/tt/1024tt.jpg","null","mooney2","image-keyboard-response","522","1609930","0.0-6.0-5.73","2623389","co39040","norming","","","","","","",""
"1736.7400000002235","","","post_reveal_questions","survey-likert","523","1611671","0.0-6.0-6.73","2623389","co39040","norming","","","{""aha"":0}","[0]","../img/tt/1024tt.jpg","",""
"null","<div style=""font-size:60px;""> </div>","null","fixation","html-keyboard-response","524","1611872","0.0-6.0-0.74","2623389","co39040","norming","","","","","","",""
"null","../img/tt/189tt.jpg","null","mooney1","image-keyboard-response","525","1614876","0.0-6.0-1.74","2623389","co39040","norming","","","","","","",""
"4671.65000000014","","","post_mooney1_questions","survey-likert","526","1619551","0.0-6.0-2.74","2623389","co39040","norming","","","{""curiosity"":2,""confidence"":0}","[0,1]","../img/tt/189tt.jpg","",""
"2278.0849999999627","","","recognition","survey-text","527","1621831","0.0-6.0-3.74","2623389","co39040","norming","","","{""guess"":""skater""}","","../img/tt/189tt.jpg","",""
"null","../img/gs/189gs.jpg","null","reveal","image-keyboard-response","528","1623834","0.0-6.0-4.74","2623389","co39040","norming","","","","","","",""
"null","../img/tt/189tt.jpg","null","mooney2","image-keyboard-response","529","1625837","0.0-6.0-5.74","2623389","co39040","norming","","","","","","",""
"4135.860000000335","","","post_reveal_questions","survey-likert","530","1629975","0.0-6.0-6.74","2623389","co39040","norming","","","{""aha"":0}","[0]","../img/tt/189tt.jpg","",""
"null","<div style=""font-size:60px;""> </div>","null","fixation","html-keyboard-response","531","1630183","0.0-6.0-0.75","2623389","co39040","norming","","","","","","",""
"null","../img/tt/1107tt.jpg","null","mooney1","image-keyboard-response","532","1633194","0.0-6.0-1.75","2623389","co39040","norming","","","","","","",""
"3718.4249999991152","","","post_mooney1_questions","survey-likert","533","1636914","0.0-6.0-2.75","2623389","co39040","norming","","","{""curiosity"":2,""confidence"":2}","[0,1]","../img/tt/1107tt.jpg","",""
"3126.019999999553","","","recognition","survey-text","534","1640042","0.0-6.0-3.75","2623389","co39040","norming","","","{""guess"":""kat kitten""}","","../img/tt/1107tt.jpg","",""
"null","../img/gs/1107gs.jpg","null","reveal","image-keyboard-response","535","1642046","0.0-6.0-4.75","2623389","co39040","norming","","","","","","",""
"null","../img/tt/1107tt.jpg","null","mooney2","image-keyboard-response","536","1644057","0.0-6.0-5.75","2623389","co39040","norming","","","","","","",""
"2790.0650000011083","","","post_reveal_questions","survey-likert","537","1646850","0.0-6.0-6.75","2623389","co39040","norming","","","{""aha"":3}","[0]","../img/tt/1107tt.jpg","",""
"null","<div style=""font-size:60px;""> </div>","null","fixation","html-keyboard-response","538","1647060","0.0-6.0-0.76","2623389","co39040","norming","","","","","","",""
"null","../img/tt/301tt.jpg","null","mooney1","image-keyboard-response","539","1650063","0.0-6.0-1.76","2623389","co39040","norming","","","","","","",""
"2823.265000000829","","","post_mooney1_questions","survey-likert","540","1652890","0.0-6.0-2.76","2623389","co39040","norming","","","{""curiosity"":1,""confidence"":0}","[0,1]","../img/tt/301tt.jpg","",""
"662.0000000004657","","","recognition","survey-text","541","1653554","0.0-6.0-3.76","2623389","co39040","norming","","","{""guess"":""""}","","../img/tt/301tt.jpg","",""
"null","../img/gs/301gs.jpg","null","reveal","image-keyboard-response","542","1655556","0.0-6.0-4.76","2623389","co39040","norming","","","","","","",""
"null","../img/tt/301tt.jpg","null","mooney2","image-keyboard-response","543","1657567","0.0-6.0-5.76","2623389","co39040","norming","","","","","","",""
"2416.3800000005867","","","post_reveal_questions","survey-likert","544","1659986","0.0-6.0-6.76","2623389","co39040","norming","","","{""aha"":2}","[0]","../img/tt/301tt.jpg","",""
"null","<div style=""font-size:60px;""> </div>","null","fixation","html-keyboard-response","545","1660193","0.0-6.0-0.77","2623389","co39040","norming","","","","","","",""
"null","../img/tt/477tt.jpg","null","mooney1","image-keyboard-response","546","1663197","0.0-6.0-1.77","2623389","co39040","norming","","","","","","",""
"3353.8499999996275","","","post_mooney1_questions","survey-likert","547","1666554","0.0-6.0-2.77","2623389","co39040","norming","","","{""curiosity"":0,""confidence"":0}","[0,1]","../img/tt/477tt.jpg","",""
"525.9600000008941","","","recognition","survey-text","548","1667081","0.0-6.0-3.77","2623389","co39040","norming","","","{""guess"":""""}","","../img/tt/477tt.jpg","",""
"null","../img/gs/477gs.jpg","null","reveal","image-keyboard-response","549","1669084","0.0-6.0-4.77","2623389","co39040","norming","","","","","","",""
"null","../img/tt/477tt.jpg","null","mooney2","image-keyboard-response","550","1671094","0.0-6.0-5.77","2623389","co39040","norming","","","","","","",""
"2256.4850000014994","","","post_reveal_questions","survey-likert","551","1673353","0.0-6.0-6.77","2623389","co39040","norming","","","{""aha"":0}","[0]","../img/tt/477tt.jpg","",""
"null","<div style=""font-size:60px;""> </div>","null","fixation","html-keyboard-response","552","1673556","0.0-6.0-0.78","2623389","co39040","norming","","","","","","",""
