"rt","stimulus","key_press","test_part","trial_type","trial_index","time_elapsed","internal_node_id","totalTime","subject","experiment_name","button_pressed","success","responses","question_order","currentStim","old","correct"
"5599.9400000000605","Welcome to the experiment. This is an online experiment so please don't close the tab/window until we say goodbye.  Press any key to begin.","32","instructions","html-keyboard-response","0","5615","0.0-0.0","2663194","co39139","norming","","","","","","",""
"19860.885000000053","<div style='word-wrap: break-word; width: 900px'><h3>Please consider this information carefully before deciding whether to participate in this research</h3><ul style='text-align: left; font-size: .8em;'><li><b>Purpose of the research</b>: To examine how people process images.</li><li><b>What you will do in this research</b>:  Stimuli (images) will be presented on the computer and you will be asked different questions about them.</li><li><b>Time required</b>: Participation will take between 45 and 60 minutes to complete.</li><li><b>Risks</b>:  There are no anticipated risks associated with participating in this study. The effects of participating should be comparable to those you would experience from viewing a computer monitor for 30 minutes and using a mouse or keyboard.</li><li><b>Benefits</b>:  This study provides no benefits to you individually except for the credit. The study provides important information about the nature of perception and learning.</li><li><b>Confidentiality</b>:  Your participation in this study will remain confidential. No personally identifiable information will be associated with your data. Your de-identified data may be shared with other researchers and used in future projects.</li><li><b>Participation and withdrawal</b>:  Your participation in this study is completely voluntary and you may refuse to participate or you may choose to withdraw at any time without penalty.</li><li><b>How to contact the researchers</b>: If you have questions or concerns about your participation or payment, or want to request a summary of research findings, please contact Sander Van de Cruys (KU Leuven), at sander.vandecruys@kuleuven.be.</li></ul><p>The nature and purpose of this research have been sufficiently explained and I agree to participate in this study.  I understand that I am free to withdraw at any time without incurring any penalty.</p><p>Please consent by clicking the button below to continue. Otherwise, please exit the study at this time.</p></div>","","instructions","html-button-response","1","25470","0.0-1.0","2663194","co39139","norming","0","","","","","",""
"","","","instructions","fullscreen","2","30205","0.0-2.0","2663194","co39139","norming","","true","","","","",""
"83718.30500000033","","","sona","survey-html-form","3","113937","0.0-3.0","2663194","co39139","norming","","","[{""name"":""sonaid"",""value"":""39139""},{""name"":""debrief"",""value"":""yes""},{""name"":""datajoin"",""value"":""yes""}]","","","",""
"54842.559999999125","<div style='word-wrap: break-word; width: 900px'><h3>Instructions</h3><p>This experiment will have 3 parts. In the first part you will see a series of distorted images like the one below on the left. As you can see in the righthand image, the distorted images are derived from actual photographs. In what follows, you will <strong>briefly</strong> be presented with <strong>only</strong> the distorted image.</p> <div style='float: left; margin-right: 20px;'><img src='../img/018tt.jpg' height='250' width='250'></img></div><div style='float: right; margin-left: 20px;'><img src='../img/018gs.jpg' height='250' width='250'></img></div><p>Subsequently you will be asked a few questions about the image: One question on how <strong>curious</strong> you are about the solution and one on how <strong>confident</strong> you are that you know the solution.</p>Next, we ask you to make a guess on what is in the image. Note that it is OK to name just the <strong>basic level category</strong>. For example when you see a parrot in the image, 'parrot' will obviously be a correct answer but also correct is 'bird'. However, 'animal' will <strong>not</strong> be counted as a correct response. For the example above, 'rose' would be correct or 'flower', but not 'plant'. When soccer players are depicted, 'soccer', 'football', 'soccer players' will be correct, but not 'humans', 'outdoors', or 'sports'. You do not need to describe the image in full, just name the main object in it <strong>in one or two words</strong>. All images depict objects from one of the following broad level categories: animals, inanimate objects, plants, sports, vehicles, and food. Recognizing means knowing <strong>more</strong> than these broad labels for a given image. But we always encourage you to <strong>make a guess</strong> if you can. Note that you are allowed to use <strong>Dutch and English</strong> in your answers, whatever comes easiest for you.</p><p>Press any key to continue.</p></div>","32","instructions","html-keyboard-response","4","168781","0.0-4.0","2663194","co39139","norming","","","","","","",""
"53806.77000000107","<div style='word-wrap: break-word; width: 900px'><h3>Instructions</h3> <p>Next, the solution image will be revealed to you and you'll be asked to indicate how strong your <strong>aha-experience</strong> was after seeing the solution. This describes the positive feeling of the 'click' you sometimes experience, when the pieces of the 'puzzle' fall together and you suddenly have 'insight' in the image.</p><img src='aha.jpg' height='188' width='250'></img><p>Note that there are no right or wrong answers. We are interested in what <strong>you</strong> see in the image and how <strong>you</strong> feel about it.</p><p>Press any key to start the experiment.</p></div>","32","instructions","html-keyboard-response","5","222587","0.0-5.0","2663194","co39139","norming","","","","","","",""
"null","<div style=""font-size:60px;""> </div>","null","fixation","html-keyboard-response","6","222794","0.0-6.0-0.0","2663194","co39139","norming","","","","","","",""
"null","../img/tt/319tt.jpg","null","mooney1","image-keyboard-response","7","225798","0.0-6.0-1.0","2663194","co39139","norming","","","","","","",""
"7332.309999999765","","","post_mooney1_questions","survey-likert","8","233132","0.0-6.0-2.0","2663194","co39139","norming","","","{""curiosity"":5,""confidence"":0}","[0,1]","../img/tt/319tt.jpg","",""
"5069.494999999733","","","recognition","survey-text","9","238204","0.0-6.0-3.0","2663194","co39139","norming","","","{""guess"":""stier""}","","../img/tt/319tt.jpg","",""
"null","../img/gs/319gs.jpg","null","reveal","image-keyboard-response","10","240211","0.0-6.0-4.0","2663194","co39139","norming","","","","","","",""
"null","../img/tt/319tt.jpg","null","mooney2","image-keyboard-response","11","242215","0.0-6.0-5.0","2663194","co39139","norming","","","","","","",""
"4067.919999999518","","","post_reveal_questions","survey-likert","12","246283","0.0-6.0-6.0","2663194","co39139","norming","","","{""aha"":4}","[0]","../img/tt/319tt.jpg","",""
"null","<div style=""font-size:60px;""> </div>","null","fixation","html-keyboard-response","13","246487","0.0-6.0-0.1","2663194","co39139","norming","","","","","","",""
"null","../img/tt/1151tt.jpg","null","mooney1","image-keyboard-response","14","249495","0.0-6.0-1.1","2663194","co39139","norming","","","","","","",""
"5187.094999999303","","","post_mooney1_questions","survey-likert","15","254684","0.0-6.0-2.1","2663194","co39139","norming","","","{""curiosity"":5,""confidence"":1}","[0,1]","../img/tt/1151tt.jpg","",""
"2494.0100000003295","","","recognition","survey-text","16","257179","0.0-6.0-3.1","2663194","co39139","norming","","","{""guess"":""koe""}","","../img/tt/1151tt.jpg","",""
"null","../img/gs/1151gs.jpg","null","reveal","image-keyboard-response","17","259190","0.0-6.0-4.1","2663194","co39139","norming","","","","","","",""
"null","../img/tt/1151tt.jpg","null","mooney2","image-keyboard-response","18","261194","0.0-6.0-5.1","2663194","co39139","norming","","","","","","",""
"3736.8000000005704","","","post_reveal_questions","survey-likert","19","264931","0.0-6.0-6.1","2663194","co39139","norming","","","{""aha"":5}","[0]","../img/tt/1151tt.jpg","",""
"null","<div style=""font-size:60px;""> </div>","null","fixation","html-keyboard-response","20","265133","0.0-6.0-0.2","2663194","co39139","norming","","","","","","",""
"null","../img/tt/118tt.jpg","null","mooney1","image-keyboard-response","21","268142","0.0-6.0-1.2","2663194","co39139","norming","","","","","","",""
"3500.58499999973","","","post_mooney1_questions","survey-likert","22","271644","0.0-6.0-2.2","2663194","co39139","norming","","","{""curiosity"":5,""confidence"":0}","[0,1]","../img/tt/118tt.jpg","",""
"2861.725000000675","","","recognition","survey-text","23","274507","0.0-6.0-3.2","2663194","co39139","norming","","","{""guess"":""""}","","../img/tt/118tt.jpg","",""
"null","../img/gs/118gs.jpg","null","reveal","image-keyboard-response","24","276510","0.0-6.0-4.2","2663194","co39139","norming","","","","","","",""
"null","../img/tt/118tt.jpg","null","mooney2","image-keyboard-response","25","278514","0.0-6.0-5.2","2663194","co39139","norming","","","","","","",""
"2696.1549999996787","","","post_reveal_questions","survey-likert","26","281211","0.0-6.0-6.2","2663194","co39139","norming","","","{""aha"":5}","[0]","../img/tt/118tt.jpg","",""
"null","<div style=""font-size:60px;""> </div>","null","fixation","html-keyboard-response","27","281415","0.0-6.0-0.3","2663194","co39139","norming","","","","","","",""
"null","../img/tt/279tt.jpg","null","mooney1","image-keyboard-response","28","284427","0.0-6.0-1.3","2663194","co39139","norming","","","","","","",""
"6580.695000000589","","","post_mooney1_questions","survey-likert","29","291009","0.0-6.0-2.3","2663194","co39139","norming","","","{""curiosity"":4,""confidence"":6}","[0,1]","../img/tt/279tt.jpg","",""
"2846.344999999914","","","recognition","survey-text","30","293857","0.0-6.0-3.3","2663194","co39139","norming","","","{""guess"":""koala""}","","../img/tt/279tt.jpg","",""
"null","../img/gs/279gs.jpg","null","reveal","image-keyboard-response","31","295865","0.0-6.0-4.3","2663194","co39139","norming","","","","","","",""
"null","../img/tt/279tt.jpg","null","mooney2","image-keyboard-response","32","297870","0.0-6.0-5.3","2663194","co39139","norming","","","","","","",""
"2977.650000000722","","","post_reveal_questions","survey-likert","33","300849","0.0-6.0-6.3","2663194","co39139","norming","","","{""aha"":2}","[0]","../img/tt/279tt.jpg","",""
"null","<div style=""font-size:60px;""> </div>","null","fixation","html-keyboard-response","34","301053","0.0-6.0-0.4","2663194","co39139","norming","","","","","","",""
"null","../img/tt/358tt.jpg","null","mooney1","image-keyboard-response","35","304054","0.0-6.0-1.4","2663194","co39139","norming","","","","","","",""
"3937.6150000007474","","","post_mooney1_questions","survey-likert","36","307993","0.0-6.0-2.4","2663194","co39139","norming","","","{""curiosity"":5,""confidence"":0}","[0,1]","../img/tt/358tt.jpg","",""
"741.9300000001094","","","recognition","survey-text","37","308737","0.0-6.0-3.4","2663194","co39139","norming","","","{""guess"":""""}","","../img/tt/358tt.jpg","",""
"null","../img/gs/358gs.jpg","null","reveal","image-keyboard-response","38","310738","0.0-6.0-4.4","2663194","co39139","norming","","","","","","",""
"null","../img/tt/358tt.jpg","null","mooney2","image-keyboard-response","39","312742","0.0-6.0-5.4","2663194","co39139","norming","","","","","","",""
"4281.609999999986","","","post_reveal_questions","survey-likert","40","317025","0.0-6.0-6.4","2663194","co39139","norming","","","{""aha"":4}","[0]","../img/tt/358tt.jpg","",""
"null","<div style=""font-size:60px;""> </div>","null","fixation","html-keyboard-response","41","317227","0.0-6.0-0.5","2663194","co39139","norming","","","","","","",""
"null","../img/tt/496tt.jpg","null","mooney1","image-keyboard-response","42","320229","0.0-6.0-1.5","2663194","co39139","norming","","","","","","",""
"4538.984999999171","","","post_mooney1_questions","survey-likert","43","324769","0.0-6.0-2.5","2663194","co39139","norming","","","{""curiosity"":5,""confidence"":2}","[0,1]","../img/tt/496tt.jpg","",""
"3645.45999999973","","","recognition","survey-text","44","328416","0.0-6.0-3.5","2663194","co39139","norming","","","{""guess"":""hond""}","","../img/tt/496tt.jpg","",""
"null","../img/gs/496gs.jpg","null","reveal","image-keyboard-response","45","330424","0.0-6.0-4.5","2663194","co39139","norming","","","","","","",""
"null","../img/tt/496tt.jpg","null","mooney2","image-keyboard-response","46","332428","0.0-6.0-5.5","2663194","co39139","norming","","","","","","",""
"2731.395000000717","","","post_reveal_questions","survey-likert","47","335161","0.0-6.0-6.5","2663194","co39139","norming","","","{""aha"":3}","[0]","../img/tt/496tt.jpg","",""
"null","<div style=""font-size:60px;""> </div>","null","fixation","html-keyboard-response","48","335368","0.0-6.0-0.6","2663194","co39139","norming","","","","","","",""
"null","../img/tt/1084tt.jpg","null","mooney1","image-keyboard-response","49","338372","0.0-6.0-1.6","2663194","co39139","norming","","","","","","",""
"3515.54000000027","","","post_mooney1_questions","survey-likert","50","341889","0.0-6.0-2.6","2663194","co39139","norming","","","{""curiosity"":5,""confidence"":0}","[0,1]","../img/tt/1084tt.jpg","",""
"845.9499999989639","","","recognition","survey-text","51","342736","0.0-6.0-3.6","2663194","co39139","norming","","","{""guess"":""""}","","../img/tt/1084tt.jpg","",""
"null","../img/gs/1084gs.jpg","null","reveal","image-keyboard-response","52","344746","0.0-6.0-4.6","2663194","co39139","norming","","","","","","",""
"null","../img/tt/1084tt.jpg","null","mooney2","image-keyboard-response","53","346750","0.0-6.0-5.6","2663194","co39139","norming","","","","","","",""
"2770.394999999553","","","post_reveal_questions","survey-likert","54","349521","0.0-6.0-6.6","2663194","co39139","norming","","","{""aha"":1}","[0]","../img/tt/1084tt.jpg","",""
"null","<div style=""font-size:60px;""> </div>","null","fixation","html-keyboard-response","55","349723","0.0-6.0-0.7","2663194","co39139","norming","","","","","","",""
"null","../img/tt/094tt.jpg","null","mooney1","image-keyboard-response","56","352725","0.0-6.0-1.7","2663194","co39139","norming","","","","","","",""
"5283.009999999194","","","post_mooney1_questions","survey-likert","57","358009","0.0-6.0-2.7","2663194","co39139","norming","","","{""curiosity"":4,""confidence"":1}","[0,1]","../img/tt/094tt.jpg","",""
"2677.944999999483","","","recognition","survey-text","58","360689","0.0-6.0-3.7","2663194","co39139","norming","","","{""guess"":""koe ""}","","../img/tt/094tt.jpg","",""
"null","../img/gs/094gs.jpg","null","reveal","image-keyboard-response","59","362691","0.0-6.0-4.7","2663194","co39139","norming","","","","","","",""
"null","../img/tt/094tt.jpg","null","mooney2","image-keyboard-response","60","364701","0.0-6.0-5.7","2663194","co39139","norming","","","","","","",""
"4203.5100000011735","","","post_reveal_questions","survey-likert","61","368905","0.0-6.0-6.7","2663194","co39139","norming","","","{""aha"":2}","[0]","../img/tt/094tt.jpg","",""
"null","<div style=""font-size:60px;""> </div>","null","fixation","html-keyboard-response","62","369106","0.0-6.0-0.8","2663194","co39139","norming","","","","","","",""
"null","../img/tt/580tt.jpg","null","mooney1","image-keyboard-response","63","372117","0.0-6.0-1.8","2663194","co39139","norming","","","","","","",""
"5667.655000001076","","","post_mooney1_questions","survey-likert","64","377785","0.0-6.0-2.8","2663194","co39139","norming","","","{""curiosity"":4,""confidence"":1}","[0,1]","../img/tt/580tt.jpg","",""
"2853.9450000007637","","","recognition","survey-text","65","380641","0.0-6.0-3.8","2663194","co39139","norming","","","{""guess"":""leeuw""}","","../img/tt/580tt.jpg","",""
"null","../img/gs/580gs.jpg","null","reveal","image-keyboard-response","66","382647","0.0-6.0-4.8","2663194","co39139","norming","","","","","","",""
"null","../img/tt/580tt.jpg","null","mooney2","image-keyboard-response","67","384656","0.0-6.0-5.8","2663194","co39139","norming","","","","","","",""
"3720.124999999767","","","post_reveal_questions","survey-likert","68","388377","0.0-6.0-6.8","2663194","co39139","norming","","","{""aha"":2}","[0]","../img/tt/580tt.jpg","",""
"null","<div style=""font-size:60px;""> </div>","null","fixation","html-keyboard-response","69","388585","0.0-6.0-0.9","2663194","co39139","norming","","","","","","",""
"null","../img/tt/098tt.jpg","null","mooney1","image-keyboard-response","70","391594","0.0-6.0-1.9","2663194","co39139","norming","","","","","","",""
"3717.655000000377","","","post_mooney1_questions","survey-likert","71","395313","0.0-6.0-2.9","2663194","co39139","norming","","","{""curiosity"":3,""confidence"":0}","[0,1]","../img/tt/098tt.jpg","",""
"765.8849999988452","","","recognition","survey-text","72","396081","0.0-6.0-3.9","2663194","co39139","norming","","","{""guess"":""""}","","../img/tt/098tt.jpg","",""
"null","../img/gs/098gs.jpg","null","reveal","image-keyboard-response","73","398085","0.0-6.0-4.9","2663194","co39139","norming","","","","","","",""
"null","../img/tt/098tt.jpg","null","mooney2","image-keyboard-response","74","400088","0.0-6.0-5.9","2663194","co39139","norming","","","","","","",""
"3728.170000000333","","","post_reveal_questions","survey-likert","75","403817","0.0-6.0-6.9","2663194","co39139","norming","","","{""aha"":2}","[0]","../img/tt/098tt.jpg","",""
"null","<div style=""font-size:60px;""> </div>","null","fixation","html-keyboard-response","76","404027","0.0-6.0-0.10","2663194","co39139","norming","","","","","","",""
"null","../img/tt/080tt.jpg","null","mooney1","image-keyboard-response","77","407029","0.0-6.0-1.10","2663194","co39139","norming","","","","","","",""
"3891.924999999872","","","post_mooney1_questions","survey-likert","78","410922","0.0-6.0-2.10","2663194","co39139","norming","","","{""curiosity"":5,""confidence"":1}","[0,1]","../img/tt/080tt.jpg","",""
"2709.394999999844","","","recognition","survey-text","79","413633","0.0-6.0-3.10","2663194","co39139","norming","","","{""guess"":""bloem""}","","../img/tt/080tt.jpg","",""
"null","../img/gs/080gs.jpg","null","reveal","image-keyboard-response","80","415635","0.0-6.0-4.10","2663194","co39139","norming","","","","","","",""
"null","../img/tt/080tt.jpg","null","mooney2","image-keyboard-response","81","417637","0.0-6.0-5.10","2663194","co39139","norming","","","","","","",""
"2619.220000000496","","","post_reveal_questions","survey-likert","82","420257","0.0-6.0-6.10","2663194","co39139","norming","","","{""aha"":2}","[0]","../img/tt/080tt.jpg","",""
"null","<div style=""font-size:60px;""> </div>","null","fixation","html-keyboard-response","83","420460","0.0-6.0-0.11","2663194","co39139","norming","","","","","","",""
"null","../img/tt/1118tt.jpg","null","mooney1","image-keyboard-response","84","423469","0.0-6.0-1.11","2663194","co39139","norming","","","","","","",""
"4371.709999999381","","","post_mooney1_questions","survey-likert","85","427842","0.0-6.0-2.11","2663194","co39139","norming","","","{""curiosity"":4,""confidence"":0}","[0,1]","../img/tt/1118tt.jpg","",""
"2366.3250000008265","","","recognition","survey-text","86","430210","0.0-6.0-3.11","2663194","co39139","norming","","","{""guess"":""boot""}","","../img/tt/1118tt.jpg","",""
"null","../img/gs/1118gs.jpg","null","reveal","image-keyboard-response","87","432219","0.0-6.0-4.11","2663194","co39139","norming","","","","","","",""
"null","../img/tt/1118tt.jpg","null","mooney2","image-keyboard-response","88","434221","0.0-6.0-5.11","2663194","co39139","norming","","","","","","",""
"2420.065000000235","","","post_reveal_questions","survey-likert","89","436642","0.0-6.0-6.11","2663194","co39139","norming","","","{""aha"":1}","[0]","../img/tt/1118tt.jpg","",""
"null","<div style=""font-size:60px;""> </div>","null","fixation","html-keyboard-response","90","436851","0.0-6.0-0.12","2663194","co39139","norming","","","","","","",""
"null","../img/tt/084tt.jpg","null","mooney1","image-keyboard-response","91","439857","0.0-6.0-1.12","2663194","co39139","norming","","","","","","",""
"3831.189999999013","","","post_mooney1_questions","survey-likert","92","443690","0.0-6.0-2.12","2663194","co39139","norming","","","{""curiosity"":4,""confidence"":5}","[0,1]","../img/tt/084tt.jpg","",""
"2277.9250000003376","","","recognition","survey-text","93","445969","0.0-6.0-3.12","2663194","co39139","norming","","","{""guess"":""vogel""}","","../img/tt/084tt.jpg","",""
"null","../img/gs/084gs.jpg","null","reveal","image-keyboard-response","94","447975","0.0-6.0-4.12","2663194","co39139","norming","","","","","","",""
"null","../img/tt/084tt.jpg","null","mooney2","image-keyboard-response","95","449980","0.0-6.0-5.12","2663194","co39139","norming","","","","","","",""
"2044.794999999809","","","post_reveal_questions","survey-likert","96","452025","0.0-6.0-6.12","2663194","co39139","norming","","","{""aha"":4}","[0]","../img/tt/084tt.jpg","",""
"null","<div style=""font-size:60px;""> </div>","null","fixation","html-keyboard-response","97","452232","0.0-6.0-0.13","2663194","co39139","norming","","","","","","",""
"null","../img/tt/1254tt.jpg","null","mooney1","image-keyboard-response","98","455240","0.0-6.0-1.13","2663194","co39139","norming","","","","","","",""
"4248.555000000109","","","post_mooney1_questions","survey-likert","99","459490","0.0-6.0-2.13","2663194","co39139","norming","","","{""curiosity"":5,""confidence"":3}","[0,1]","../img/tt/1254tt.jpg","",""
"2701.510000000766","","","recognition","survey-text","100","462193","0.0-6.0-3.13","2663194","co39139","norming","","","{""guess"":""konijn""}","","../img/tt/1254tt.jpg","",""
"null","../img/gs/1254gs.jpg","null","reveal","image-keyboard-response","101","464203","0.0-6.0-4.13","2663194","co39139","norming","","","","","","",""
"null","../img/tt/1254tt.jpg","null","mooney2","image-keyboard-response","102","466206","0.0-6.0-5.13","2663194","co39139","norming","","","","","","",""
"1962.954999999085","","","post_reveal_questions","survey-likert","103","468166","0.0-6.0-6.13","2663194","co39139","norming","","","{""aha"":4}","[0]","../img/tt/1254tt.jpg","",""
"null","<div style=""font-size:60px;""> </div>","null","fixation","html-keyboard-response","104","468367","0.0-6.0-0.14","2663194","co39139","norming","","","","","","",""
"null","../img/tt/1066tt.jpg","null","mooney1","image-keyboard-response","105","471371","0.0-6.0-1.14","2663194","co39139","norming","","","","","","",""
"3424.960000000312","","","post_mooney1_questions","survey-likert","106","474798","0.0-6.0-2.14","2663194","co39139","norming","","","{""curiosity"":4,""confidence"":4}","[0,1]","../img/tt/1066tt.jpg","",""
"2381.8850000006496","","","recognition","survey-text","107","477181","0.0-6.0-3.14","2663194","co39139","norming","","","{""guess"":""auto""}","","../img/tt/1066tt.jpg","",""
"null","../img/gs/1066gs.jpg","null","reveal","image-keyboard-response","108","479188","0.0-6.0-4.14","2663194","co39139","norming","","","","","","",""
"null","../img/tt/1066tt.jpg","null","mooney2","image-keyboard-response","109","481199","0.0-6.0-5.14","2663194","co39139","norming","","","","","","",""
"2734.0500000009197","","","post_reveal_questions","survey-likert","110","483934","0.0-6.0-6.14","2663194","co39139","norming","","","{""aha"":4}","[0]","../img/tt/1066tt.jpg","",""
"null","<div style=""font-size:60px;""> </div>","null","fixation","html-keyboard-response","111","484136","0.0-6.0-0.15","2663194","co39139","norming","","","","","","",""
"null","../img/tt/357tt.jpg","null","mooney1","image-keyboard-response","112","487146","0.0-6.0-1.15","2663194","co39139","norming","","","","","","",""
"2650.400000000489","","","post_mooney1_questions","survey-likert","113","489798","0.0-6.0-2.15","2663194","co39139","norming","","","{""curiosity"":4,""confidence"":4}","[0,1]","../img/tt/357tt.jpg","",""
"1892.1649999992806","","","recognition","survey-text","114","491693","0.0-6.0-3.15","2663194","co39139","norming","","","{""guess"":""egel""}","","../img/tt/357tt.jpg","",""
"null","../img/gs/357gs.jpg","null","reveal","image-keyboard-response","115","493704","0.0-6.0-4.15","2663194","co39139","norming","","","","","","",""
"null","../img/tt/357tt.jpg","null","mooney2","image-keyboard-response","116","495714","0.0-6.0-5.15","2663194","co39139","norming","","","","","","",""
"2322.684999999241","","","post_reveal_questions","survey-likert","117","498037","0.0-6.0-6.15","2663194","co39139","norming","","","{""aha"":4}","[0]","../img/tt/357tt.jpg","",""
"null","<div style=""font-size:60px;""> </div>","null","fixation","html-keyboard-response","118","498242","0.0-6.0-0.16","2663194","co39139","norming","","","","","","",""
"null","../img/tt/078tt.jpg","null","mooney1","image-keyboard-response","119","501245","0.0-6.0-1.16","2663194","co39139","norming","","","","","","",""
"5751.084999999846","","","post_mooney1_questions","survey-likert","120","506998","0.0-6.0-2.16","2663194","co39139","norming","","","{""curiosity"":5,""confidence"":2}","[0,1]","../img/tt/078tt.jpg","",""
"2550.1100000001607","","","recognition","survey-text","121","509550","0.0-6.0-3.16","2663194","co39139","norming","","","{""guess"":""insect""}","","../img/tt/078tt.jpg","",""
"null","../img/gs/078gs.jpg","null","reveal","image-keyboard-response","122","511560","0.0-6.0-4.16","2663194","co39139","norming","","","","","","",""
"null","../img/tt/078tt.jpg","null","mooney2","image-keyboard-response","123","513563","0.0-6.0-5.16","2663194","co39139","norming","","","","","","",""
"3977.2650000012945","","","post_reveal_questions","survey-likert","124","517541","0.0-6.0-6.16","2663194","co39139","norming","","","{""aha"":1}","[0]","../img/tt/078tt.jpg","",""
"null","<div style=""font-size:60px;""> </div>","null","fixation","html-keyboard-response","125","517752","0.0-6.0-0.17","2663194","co39139","norming","","","","","","",""
"null","../img/tt/1290tt.jpg","null","mooney1","image-keyboard-response","126","520759","0.0-6.0-1.17","2663194","co39139","norming","","","","","","",""
"5357.72499999986","","","post_mooney1_questions","survey-likert","127","526117","0.0-6.0-2.17","2663194","co39139","norming","","","{""curiosity"":6,""confidence"":0}","[0,1]","../img/tt/1290tt.jpg","",""
"845.595000000787","","","recognition","survey-text","128","526965","0.0-6.0-3.17","2663194","co39139","norming","","","{""guess"":""""}","","../img/tt/1290tt.jpg","",""
"null","../img/gs/1290gs.jpg","null","reveal","image-keyboard-response","129","528971","0.0-6.0-4.17","2663194","co39139","norming","","","","","","",""
"null","../img/tt/1290tt.jpg","null","mooney2","image-keyboard-response","130","530976","0.0-6.0-5.17","2663194","co39139","norming","","","","","","",""
"2384.0550000004005","","","post_reveal_questions","survey-likert","131","533361","0.0-6.0-6.17","2663194","co39139","norming","","","{""aha"":5}","[0]","../img/tt/1290tt.jpg","",""
"null","<div style=""font-size:60px;""> </div>","null","fixation","html-keyboard-response","132","533563","0.0-6.0-0.18","2663194","co39139","norming","","","","","","",""
"null","../img/tt/052tt.jpg","null","mooney1","image-keyboard-response","133","536566","0.0-6.0-1.18","2663194","co39139","norming","","","","","","",""
"3898.124999999767","","","post_mooney1_questions","survey-likert","134","540466","0.0-6.0-2.18","2663194","co39139","norming","","","{""curiosity"":3,""confidence"":6}","[0,1]","../img/tt/052tt.jpg","",""
"2398.1949999998324","","","recognition","survey-text","135","542865","0.0-6.0-3.18","2663194","co39139","norming","","","{""guess"":""ring""}","","../img/tt/052tt.jpg","",""
"null","../img/gs/052gs.jpg","null","reveal","image-keyboard-response","136","544875","0.0-6.0-4.18","2663194","co39139","norming","","","","","","",""
"null","../img/tt/052tt.jpg","null","mooney2","image-keyboard-response","137","546878","0.0-6.0-5.18","2663194","co39139","norming","","","","","","",""
"2505.940000000992","","","post_reveal_questions","survey-likert","138","549385","0.0-6.0-6.18","2663194","co39139","norming","","","{""aha"":6}","[0]","../img/tt/052tt.jpg","",""
"null","<div style=""font-size:60px;""> </div>","null","fixation","html-keyboard-response","139","549589","0.0-6.0-0.19","2663194","co39139","norming","","","","","","",""
"null","../img/tt/1122tt.jpg","null","mooney1","image-keyboard-response","140","552599","0.0-6.0-1.19","2663194","co39139","norming","","","","","","",""
"3825.6600000004983","","","post_mooney1_questions","survey-likert","141","556426","0.0-6.0-2.19","2663194","co39139","norming","","","{""curiosity"":5,""confidence"":2}","[0,1]","../img/tt/1122tt.jpg","",""
"3654.0499999992317","","","recognition","survey-text","142","560081","0.0-6.0-3.19","2663194","co39139","norming","","","{""guess"":""voertuig""}","","../img/tt/1122tt.jpg","",""
"null","../img/gs/1122gs.jpg","null","reveal","image-keyboard-response","143","562090","0.0-6.0-4.19","2663194","co39139","norming","","","","","","",""
"null","../img/tt/1122tt.jpg","null","mooney2","image-keyboard-response","144","564100","0.0-6.0-5.19","2663194","co39139","norming","","","","","","",""
"2724.1650000014342","","","post_reveal_questions","survey-likert","145","566825","0.0-6.0-6.19","2663194","co39139","norming","","","{""aha"":5}","[0]","../img/tt/1122tt.jpg","",""
"null","<div style=""font-size:60px;""> </div>","null","fixation","html-keyboard-response","146","567027","0.0-6.0-0.20","2663194","co39139","norming","","","","","","",""
"null","../img/tt/040tt.jpg","null","mooney1","image-keyboard-response","147","570029","0.0-6.0-1.20","2663194","co39139","norming","","","","","","",""
"3699.029999999795","","","post_mooney1_questions","survey-likert","148","573730","0.0-6.0-2.20","2663194","co39139","norming","","","{""curiosity"":6,""confidence"":0}","[0,1]","../img/tt/040tt.jpg","",""
"2125.825000001001","","","recognition","survey-text","149","575857","0.0-6.0-3.20","2663194","co39139","norming","","","{""guess"":""""}","","../img/tt/040tt.jpg","",""
"null","../img/gs/040gs.jpg","null","reveal","image-keyboard-response","150","577860","0.0-6.0-4.20","2663194","co39139","norming","","","","","","",""
"null","../img/tt/040tt.jpg","null","mooney2","image-keyboard-response","151","579866","0.0-6.0-5.20","2663194","co39139","norming","","","","","","",""
"3166.920000001439","","","post_reveal_questions","survey-likert","152","583033","0.0-6.0-6.20","2663194","co39139","norming","","","{""aha"":4}","[0]","../img/tt/040tt.jpg","",""
"null","<div style=""font-size:60px;""> </div>","null","fixation","html-keyboard-response","153","583242","0.0-6.0-0.21","2663194","co39139","norming","","","","","","",""
"null","../img/tt/1123tt.jpg","null","mooney1","image-keyboard-response","154","586246","0.0-6.0-1.21","2663194","co39139","norming","","","","","","",""
"5602.754999999888","","","post_mooney1_questions","survey-likert","155","591849","0.0-6.0-2.21","2663194","co39139","norming","","","{""curiosity"":3,""confidence"":4}","[0,1]","../img/tt/1123tt.jpg","",""
"2981.805000001332","","","recognition","survey-text","156","594833","0.0-6.0-3.21","2663194","co39139","norming","","","{""guess"":""voetbal""}","","../img/tt/1123tt.jpg","",""
"null","../img/gs/1123gs.jpg","null","reveal","image-keyboard-response","157","596843","0.0-6.0-4.21","2663194","co39139","norming","","","","","","",""
"null","../img/tt/1123tt.jpg","null","mooney2","image-keyboard-response","158","598850","0.0-6.0-5.21","2663194","co39139","norming","","","","","","",""
"3949.9849999992875","","","post_reveal_questions","survey-likert","159","602801","0.0-6.0-6.21","2663194","co39139","norming","","","{""aha"":3}","[0]","../img/tt/1123tt.jpg","",""
"null","<div style=""font-size:60px;""> </div>","null","fixation","html-keyboard-response","160","603009","0.0-6.0-0.22","2663194","co39139","norming","","","","","","",""
"null","../img/tt/135tt.jpg","null","mooney1","image-keyboard-response","161","606016","0.0-6.0-1.22","2663194","co39139","norming","","","","","","",""
"3976.5050000005867","","","post_mooney1_questions","survey-likert","162","609993","0.0-6.0-2.22","2663194","co39139","norming","","","{""curiosity"":4,""confidence"":4}","[0,1]","../img/tt/135tt.jpg","",""
"2485.880000000121","","","recognition","survey-text","163","612481","0.0-6.0-3.22","2663194","co39139","norming","","","{""guess"":""toilet""}","","../img/tt/135tt.jpg","",""
"null","../img/gs/135gs.jpg","null","reveal","image-keyboard-response","164","614487","0.0-6.0-4.22","2663194","co39139","norming","","","","","","",""
"null","../img/tt/135tt.jpg","null","mooney2","image-keyboard-response","165","616491","0.0-6.0-5.22","2663194","co39139","norming","","","","","","",""
"2261.4650000013644","","","post_reveal_questions","survey-likert","166","618753","0.0-6.0-6.22","2663194","co39139","norming","","","{""aha"":4}","[0]","../img/tt/135tt.jpg","",""
"null","<div style=""font-size:60px;""> </div>","null","fixation","html-keyboard-response","167","618955","0.0-6.0-0.23","2663194","co39139","norming","","","","","","",""
"null","../img/tt/549tt.jpg","null","mooney1","image-keyboard-response","168","621958","0.0-6.0-1.23","2663194","co39139","norming","","","","","","",""
"3482.245000001043","","","post_mooney1_questions","survey-likert","169","625441","0.0-6.0-2.23","2663194","co39139","norming","","","{""curiosity"":5,""confidence"":0}","[0,1]","../img/tt/549tt.jpg","",""
"614.0300000007264","","","recognition","survey-text","170","626057","0.0-6.0-3.23","2663194","co39139","norming","","","{""guess"":""""}","","../img/tt/549tt.jpg","",""
"null","../img/gs/549gs.jpg","null","reveal","image-keyboard-response","171","628066","0.0-6.0-4.23","2663194","co39139","norming","","","","","","",""
"null","../img/tt/549tt.jpg","null","mooney2","image-keyboard-response","172","630072","0.0-6.0-5.23","2663194","co39139","norming","","","","","","",""
"2880.280000001192","","","post_reveal_questions","survey-likert","173","632953","0.0-6.0-6.23","2663194","co39139","norming","","","{""aha"":1}","[0]","../img/tt/549tt.jpg","",""
"null","<div style=""font-size:60px;""> </div>","null","fixation","html-keyboard-response","174","633162","0.0-6.0-0.24","2663194","co39139","norming","","","","","","",""
"null","../img/tt/1159tt.jpg","null","mooney1","image-keyboard-response","175","636165","0.0-6.0-1.24","2663194","co39139","norming","","","","","","",""
"3466.1249999990687","","","post_mooney1_questions","survey-likert","176","639633","0.0-6.0-2.24","2663194","co39139","norming","","","{""curiosity"":4,""confidence"":0}","[0,1]","../img/tt/1159tt.jpg","",""
"846.1999999999534","","","recognition","survey-text","177","640481","0.0-6.0-3.24","2663194","co39139","norming","","","{""guess"":""""}","","../img/tt/1159tt.jpg","",""
"null","../img/gs/1159gs.jpg","null","reveal","image-keyboard-response","178","642484","0.0-6.0-4.24","2663194","co39139","norming","","","","","","",""
"null","../img/tt/1159tt.jpg","null","mooney2","image-keyboard-response","179","644491","0.0-6.0-5.24","2663194","co39139","norming","","","","","","",""
"3613.564999999595","","","post_reveal_questions","survey-likert","180","648105","0.0-6.0-6.24","2663194","co39139","norming","","","{""aha"":0}","[0]","../img/tt/1159tt.jpg","",""
"null","<div style=""font-size:60px;""> </div>","null","fixation","html-keyboard-response","181","648315","0.0-6.0-0.25","2663194","co39139","norming","","","","","","",""
"null","../img/tt/435tt.jpg","null","mooney1","image-keyboard-response","182","651322","0.0-6.0-1.25","2663194","co39139","norming","","","","","","",""
"4366.240000001271","","","post_mooney1_questions","survey-likert","183","655690","0.0-6.0-2.25","2663194","co39139","norming","","","{""curiosity"":3,""confidence"":0}","[0,1]","../img/tt/435tt.jpg","",""
"773.9000000001397","","","recognition","survey-text","184","656465","0.0-6.0-3.25","2663194","co39139","norming","","","{""guess"":""""}","","../img/tt/435tt.jpg","",""
"null","../img/gs/435gs.jpg","null","reveal","image-keyboard-response","185","658473","0.0-6.0-4.25","2663194","co39139","norming","","","","","","",""
"null","../img/tt/435tt.jpg","null","mooney2","image-keyboard-response","186","660481","0.0-6.0-5.25","2663194","co39139","norming","","","","","","",""
"1751.4699999991572","","","post_reveal_questions","survey-likert","187","662234","0.0-6.0-6.25","2663194","co39139","norming","","","{""aha"":0}","[0]","../img/tt/435tt.jpg","",""
"null","<div style=""font-size:60px;""> </div>","null","fixation","html-keyboard-response","188","662442","0.0-6.0-0.26","2663194","co39139","norming","","","","","","",""
"null","../img/tt/1186tt.jpg","null","mooney1","image-keyboard-response","189","665446","0.0-6.0-1.26","2663194","co39139","norming","","","","","","",""
"5554.239999999525","","","post_mooney1_questions","survey-likert","190","671002","0.0-6.0-2.26","2663194","co39139","norming","","","{""curiosity"":5,""confidence"":3}","[0,1]","../img/tt/1186tt.jpg","",""
"5285.90500000061","","","recognition","survey-text","191","676290","0.0-6.0-3.26","2663194","co39139","norming","","","{""guess"":""rolschaatsen""}","","../img/tt/1186tt.jpg","",""
"null","../img/gs/1186gs.jpg","null","reveal","image-keyboard-response","192","678299","0.0-6.0-4.26","2663194","co39139","norming","","","","","","",""
"null","../img/tt/1186tt.jpg","null","mooney2","image-keyboard-response","193","680303","0.0-6.0-5.26","2663194","co39139","norming","","","","","","",""
"3824.1650000000373","","","post_reveal_questions","survey-likert","194","684130","0.0-6.0-6.26","2663194","co39139","norming","","","{""aha"":5}","[0]","../img/tt/1186tt.jpg","",""
"null","<div style=""font-size:60px;""> </div>","null","fixation","html-keyboard-response","195","684332","0.0-6.0-0.27","2663194","co39139","norming","","","","","","",""
"null","../img/tt/085tt.jpg","null","mooney1","image-keyboard-response","196","687341","0.0-6.0-1.27","2663194","co39139","norming","","","","","","",""
"5954.2500000006985","","","post_mooney1_questions","survey-likert","197","693298","0.0-6.0-2.27","2663194","co39139","norming","","","{""curiosity"":2,""confidence"":3}","[0,1]","../img/tt/085tt.jpg","",""
"3789.9799999995157","","","recognition","survey-text","198","697090","0.0-6.0-3.27","2663194","co39139","norming","","","{""guess"":""bloem""}","","../img/tt/085tt.jpg","",""
"null","../img/gs/085gs.jpg","null","reveal","image-keyboard-response","199","699096","0.0-6.0-4.27","2663194","co39139","norming","","","","","","",""
"null","../img/tt/085tt.jpg","null","mooney2","image-keyboard-response","200","701103","0.0-6.0-5.27","2663194","co39139","norming","","","","","","",""
"2241.40500000061","","","post_reveal_questions","survey-likert","201","703346","0.0-6.0-6.27","2663194","co39139","norming","","","{""aha"":1}","[0]","../img/tt/085tt.jpg","",""
"null","<div style=""font-size:60px;""> </div>","null","fixation","html-keyboard-response","202","703547","0.0-6.0-0.28","2663194","co39139","norming","","","","","","",""
"null","../img/tt/105tt.jpg","null","mooney1","image-keyboard-response","203","706553","0.0-6.0-1.28","2663194","co39139","norming","","","","","","",""
"5047.179999999586","","","post_mooney1_questions","survey-likert","204","711601","0.0-6.0-2.28","2663194","co39139","norming","","","{""curiosity"":6,""confidence"":0}","[0,1]","../img/tt/105tt.jpg","",""
"582.0300000014249","","","recognition","survey-text","205","712184","0.0-6.0-3.28","2663194","co39139","norming","","","{""guess"":""""}","","../img/tt/105tt.jpg","",""
"null","../img/gs/105gs.jpg","null","reveal","image-keyboard-response","206","714192","0.0-6.0-4.28","2663194","co39139","norming","","","","","","",""
"null","../img/tt/105tt.jpg","null","mooney2","image-keyboard-response","207","716194","0.0-6.0-5.28","2663194","co39139","norming","","","","","","",""
"5173.389999999898","","","post_reveal_questions","survey-likert","208","721368","0.0-6.0-6.28","2663194","co39139","norming","","","{""aha"":4}","[0]","../img/tt/105tt.jpg","",""
"null","<div style=""font-size:60px;""> </div>","null","fixation","html-keyboard-response","209","721570","0.0-6.0-0.29","2663194","co39139","norming","","","","","","",""
"null","../img/tt/1161tt.jpg","null","mooney1","image-keyboard-response","210","724575","0.0-6.0-1.29","2663194","co39139","norming","","","","","","",""
"4839.864999999874","","","post_mooney1_questions","survey-likert","211","729417","0.0-6.0-2.29","2663194","co39139","norming","","","{""curiosity"":4,""confidence"":1}","[0,1]","../img/tt/1161tt.jpg","",""
"3413.7500000015134","","","recognition","survey-text","212","732832","0.0-6.0-3.29","2663194","co39139","norming","","","{""guess"":""klimmen""}","","../img/tt/1161tt.jpg","",""
"null","../img/gs/1161gs.jpg","null","reveal","image-keyboard-response","213","734838","0.0-6.0-4.29","2663194","co39139","norming","","","","","","",""
"null","../img/tt/1161tt.jpg","null","mooney2","image-keyboard-response","214","736839","0.0-6.0-5.29","2663194","co39139","norming","","","","","","",""
"2368.350000000559","","","post_reveal_questions","survey-likert","215","739209","0.0-6.0-6.29","2663194","co39139","norming","","","{""aha"":5}","[0]","../img/tt/1161tt.jpg","",""
"null","<div style=""font-size:60px;""> </div>","null","fixation","html-keyboard-response","216","739410","0.0-6.0-0.30","2663194","co39139","norming","","","","","","",""
"null","../img/tt/1101tt.jpg","null","mooney1","image-keyboard-response","217","742414","0.0-6.0-1.30","2663194","co39139","norming","","","","","","",""
"7216.419999998878","","","post_mooney1_questions","survey-likert","218","749632","0.0-6.0-2.30","2663194","co39139","norming","","","{""curiosity"":5,""confidence"":1}","[0,1]","../img/tt/1101tt.jpg","",""
"5150.340000000084","","","recognition","survey-text","219","754785","0.0-6.0-3.30","2663194","co39139","norming","","","{""guess"":""ijsschaatsen""}","","../img/tt/1101tt.jpg","",""
"null","../img/gs/1101gs.jpg","null","reveal","image-keyboard-response","220","756793","0.0-6.0-4.30","2663194","co39139","norming","","","","","","",""
"null","../img/tt/1101tt.jpg","null","mooney2","image-keyboard-response","221","758802","0.0-6.0-5.30","2663194","co39139","norming","","","","","","",""
"5221.470000000438","","","post_reveal_questions","survey-likert","222","764024","0.0-6.0-6.30","2663194","co39139","norming","","","{""aha"":4}","[0]","../img/tt/1101tt.jpg","",""
"null","<div style=""font-size:60px;""> </div>","null","fixation","html-keyboard-response","223","764225","0.0-6.0-0.31","2663194","co39139","norming","","","","","","",""
"null","../img/tt/418tt.jpg","null","mooney1","image-keyboard-response","224","767236","0.0-6.0-1.31","2663194","co39139","norming","","","","","","",""
"5577.624999999884","","","post_mooney1_questions","survey-likert","225","772818","0.0-6.0-2.31","2663194","co39139","norming","","","{""curiosity"":6,""confidence"":1}","[0,1]","../img/tt/418tt.jpg","",""
"2813.40499999898","","","recognition","survey-text","226","775633","0.0-6.0-3.31","2663194","co39139","norming","","","{""guess"":""tent""}","","../img/tt/418tt.jpg","",""
"null","../img/gs/418gs.jpg","null","reveal","image-keyboard-response","227","777642","0.0-6.0-4.31","2663194","co39139","norming","","","","","","",""
"null","../img/tt/418tt.jpg","null","mooney2","image-keyboard-response","228","779650","0.0-6.0-5.31","2663194","co39139","norming","","","","","","",""
"2822.39500000095","","","post_reveal_questions","survey-likert","229","782473","0.0-6.0-6.31","2663194","co39139","norming","","","{""aha"":2}","[0]","../img/tt/418tt.jpg","",""
"null","<div style=""font-size:60px;""> </div>","null","fixation","html-keyboard-response","230","782679","0.0-6.0-0.32","2663194","co39139","norming","","","","","","",""
"null","../img/tt/318tt.jpg","null","mooney1","image-keyboard-response","231","785687","0.0-6.0-1.32","2663194","co39139","norming","","","","","","",""
"3825.0500000012107","","","post_mooney1_questions","survey-likert","232","789513","0.0-6.0-2.32","2663194","co39139","norming","","","{""curiosity"":6,""confidence"":1}","[0,1]","../img/tt/318tt.jpg","",""
"517.90500000061","","","recognition","survey-text","233","790033","0.0-6.0-3.32","2663194","co39139","norming","","","{""guess"":""""}","","../img/tt/318tt.jpg","",""
"null","../img/gs/318gs.jpg","null","reveal","image-keyboard-response","234","792040","0.0-6.0-4.32","2663194","co39139","norming","","","","","","",""
"null","../img/tt/318tt.jpg","null","mooney2","image-keyboard-response","235","794048","0.0-6.0-5.32","2663194","co39139","norming","","","","","","",""
"3886.9049999993294","","","post_reveal_questions","survey-likert","236","797937","0.0-6.0-6.32","2663194","co39139","norming","","","{""aha"":4}","[0]","../img/tt/318tt.jpg","",""
"null","<div style=""font-size:60px;""> </div>","null","fixation","html-keyboard-response","237","798144","0.0-6.0-0.33","2663194","co39139","norming","","","","","","",""
"null","../img/tt/064tt.jpg","null","mooney1","image-keyboard-response","238","801153","0.0-6.0-1.33","2663194","co39139","norming","","","","","","",""
"5958.275000000838","","","post_mooney1_questions","survey-likert","239","807113","0.0-6.0-2.33","2663194","co39139","norming","","","{""curiosity"":4,""confidence"":1}","[0,1]","../img/tt/064tt.jpg","",""
"2502.129999998957","","","recognition","survey-text","240","809617","0.0-6.0-3.33","2663194","co39139","norming","","","{""guess"":""kikker""}","","../img/tt/064tt.jpg","",""
"null","../img/gs/064gs.jpg","null","reveal","image-keyboard-response","241","811618","0.0-6.0-4.33","2663194","co39139","norming","","","","","","",""
"null","../img/tt/064tt.jpg","null","mooney2","image-keyboard-response","242","813627","0.0-6.0-5.33","2663194","co39139","norming","","","","","","",""
"2218.9500000003027","","","post_reveal_questions","survey-likert","243","815849","0.0-6.0-6.33","2663194","co39139","norming","","","{""aha"":4}","[0]","../img/tt/064tt.jpg","",""
"null","<div style=""font-size:60px;""> </div>","null","fixation","html-keyboard-response","244","816050","0.0-6.0-0.34","2663194","co39139","norming","","","","","","",""
"null","../img/tt/517tt.jpg","null","mooney1","image-keyboard-response","245","819063","0.0-6.0-1.34","2663194","co39139","norming","","","","","","",""
"6159.77500000014","","","post_mooney1_questions","survey-likert","246","825225","0.0-6.0-2.34","2663194","co39139","norming","","","{""curiosity"":4,""confidence"":4}","[0,1]","../img/tt/517tt.jpg","",""
"2326.24000000034","","","recognition","survey-text","247","827553","0.0-6.0-3.34","2663194","co39139","norming","","","{""guess"":""varken""}","","../img/tt/517tt.jpg","",""
"null","../img/gs/517gs.jpg","null","reveal","image-keyboard-response","248","829560","0.0-6.0-4.34","2663194","co39139","norming","","","","","","",""
"null","../img/tt/517tt.jpg","null","mooney2","image-keyboard-response","249","831561","0.0-6.0-5.34","2663194","co39139","norming","","","","","","",""
"4133.2549999988405","","","post_reveal_questions","survey-likert","250","835690","0.0-6.0-6.34","2663194","co39139","norming","","","{""aha"":0}","[0]","../img/tt/517tt.jpg","",""
"null","<div style=""font-size:60px;""> </div>","null","fixation","html-keyboard-response","251","835892","0.0-6.0-0.35","2663194","co39139","norming","","","","","","",""
"null","../img/tt/1146tt.jpg","null","mooney1","image-keyboard-response","252","838895","0.0-6.0-1.35","2663194","co39139","norming","","","","","","",""
"5576.004999998957","","","post_mooney1_questions","survey-likert","253","844474","0.0-6.0-2.35","2663194","co39139","norming","","","{""curiosity"":4,""confidence"":1}","[0,1]","../img/tt/1146tt.jpg","",""
"2237.8050000006333","","","recognition","survey-text","254","846714","0.0-6.0-3.35","2663194","co39139","norming","","","{""guess"":""trein""}","","../img/tt/1146tt.jpg","",""
"null","../img/gs/1146gs.jpg","null","reveal","image-keyboard-response","255","848720","0.0-6.0-4.35","2663194","co39139","norming","","","","","","",""
"null","../img/tt/1146tt.jpg","null","mooney2","image-keyboard-response","256","850724","0.0-6.0-5.35","2663194","co39139","norming","","","","","","",""
"3036.8750000015134","","","post_reveal_questions","survey-likert","257","853762","0.0-6.0-6.35","2663194","co39139","norming","","","{""aha"":0}","[0]","../img/tt/1146tt.jpg","",""
"null","<div style=""font-size:60px;""> </div>","null","fixation","html-keyboard-response","258","853970","0.0-6.0-0.36","2663194","co39139","norming","","","","","","",""
"null","../img/tt/307tt.jpg","null","mooney1","image-keyboard-response","259","856976","0.0-6.0-1.36","2663194","co39139","norming","","","","","","",""
"4983.495000000345","","","post_mooney1_questions","survey-likert","260","861962","0.0-6.0-2.36","2663194","co39139","norming","","","{""curiosity"":6,""confidence"":0}","[0,1]","../img/tt/307tt.jpg","",""
"685.8400000002002","","","recognition","survey-text","261","862650","0.0-6.0-3.36","2663194","co39139","norming","","","{""guess"":""""}","","../img/tt/307tt.jpg","",""
"null","../img/gs/307gs.jpg","null","reveal","image-keyboard-response","262","864652","0.0-6.0-4.36","2663194","co39139","norming","","","","","","",""
"null","../img/tt/307tt.jpg","null","mooney2","image-keyboard-response","263","866654","0.0-6.0-5.36","2663194","co39139","norming","","","","","","",""
"3042.6399999996647","","","post_reveal_questions","survey-likert","264","869698","0.0-6.0-6.36","2663194","co39139","norming","","","{""aha"":5}","[0]","../img/tt/307tt.jpg","",""
"null","<div style=""font-size:60px;""> </div>","null","fixation","html-keyboard-response","265","869906","0.0-6.0-0.37","2663194","co39139","norming","","","","","","",""
"null","../img/tt/1044tt.jpg","null","mooney1","image-keyboard-response","266","872909","0.0-6.0-1.37","2663194","co39139","norming","","","","","","",""
"4297.829999999492","","","post_mooney1_questions","survey-likert","267","877210","0.0-6.0-2.37","2663194","co39139","norming","","","{""curiosity"":6,""confidence"":1}","[0,1]","../img/tt/1044tt.jpg","",""
"1853.9150000015507","","","recognition","survey-text","268","879066","0.0-6.0-3.37","2663194","co39139","norming","","","{""guess"":""brug""}","","../img/tt/1044tt.jpg","",""
"null","../img/gs/1044gs.jpg","null","reveal","image-keyboard-response","269","881072","0.0-6.0-4.37","2663194","co39139","norming","","","","","","",""
"null","../img/tt/1044tt.jpg","null","mooney2","image-keyboard-response","270","883083","0.0-6.0-5.37","2663194","co39139","norming","","","","","","",""
"2580.8899999993155","","","post_reveal_questions","survey-likert","271","885666","0.0-6.0-6.37","2663194","co39139","norming","","","{""aha"":5}","[0]","../img/tt/1044tt.jpg","",""
"null","<div style=""font-size:60px;""> </div>","null","fixation","html-keyboard-response","272","885869","0.0-6.0-0.38","2663194","co39139","norming","","","","","","",""
"null","../img/tt/1126tt.jpg","null","mooney1","image-keyboard-response","273","888874","0.0-6.0-1.38","2663194","co39139","norming","","","","","","",""
"6523.264999999781","","","post_mooney1_questions","survey-likert","274","895405","0.0-6.0-2.38","2663194","co39139","norming","","","{""curiosity"":6,""confidence"":0}","[0,1]","../img/tt/1126tt.jpg","",""
"1421.9250000005122","","","recognition","survey-text","275","896829","0.0-6.0-3.38","2663194","co39139","norming","","","{""guess"":""""}","","../img/tt/1126tt.jpg","",""
"null","../img/gs/1126gs.jpg","null","reveal","image-keyboard-response","276","898837","0.0-6.0-4.38","2663194","co39139","norming","","","","","","",""
"null","../img/tt/1126tt.jpg","null","mooney2","image-keyboard-response","277","900844","0.0-6.0-5.38","2663194","co39139","norming","","","","","","",""
"3622.6399999995483","","","post_reveal_questions","survey-likert","278","904469","0.0-6.0-6.38","2663194","co39139","norming","","","{""aha"":5}","[0]","../img/tt/1126tt.jpg","",""
"null","<div style=""font-size:60px;""> </div>","null","fixation","html-keyboard-response","279","904671","0.0-6.0-0.39","2663194","co39139","norming","","","","","","",""
"null","../img/tt/300tt.jpg","null","mooney1","image-keyboard-response","280","907678","0.0-6.0-1.39","2663194","co39139","norming","","","","","","",""
"3738.900000000256","","","post_mooney1_questions","survey-likert","281","911421","0.0-6.0-2.39","2663194","co39139","norming","","","{""curiosity"":5,""confidence"":1}","[0,1]","../img/tt/300tt.jpg","",""
"3037.5050000002375","","","recognition","survey-text","282","914460","0.0-6.0-3.39","2663194","co39139","norming","","","{""guess"":""gevechtsport""}","","../img/tt/300tt.jpg","",""
"null","../img/gs/300gs.jpg","null","reveal","image-keyboard-response","283","916467","0.0-6.0-4.39","2663194","co39139","norming","","","","","","",""
"null","../img/tt/300tt.jpg","null","mooney2","image-keyboard-response","284","918477","0.0-6.0-5.39","2663194","co39139","norming","","","","","","",""
"4406.134999999311","","","post_reveal_questions","survey-likert","285","922884","0.0-6.0-6.39","2663194","co39139","norming","","","{""aha"":0}","[0]","../img/tt/300tt.jpg","",""
"null","<div style=""font-size:60px;""> </div>","null","fixation","html-keyboard-response","286","923091","0.0-6.0-0.40","2663194","co39139","norming","","","","","","",""
"null","../img/tt/1227tt.jpg","null","mooney1","image-keyboard-response","287","926097","0.0-6.0-1.40","2663194","co39139","norming","","","","","","",""
"4146.950000000303","","","post_mooney1_questions","survey-likert","288","930245","0.0-6.0-2.40","2663194","co39139","norming","","","{""curiosity"":4,""confidence"":1}","[0,1]","../img/tt/1227tt.jpg","",""
"2870.360000000801","","","recognition","survey-text","289","933117","0.0-6.0-3.40","2663194","co39139","norming","","","{""guess"":""koe""}","","../img/tt/1227tt.jpg","",""
"null","../img/gs/1227gs.jpg","null","reveal","image-keyboard-response","290","935118","0.0-6.0-4.40","2663194","co39139","norming","","","","","","",""
"null","../img/tt/1227tt.jpg","null","mooney2","image-keyboard-response","291","937121","0.0-6.0-5.40","2663194","co39139","norming","","","","","","",""
"2489.0450000002747","","","post_reveal_questions","survey-likert","292","939613","0.0-6.0-6.40","2663194","co39139","norming","","","{""aha"":5}","[0]","../img/tt/1227tt.jpg","",""
"null","<div style=""font-size:60px;""> </div>","null","fixation","html-keyboard-response","293","939823","0.0-6.0-0.41","2663194","co39139","norming","","","","","","",""
"null","../img/tt/1211tt.jpg","null","mooney1","image-keyboard-response","294","942835","0.0-6.0-1.41","2663194","co39139","norming","","","","","","",""
"3335.1350000011735","","","post_mooney1_questions","survey-likert","295","946173","0.0-6.0-2.41","2663194","co39139","norming","","","{""curiosity"":4,""confidence"":0}","[0,1]","../img/tt/1211tt.jpg","",""
"1966.2950000001583","","","recognition","survey-text","296","948141","0.0-6.0-3.41","2663194","co39139","norming","","","{""guess"":""beer""}","","../img/tt/1211tt.jpg","",""
"null","../img/gs/1211gs.jpg","null","reveal","image-keyboard-response","297","950142","0.0-6.0-4.41","2663194","co39139","norming","","","","","","",""
"null","../img/tt/1211tt.jpg","null","mooney2","image-keyboard-response","298","952147","0.0-6.0-5.41","2663194","co39139","norming","","","","","","",""
"2038.929999998887","","","post_reveal_questions","survey-likert","299","954189","0.0-6.0-6.41","2663194","co39139","norming","","","{""aha"":0}","[0]","../img/tt/1211tt.jpg","",""
"null","<div style=""font-size:60px;""> </div>","null","fixation","html-keyboard-response","300","954397","0.0-6.0-0.42","2663194","co39139","norming","","","","","","",""
"null","../img/tt/1154tt.jpg","null","mooney1","image-keyboard-response","301","957410","0.0-6.0-1.42","2663194","co39139","norming","","","","","","",""
"4791.0150000007125","","","post_mooney1_questions","survey-likert","302","962204","0.0-6.0-2.42","2663194","co39139","norming","","","{""curiosity"":4,""confidence"":6}","[0,1]","../img/tt/1154tt.jpg","",""
"1909.9799999985844","","","recognition","survey-text","303","964116","0.0-6.0-3.42","2663194","co39139","norming","","","{""guess"":""kano""}","","../img/tt/1154tt.jpg","",""
"null","../img/gs/1154gs.jpg","null","reveal","image-keyboard-response","304","966122","0.0-6.0-4.42","2663194","co39139","norming","","","","","","",""
"null","../img/tt/1154tt.jpg","null","mooney2","image-keyboard-response","305","968125","0.0-6.0-5.42","2663194","co39139","norming","","","","","","",""
"3098.140000000014","","","post_reveal_questions","survey-likert","306","971228","0.0-6.0-6.42","2663194","co39139","norming","","","{""aha"":5}","[0]","../img/tt/1154tt.jpg","",""
"null","<div style=""font-size:60px;""> </div>","null","fixation","html-keyboard-response","307","971431","0.0-6.0-0.43","2663194","co39139","norming","","","","","","",""
"null","../img/tt/598tt.jpg","null","mooney1","image-keyboard-response","308","974439","0.0-6.0-1.43","2663194","co39139","norming","","","","","","",""
"3528.875","","","post_mooney1_questions","survey-likert","309","977972","0.0-6.0-2.43","2663194","co39139","norming","","","{""curiosity"":5,""confidence"":5}","[0,1]","../img/tt/598tt.jpg","",""
"2382.3049999992363","","","recognition","survey-text","310","980356","0.0-6.0-3.43","2663194","co39139","norming","","","{""guess"":""cheetah""}","","../img/tt/598tt.jpg","",""
"null","../img/gs/598gs.jpg","null","reveal","image-keyboard-response","311","982361","0.0-6.0-4.43","2663194","co39139","norming","","","","","","",""
"null","../img/tt/598tt.jpg","null","mooney2","image-keyboard-response","312","984364","0.0-6.0-5.43","2663194","co39139","norming","","","","","","",""
"3780.8750000003492","","","post_reveal_questions","survey-likert","313","988148","0.0-6.0-6.43","2663194","co39139","norming","","","{""aha"":5}","[0]","../img/tt/598tt.jpg","",""
"null","<div style=""font-size:60px;""> </div>","null","fixation","html-keyboard-response","314","988354","0.0-6.0-0.44","2663194","co39139","norming","","","","","","",""
"null","../img/tt/438tt.jpg","null","mooney1","image-keyboard-response","315","991361","0.0-6.0-1.44","2663194","co39139","norming","","","","","","",""
"3381.695000000065","","","post_mooney1_questions","survey-likert","316","994748","0.0-6.0-2.44","2663194","co39139","norming","","","{""curiosity"":2,""confidence"":0}","[0,1]","../img/tt/438tt.jpg","",""
"686.0950000009034","","","recognition","survey-text","317","995436","0.0-6.0-3.44","2663194","co39139","norming","","","{""guess"":""""}","","../img/tt/438tt.jpg","",""
"null","../img/gs/438gs.jpg","null","reveal","image-keyboard-response","318","997438","0.0-6.0-4.44","2663194","co39139","norming","","","","","","",""
"null","../img/tt/438tt.jpg","null","mooney2","image-keyboard-response","319","999449","0.0-6.0-5.44","2663194","co39139","norming","","","","","","",""
"3720.380000000703","","","post_reveal_questions","survey-likert","320","1003172","0.0-6.0-6.44","2663194","co39139","norming","","","{""aha"":5}","[0]","../img/tt/438tt.jpg","",""
"null","<div style=""font-size:60px;""> </div>","null","fixation","html-keyboard-response","321","1003377","0.0-6.0-0.45","2663194","co39139","norming","","","","","","",""
"null","../img/tt/590tt.jpg","null","mooney1","image-keyboard-response","322","1006385","0.0-6.0-1.45","2663194","co39139","norming","","","","","","",""
"4103.049999999697","","","post_mooney1_questions","survey-likert","323","1010492","0.0-6.0-2.45","2663194","co39139","norming","","","{""curiosity"":5,""confidence"":0}","[0,1]","../img/tt/590tt.jpg","",""
"1149.9899999999907","","","recognition","survey-text","324","1011643","0.0-6.0-3.45","2663194","co39139","norming","","","{""guess"":""""}","","../img/tt/590tt.jpg","",""
"null","../img/gs/590gs.jpg","null","reveal","image-keyboard-response","325","1013653","0.0-6.0-4.45","2663194","co39139","norming","","","","","","",""
"null","../img/tt/590tt.jpg","null","mooney2","image-keyboard-response","326","1015661","0.0-6.0-5.45","2663194","co39139","norming","","","","","","",""
"2387.575000000652","","","post_reveal_questions","survey-likert","327","1018052","0.0-6.0-6.45","2663194","co39139","norming","","","{""aha"":0}","[0]","../img/tt/590tt.jpg","",""
"null","<div style=""font-size:60px;""> </div>","null","fixation","html-keyboard-response","328","1018261","0.0-6.0-0.46","2663194","co39139","norming","","","","","","",""
"null","../img/tt/013tt.jpg","null","mooney1","image-keyboard-response","329","1021273","0.0-6.0-1.46","2663194","co39139","norming","","","","","","",""
"4103.554999999586","","","post_mooney1_questions","survey-likert","330","1025380","0.0-6.0-2.46","2663194","co39139","norming","","","{""curiosity"":6,""confidence"":0}","[0,1]","../img/tt/013tt.jpg","",""
"958.2000000010012","","","recognition","survey-text","331","1026340","0.0-6.0-3.46","2663194","co39139","norming","","","{""guess"":""""}","","../img/tt/013tt.jpg","",""
"null","../img/gs/013gs.jpg","null","reveal","image-keyboard-response","332","1028344","0.0-6.0-4.46","2663194","co39139","norming","","","","","","",""
"null","../img/tt/013tt.jpg","null","mooney2","image-keyboard-response","333","1030354","0.0-6.0-5.46","2663194","co39139","norming","","","","","","",""
"2351.539999999688","","","post_reveal_questions","survey-likert","334","1032708","0.0-6.0-6.46","2663194","co39139","norming","","","{""aha"":5}","[0]","../img/tt/013tt.jpg","",""
"null","<div style=""font-size:60px;""> </div>","null","fixation","html-keyboard-response","335","1032918","0.0-6.0-0.47","2663194","co39139","norming","","","","","","",""
"null","../img/tt/1247tt.jpg","null","mooney1","image-keyboard-response","336","1035921","0.0-6.0-1.47","2663194","co39139","norming","","","","","","",""
"5391.415000000037","","","post_mooney1_questions","survey-likert","337","1041316","0.0-6.0-2.47","2663194","co39139","norming","","","{""curiosity"":6,""confidence"":0}","[0,1]","../img/tt/1247tt.jpg","",""
"749.7750000002561","","","recognition","survey-text","338","1042068","0.0-6.0-3.47","2663194","co39139","norming","","","{""guess"":""""}","","../img/tt/1247tt.jpg","",""
"null","../img/gs/1247gs.jpg","null","reveal","image-keyboard-response","339","1044075","0.0-6.0-4.47","2663194","co39139","norming","","","","","","",""
"null","../img/tt/1247tt.jpg","null","mooney2","image-keyboard-response","340","1046085","0.0-6.0-5.47","2663194","co39139","norming","","","","","","",""
"2734.179999999469","","","post_reveal_questions","survey-likert","341","1048820","0.0-6.0-6.47","2663194","co39139","norming","","","{""aha"":5}","[0]","../img/tt/1247tt.jpg","",""
"null","<div style=""font-size:60px;""> </div>","null","fixation","html-keyboard-response","342","1049022","0.0-6.0-0.48","2663194","co39139","norming","","","","","","",""
"null","../img/tt/096tt.jpg","null","mooney1","image-keyboard-response","343","1052026","0.0-6.0-1.48","2663194","co39139","norming","","","","","","",""
"3566.6300000010524","","","post_mooney1_questions","survey-likert","344","1055596","0.0-6.0-2.48","2663194","co39139","norming","","","{""curiosity"":6,""confidence"":6}","[0,1]","../img/tt/096tt.jpg","",""
"2518.1950000007637","","","recognition","survey-text","345","1058116","0.0-6.0-3.48","2663194","co39139","norming","","","{""guess"":""piano""}","","../img/tt/096tt.jpg","",""
"null","../img/gs/096gs.jpg","null","reveal","image-keyboard-response","346","1060125","0.0-6.0-4.48","2663194","co39139","norming","","","","","","",""
"null","../img/tt/096tt.jpg","null","mooney2","image-keyboard-response","347","1062126","0.0-6.0-5.48","2663194","co39139","norming","","","","","","",""
"2210.9400000008754","","","post_reveal_questions","survey-likert","348","1064340","0.0-6.0-6.48","2663194","co39139","norming","","","{""aha"":6}","[0]","../img/tt/096tt.jpg","",""
"null","<div style=""font-size:60px;""> </div>","null","fixation","html-keyboard-response","349","1064550","0.0-6.0-0.49","2663194","co39139","norming","","","","","","",""
"null","../img/tt/497tt.jpg","null","mooney1","image-keyboard-response","350","1067562","0.0-6.0-1.49","2663194","co39139","norming","","","","","","",""
"3934.6750000005122","","","post_mooney1_questions","survey-likert","351","1071500","0.0-6.0-2.49","2663194","co39139","norming","","","{""curiosity"":5,""confidence"":3}","[0,1]","../img/tt/497tt.jpg","",""
"1974.1650000014342","","","recognition","survey-text","352","1073476","0.0-6.0-3.49","2663194","co39139","norming","","","{""guess"":""klok""}","","../img/tt/497tt.jpg","",""
"null","../img/gs/497gs.jpg","null","reveal","image-keyboard-response","353","1075482","0.0-6.0-4.49","2663194","co39139","norming","","","","","","",""
"null","../img/tt/497tt.jpg","null","mooney2","image-keyboard-response","354","1077486","0.0-6.0-5.49","2663194","co39139","norming","","","","","","",""
"2331.8600000003353","","","post_reveal_questions","survey-likert","355","1079822","0.0-6.0-6.49","2663194","co39139","norming","","","{""aha"":5}","[0]","../img/tt/497tt.jpg","",""
"null","<div style=""font-size:60px;""> </div>","null","fixation","html-keyboard-response","356","1080027","0.0-6.0-0.50","2663194","co39139","norming","","","","","","",""
"null","../img/tt/1260tt.jpg","null","mooney1","image-keyboard-response","357","1083035","0.0-6.0-1.50","2663194","co39139","norming","","","","","","",""
"3631.6200000001118","","","post_mooney1_questions","survey-likert","358","1086670","0.0-6.0-2.50","2663194","co39139","norming","","","{""curiosity"":5,""confidence"":0}","[0,1]","../img/tt/1260tt.jpg","",""
"774.125","","","recognition","survey-text","359","1087445","0.0-6.0-3.50","2663194","co39139","norming","","","{""guess"":""""}","","../img/tt/1260tt.jpg","",""
"null","../img/gs/1260gs.jpg","null","reveal","image-keyboard-response","360","1089448","0.0-6.0-4.50","2663194","co39139","norming","","","","","","",""
"null","../img/tt/1260tt.jpg","null","mooney2","image-keyboard-response","361","1091450","0.0-6.0-5.50","2663194","co39139","norming","","","","","","",""
"3120.7050000012387","","","post_reveal_questions","survey-likert","362","1094574","0.0-6.0-6.50","2663194","co39139","norming","","","{""aha"":4}","[0]","../img/tt/1260tt.jpg","",""
"null","<div style=""font-size:60px;""> </div>","null","fixation","html-keyboard-response","363","1094783","0.0-6.0-0.51","2663194","co39139","norming","","","","","","",""
"null","../img/tt/010tt.jpg","null","mooney1","image-keyboard-response","364","1097789","0.0-6.0-1.51","2663194","co39139","norming","","","","","","",""
"6197.864999999991","","","post_mooney1_questions","survey-likert","365","1103990","0.0-6.0-2.51","2663194","co39139","norming","","","{""curiosity"":6,""confidence"":0}","[0,1]","../img/tt/010tt.jpg","",""
"526.2849999999162","","","recognition","survey-text","366","1104518","0.0-6.0-3.51","2663194","co39139","norming","","","{""guess"":""""}","","../img/tt/010tt.jpg","",""
"null","../img/gs/010gs.jpg","null","reveal","image-keyboard-response","367","1106526","0.0-6.0-4.51","2663194","co39139","norming","","","","","","",""
"null","../img/tt/010tt.jpg","null","mooney2","image-keyboard-response","368","1108528","0.0-6.0-5.51","2663194","co39139","norming","","","","","","",""
"3802.3899999989662","","","post_reveal_questions","survey-likert","369","1112333","0.0-6.0-6.51","2663194","co39139","norming","","","{""aha"":1}","[0]","../img/tt/010tt.jpg","",""
"null","<div style=""font-size:60px;""> </div>","null","fixation","html-keyboard-response","370","1112544","0.0-6.0-0.52","2663194","co39139","norming","","","","","","",""
"null","../img/tt/112tt.jpg","null","mooney1","image-keyboard-response","371","1115552","0.0-6.0-1.52","2663194","co39139","norming","","","","","","",""
"3521.9149999993388","","","post_mooney1_questions","survey-likert","372","1119078","0.0-6.0-2.52","2663194","co39139","norming","","","{""curiosity"":6,""confidence"":3}","[0,1]","../img/tt/112tt.jpg","",""
"2894.115000000922","","","recognition","survey-text","373","1121974","0.0-6.0-3.52","2663194","co39139","norming","","","{""guess"":""horloge""}","","../img/tt/112tt.jpg","",""
"null","../img/gs/112gs.jpg","null","reveal","image-keyboard-response","374","1123975","0.0-6.0-4.52","2663194","co39139","norming","","","","","","",""
"null","../img/tt/112tt.jpg","null","mooney2","image-keyboard-response","375","1125978","0.0-6.0-5.52","2663194","co39139","norming","","","","","","",""
"2144.6500000003725","","","post_reveal_questions","survey-likert","376","1128126","0.0-6.0-6.52","2663194","co39139","norming","","","{""aha"":6}","[0]","../img/tt/112tt.jpg","",""
"null","<div style=""font-size:60px;""> </div>","null","fixation","html-keyboard-response","377","1128333","0.0-6.0-0.53","2663194","co39139","norming","","","","","","",""
"null","../img/tt/081tt.jpg","null","mooney1","image-keyboard-response","378","1131337","0.0-6.0-1.53","2663194","co39139","norming","","","","","","",""
"2633.41500000027","","","post_mooney1_questions","survey-likert","379","1133974","0.0-6.0-2.53","2663194","co39139","norming","","","{""curiosity"":6,""confidence"":5}","[0,1]","../img/tt/081tt.jpg","",""
"2062.260000000708","","","recognition","survey-text","380","1136038","0.0-6.0-3.53","2663194","co39139","norming","","","{""guess"":""kikker""}","","../img/tt/081tt.jpg","",""
"null","../img/gs/081gs.jpg","null","reveal","image-keyboard-response","381","1138046","0.0-6.0-4.53","2663194","co39139","norming","","","","","","",""
"null","../img/tt/081tt.jpg","null","mooney2","image-keyboard-response","382","1140049","0.0-6.0-5.53","2663194","co39139","norming","","","","","","",""
"1937.8999999992084","","","post_reveal_questions","survey-likert","383","1141990","0.0-6.0-6.53","2663194","co39139","norming","","","{""aha"":6}","[0]","../img/tt/081tt.jpg","",""
"null","<div style=""font-size:60px;""> </div>","null","fixation","html-keyboard-response","384","1142192","0.0-6.0-0.54","2663194","co39139","norming","","","","","","",""
"null","../img/tt/1270tt.jpg","null","mooney1","image-keyboard-response","385","1145199","0.0-6.0-1.54","2663194","co39139","norming","","","","","","",""
"5307.034999999916","","","post_mooney1_questions","survey-likert","386","1150510","0.0-6.0-2.54","2663194","co39139","norming","","","{""curiosity"":5,""confidence"":5}","[0,1]","../img/tt/1270tt.jpg","",""
"6710.460000000196","","","recognition","survey-text","387","1157222","0.0-6.0-3.54","2663194","co39139","norming","","","{""guess"":""muis of hamster""}","","../img/tt/1270tt.jpg","",""
"null","../img/gs/1270gs.jpg","null","reveal","image-keyboard-response","388","1159225","0.0-6.0-4.54","2663194","co39139","norming","","","","","","",""
"null","../img/tt/1270tt.jpg","null","mooney2","image-keyboard-response","389","1161231","0.0-6.0-5.54","2663194","co39139","norming","","","","","","",""
"2163.0600000007544","","","post_reveal_questions","survey-likert","390","1163398","0.0-6.0-6.54","2663194","co39139","norming","","","{""aha"":5}","[0]","../img/tt/1270tt.jpg","",""
"null","<div style=""font-size:60px;""> </div>","null","fixation","html-keyboard-response","391","1163606","0.0-6.0-0.55","2663194","co39139","norming","","","","","","",""
"null","../img/tt/1224tt.jpg","null","mooney1","image-keyboard-response","392","1166610","0.0-6.0-1.55","2663194","co39139","norming","","","","","","",""
"3753.705000001006","","","post_mooney1_questions","survey-likert","393","1170366","0.0-6.0-2.55","2663194","co39139","norming","","","{""curiosity"":5,""confidence"":4}","[0,1]","../img/tt/1224tt.jpg","",""
"2102.225000000559","","","recognition","survey-text","394","1172470","0.0-6.0-3.55","2663194","co39139","norming","","","{""guess"":""man""}","","../img/tt/1224tt.jpg","",""
"null","../img/gs/1224gs.jpg","null","reveal","image-keyboard-response","395","1174471","0.0-6.0-4.55","2663194","co39139","norming","","","","","","",""
"null","../img/tt/1224tt.jpg","null","mooney2","image-keyboard-response","396","1176482","0.0-6.0-5.55","2663194","co39139","norming","","","","","","",""
"3401.6150000004563","","","post_reveal_questions","survey-likert","397","1179886","0.0-6.0-6.55","2663194","co39139","norming","","","{""aha"":4}","[0]","../img/tt/1224tt.jpg","",""
"null","<div style=""font-size:60px;""> </div>","null","fixation","html-keyboard-response","398","1180088","0.0-6.0-0.56","2663194","co39139","norming","","","","","","",""
"null","../img/tt/1102tt.jpg","null","mooney1","image-keyboard-response","399","1183098","0.0-6.0-1.56","2663194","co39139","norming","","","","","","",""
"3873.2449999989476","","","post_mooney1_questions","survey-likert","400","1186974","0.0-6.0-2.56","2663194","co39139","norming","","","{""curiosity"":4,""confidence"":0}","[0,1]","../img/tt/1102tt.jpg","",""
"750.1000000010245","","","recognition","survey-text","401","1187726","0.0-6.0-3.56","2663194","co39139","norming","","","{""guess"":""""}","","../img/tt/1102tt.jpg","",""
"null","../img/gs/1102gs.jpg","null","reveal","image-keyboard-response","402","1189733","0.0-6.0-4.56","2663194","co39139","norming","","","","","","",""
"null","../img/tt/1102tt.jpg","null","mooney2","image-keyboard-response","403","1191743","0.0-6.0-5.56","2663194","co39139","norming","","","","","","",""
"2715.1849999991246","","","post_reveal_questions","survey-likert","404","1194462","0.0-6.0-6.56","2663194","co39139","norming","","","{""aha"":5}","[0]","../img/tt/1102tt.jpg","",""
"null","<div style=""font-size:60px;""> </div>","null","fixation","html-keyboard-response","405","1194666","0.0-6.0-0.57","2663194","co39139","norming","","","","","","",""
"null","../img/tt/534tt.jpg","null","mooney1","image-keyboard-response","406","1197672","0.0-6.0-1.57","2663194","co39139","norming","","","","","","",""
"4786.129999998491","","","post_mooney1_questions","survey-likert","407","1202459","0.0-6.0-2.57","2663194","co39139","norming","","","{""curiosity"":5,""confidence"":0}","[0,1]","../img/tt/534tt.jpg","",""
"1374.0950000011362","","","recognition","survey-text","408","1203835","0.0-6.0-3.57","2663194","co39139","norming","","","{""guess"":""""}","","../img/tt/534tt.jpg","",""
"null","../img/gs/534gs.jpg","null","reveal","image-keyboard-response","409","1205841","0.0-6.0-4.57","2663194","co39139","norming","","","","","","",""
"null","../img/tt/534tt.jpg","null","mooney2","image-keyboard-response","410","1207843","0.0-6.0-5.57","2663194","co39139","norming","","","","","","",""
"4676.720000001136","","","post_reveal_questions","survey-likert","411","1212523","0.0-6.0-6.57","2663194","co39139","norming","","","{""aha"":1}","[0]","../img/tt/534tt.jpg","",""
"null","<div style=""font-size:60px;""> </div>","null","fixation","html-keyboard-response","412","1212727","0.0-6.0-0.58","2663194","co39139","norming","","","","","","",""
"null","../img/tt/329tt.jpg","null","mooney1","image-keyboard-response","413","1215731","0.0-6.0-1.58","2663194","co39139","norming","","","","","","",""
"6308.465000000084","","","post_mooney1_questions","survey-likert","414","1222043","0.0-6.0-2.58","2663194","co39139","norming","","","{""curiosity"":5,""confidence"":0}","[0,1]","../img/tt/329tt.jpg","",""
"2022.010000000475","","","recognition","survey-text","415","1224067","0.0-6.0-3.58","2663194","co39139","norming","","","{""guess"":""stoel""}","","../img/tt/329tt.jpg","",""
"null","../img/gs/329gs.jpg","null","reveal","image-keyboard-response","416","1226075","0.0-6.0-4.58","2663194","co39139","norming","","","","","","",""
"null","../img/tt/329tt.jpg","null","mooney2","image-keyboard-response","417","1228086","0.0-6.0-5.58","2663194","co39139","norming","","","","","","",""
"4098.384999999311","","","post_reveal_questions","survey-likert","418","1232187","0.0-6.0-6.58","2663194","co39139","norming","","","{""aha"":3}","[0]","../img/tt/329tt.jpg","",""
"null","<div style=""font-size:60px;""> </div>","null","fixation","html-keyboard-response","419","1232391","0.0-6.0-0.59","2663194","co39139","norming","","","","","","",""
"null","../img/tt/1070tt.jpg","null","mooney1","image-keyboard-response","420","1235397","0.0-6.0-1.59","2663194","co39139","norming","","","","","","",""
"4491.229999999516","","","post_mooney1_questions","survey-likert","421","1239891","0.0-6.0-2.59","2663194","co39139","norming","","","{""curiosity"":5,""confidence"":4}","[0,1]","../img/tt/1070tt.jpg","",""
"2157.7400000004563","","","recognition","survey-text","422","1242050","0.0-6.0-3.59","2663194","co39139","norming","","","{""guess"":""taart""}","","../img/tt/1070tt.jpg","",""
"null","../img/gs/1070gs.jpg","null","reveal","image-keyboard-response","423","1244056","0.0-6.0-4.59","2663194","co39139","norming","","","","","","",""
"null","../img/tt/1070tt.jpg","null","mooney2","image-keyboard-response","424","1246062","0.0-6.0-5.59","2663194","co39139","norming","","","","","","",""
"2234.5650000006426","","","post_reveal_questions","survey-likert","425","1248299","0.0-6.0-6.59","2663194","co39139","norming","","","{""aha"":5}","[0]","../img/tt/1070tt.jpg","",""
"null","<div style=""font-size:60px;""> </div>","null","fixation","html-keyboard-response","426","1248500","0.0-6.0-0.60","2663194","co39139","norming","","","","","","",""
"null","../img/tt/056tt.jpg","null","mooney1","image-keyboard-response","427","1251503","0.0-6.0-1.60","2663194","co39139","norming","","","","","","",""
"5183.8100000005215","","","post_mooney1_questions","survey-likert","428","1256691","0.0-6.0-2.60","2663194","co39139","norming","","","{""curiosity"":5,""confidence"":4}","[0,1]","../img/tt/056tt.jpg","",""
"1646.199999999255","","","recognition","survey-text","429","1258339","0.0-6.0-3.60","2663194","co39139","norming","","","{""guess"":""wolf""}","","../img/tt/056tt.jpg","",""
"null","../img/gs/056gs.jpg","null","reveal","image-keyboard-response","430","1260350","0.0-6.0-4.60","2663194","co39139","norming","","","","","","",""
"null","../img/tt/056tt.jpg","null","mooney2","image-keyboard-response","431","1262355","0.0-6.0-5.60","2663194","co39139","norming","","","","","","",""
"2464.9849999987055","","","post_reveal_questions","survey-likert","432","1264823","0.0-6.0-6.60","2663194","co39139","norming","","","{""aha"":5}","[0]","../img/tt/056tt.jpg","",""
"null","<div style=""font-size:60px;""> </div>","null","fixation","html-keyboard-response","433","1265025","0.0-6.0-0.61","2663194","co39139","norming","","","","","","",""
"null","../img/tt/507tt.jpg","null","mooney1","image-keyboard-response","434","1268028","0.0-6.0-1.61","2663194","co39139","norming","","","","","","",""
"4790.825000000186","","","post_mooney1_questions","survey-likert","435","1272823","0.0-6.0-2.61","2663194","co39139","norming","","","{""curiosity"":3,""confidence"":0}","[0,1]","../img/tt/507tt.jpg","",""
"1150.1349999997765","","","recognition","survey-text","436","1273975","0.0-6.0-3.61","2663194","co39139","norming","","","{""guess"":""""}","","../img/tt/507tt.jpg","",""
"null","../img/gs/507gs.jpg","null","reveal","image-keyboard-response","437","1275976","0.0-6.0-4.61","2663194","co39139","norming","","","","","","",""
"null","../img/tt/507tt.jpg","null","mooney2","image-keyboard-response","438","1277980","0.0-6.0-5.61","2663194","co39139","norming","","","","","","",""
"2751.5000000004657","","","post_reveal_questions","survey-likert","439","1280734","0.0-6.0-6.61","2663194","co39139","norming","","","{""aha"":2}","[0]","../img/tt/507tt.jpg","",""
"null","<div style=""font-size:60px;""> </div>","null","fixation","html-keyboard-response","440","1280943","0.0-6.0-0.62","2663194","co39139","norming","","","","","","",""
"null","../img/tt/1236tt.jpg","null","mooney1","image-keyboard-response","441","1283950","0.0-6.0-1.62","2663194","co39139","norming","","","","","","",""
"3316.530000000028","","","post_mooney1_questions","survey-likert","442","1287271","0.0-6.0-2.62","2663194","co39139","norming","","","{""curiosity"":5,""confidence"":4}","[0,1]","../img/tt/1236tt.jpg","",""
"2141.9850000001024","","","recognition","survey-text","443","1289415","0.0-6.0-3.62","2663194","co39139","norming","","","{""guess"":""otter""}","","../img/tt/1236tt.jpg","",""
"null","../img/gs/1236gs.jpg","null","reveal","image-keyboard-response","444","1291422","0.0-6.0-4.62","2663194","co39139","norming","","","","","","",""
"null","../img/tt/1236tt.jpg","null","mooney2","image-keyboard-response","445","1293431","0.0-6.0-5.62","2663194","co39139","norming","","","","","","",""
"3164.569999999134","","","post_reveal_questions","survey-likert","446","1296599","0.0-6.0-6.62","2663194","co39139","norming","","","{""aha"":3}","[0]","../img/tt/1236tt.jpg","",""
"null","<div style=""font-size:60px;""> </div>","null","fixation","html-keyboard-response","447","1296800","0.0-6.0-0.63","2663194","co39139","norming","","","","","","",""
"null","../img/tt/315tt.jpg","null","mooney1","image-keyboard-response","448","1299804","0.0-6.0-1.63","2663194","co39139","norming","","","","","","",""
"3825.2450000001118","","","post_mooney1_questions","survey-likert","449","1303631","0.0-6.0-2.63","2663194","co39139","norming","","","{""curiosity"":5,""confidence"":5}","[0,1]","../img/tt/315tt.jpg","",""
"2438.400000000838","","","recognition","survey-text","450","1306071","0.0-6.0-3.63","2663194","co39139","norming","","","{""guess"":""vogel""}","","../img/tt/315tt.jpg","",""
"null","../img/gs/315gs.jpg","null","reveal","image-keyboard-response","451","1308078","0.0-6.0-4.63","2663194","co39139","norming","","","","","","",""
"null","../img/tt/315tt.jpg","null","mooney2","image-keyboard-response","452","1310088","0.0-6.0-5.63","2663194","co39139","norming","","","","","","",""
"2939.4049999990966","","","post_reveal_questions","survey-likert","453","1313031","0.0-6.0-6.63","2663194","co39139","norming","","","{""aha"":5}","[0]","../img/tt/315tt.jpg","",""
"null","<div style=""font-size:60px;""> </div>","null","fixation","html-keyboard-response","454","1313232","0.0-6.0-0.64","2663194","co39139","norming","","","","","","",""
"null","../img/tt/1127tt.jpg","null","mooney1","image-keyboard-response","455","1316239","0.0-6.0-1.64","2663194","co39139","norming","","","","","","",""
"3507.8549999997485","","","post_mooney1_questions","survey-likert","456","1319751","0.0-6.0-2.64","2663194","co39139","norming","","","{""curiosity"":5,""confidence"":4}","[0,1]","../img/tt/1127tt.jpg","",""
"5230.159999999218","","","recognition","survey-text","457","1324981","0.0-6.0-3.64","2663194","co39139","norming","","","{""guess"":""gevechtsport""}","","../img/tt/1127tt.jpg","",""
"null","../img/gs/1127gs.jpg","null","reveal","image-keyboard-response","458","1326992","0.0-6.0-4.64","2663194","co39139","norming","","","","","","",""
"null","../img/tt/1127tt.jpg","null","mooney2","image-keyboard-response","459","1328995","0.0-6.0-5.64","2663194","co39139","norming","","","","","","",""
"2143.1050000009127","","","post_reveal_questions","survey-likert","460","1331141","0.0-6.0-6.64","2663194","co39139","norming","","","{""aha"":4}","[0]","../img/tt/1127tt.jpg","",""
"null","<div style=""font-size:60px;""> </div>","null","fixation","html-keyboard-response","461","1331352","0.0-6.0-0.65","2663194","co39139","norming","","","","","","",""
"null","../img/tt/1255tt.jpg","null","mooney1","image-keyboard-response","462","1334357","0.0-6.0-1.65","2663194","co39139","norming","","","","","","",""
"2908.449999999022","","","post_mooney1_questions","survey-likert","463","1337269","0.0-6.0-2.65","2663194","co39139","norming","","","{""curiosity"":4,""confidence"":4}","[0,1]","../img/tt/1255tt.jpg","",""
"2814.505000000354","","","recognition","survey-text","464","1340085","0.0-6.0-3.65","2663194","co39139","norming","","","{""guess"":""konijn""}","","../img/tt/1255tt.jpg","",""
"null","../img/gs/1255gs.jpg","null","reveal","image-keyboard-response","465","1342090","0.0-6.0-4.65","2663194","co39139","norming","","","","","","",""
"null","../img/tt/1255tt.jpg","null","mooney2","image-keyboard-response","466","1344091","0.0-6.0-5.65","2663194","co39139","norming","","","","","","",""
"4222.7050000000745","","","post_reveal_questions","survey-likert","467","1348317","0.0-6.0-6.65","2663194","co39139","norming","","","{""aha"":3}","[0]","../img/tt/1255tt.jpg","",""
"null","<div style=""font-size:60px;""> </div>","null","fixation","html-keyboard-response","468","1348523","0.0-6.0-0.66","2663194","co39139","norming","","","","","","",""
"null","../img/tt/008tt.jpg","null","mooney1","image-keyboard-response","469","1351534","0.0-6.0-1.66","2663194","co39139","norming","","","","","","",""
"3851.354999998817","","","post_mooney1_questions","survey-likert","470","1355389","0.0-6.0-2.66","2663194","co39139","norming","","","{""curiosity"":4,""confidence"":2}","[0,1]","../img/tt/008tt.jpg","",""
"2805.940000000177","","","recognition","survey-text","471","1358197","0.0-6.0-3.66","2663194","co39139","norming","","","{""guess"":""geweer""}","","../img/tt/008tt.jpg","",""
"null","../img/gs/008gs.jpg","null","reveal","image-keyboard-response","472","1360198","0.0-6.0-4.66","2663194","co39139","norming","","","","","","",""
"null","../img/tt/008tt.jpg","null","mooney2","image-keyboard-response","473","1362204","0.0-6.0-5.66","2663194","co39139","norming","","","","","","",""
"2384.0099999997765","","","post_reveal_questions","survey-likert","474","1364589","0.0-6.0-6.66","2663194","co39139","norming","","","{""aha"":5}","[0]","../img/tt/008tt.jpg","",""
"null","<div style=""font-size:60px;""> </div>","null","fixation","html-keyboard-response","475","1364799","0.0-6.0-0.67","2663194","co39139","norming","","","","","","",""
"null","../img/tt/1353tt.jpg","null","mooney1","image-keyboard-response","476","1367807","0.0-6.0-1.67","2663194","co39139","norming","","","","","","",""
"3914.0449999996927","","","post_mooney1_questions","survey-likert","477","1371725","0.0-6.0-2.67","2663194","co39139","norming","","","{""curiosity"":4,""confidence"":1}","[0,1]","../img/tt/1353tt.jpg","",""
"3126.144999998389","","","recognition","survey-text","478","1374853","0.0-6.0-3.67","2663194","co39139","norming","","","{""guess"":""ring""}","","../img/tt/1353tt.jpg","",""
"null","../img/gs/1353gs.jpg","null","reveal","image-keyboard-response","479","1376859","0.0-6.0-4.67","2663194","co39139","norming","","","","","","",""
"null","../img/tt/1353tt.jpg","null","mooney2","image-keyboard-response","480","1378872","0.0-6.0-5.67","2663194","co39139","norming","","","","","","",""
"3185.9150000000373","","","post_reveal_questions","survey-likert","481","1382060","0.0-6.0-6.67","2663194","co39139","norming","","","{""aha"":5}","[0]","../img/tt/1353tt.jpg","",""
"null","<div style=""font-size:60px;""> </div>","null","fixation","html-keyboard-response","482","1382262","0.0-6.0-0.68","2663194","co39139","norming","","","","","","",""
"null","../img/tt/584tt.jpg","null","mooney1","image-keyboard-response","483","1385275","0.0-6.0-1.68","2663194","co39139","norming","","","","","","",""
"3893.850000000326","","","post_mooney1_questions","survey-likert","484","1389172","0.0-6.0-2.68","2663194","co39139","norming","","","{""curiosity"":6,""confidence"":0}","[0,1]","../img/tt/584tt.jpg","",""
"741.9799999988172","","","recognition","survey-text","485","1389916","0.0-6.0-3.68","2663194","co39139","norming","","","{""guess"":""""}","","../img/tt/584tt.jpg","",""
"null","../img/gs/584gs.jpg","null","reveal","image-keyboard-response","486","1391924","0.0-6.0-4.68","2663194","co39139","norming","","","","","","",""
"null","../img/tt/584tt.jpg","null","mooney2","image-keyboard-response","487","1393934","0.0-6.0-5.68","2663194","co39139","norming","","","","","","",""
"3051.1200000001118","","","post_reveal_questions","survey-likert","488","1396988","0.0-6.0-6.68","2663194","co39139","norming","","","{""aha"":4}","[0]","../img/tt/584tt.jpg","",""
"null","<div style=""font-size:60px;""> </div>","null","fixation","html-keyboard-response","489","1397196","0.0-6.0-0.69","2663194","co39139","norming","","","","","","",""
"null","../img/tt/1096tt.jpg","null","mooney1","image-keyboard-response","490","1400200","0.0-6.0-1.69","2663194","co39139","norming","","","","","","",""
"3945.084999999497","","","post_mooney1_questions","survey-likert","491","1404148","0.0-6.0-2.69","2663194","co39139","norming","","","{""curiosity"":5,""confidence"":2}","[0,1]","../img/tt/1096tt.jpg","",""
"2350.244999999646","","","recognition","survey-text","492","1406500","0.0-6.0-3.69","2663194","co39139","norming","","","{""guess"":""stal""}","","../img/tt/1096tt.jpg","",""
"null","../img/gs/1096gs.jpg","null","reveal","image-keyboard-response","493","1408506","0.0-6.0-4.69","2663194","co39139","norming","","","","","","",""
"null","../img/tt/1096tt.jpg","null","mooney2","image-keyboard-response","494","1410517","0.0-6.0-5.69","2663194","co39139","norming","","","","","","",""
"2203.7849999996834","","","post_reveal_questions","survey-likert","495","1412724","0.0-6.0-6.69","2663194","co39139","norming","","","{""aha"":5}","[0]","../img/tt/1096tt.jpg","",""
"null","<div style=""font-size:60px;""> </div>","null","fixation","html-keyboard-response","496","1412929","0.0-6.0-0.70","2663194","co39139","norming","","","","","","",""
"null","../img/tt/222tt.jpg","null","mooney1","image-keyboard-response","497","1415935","0.0-6.0-1.70","2663194","co39139","norming","","","","","","",""
"4249.010000001406","","","post_mooney1_questions","survey-likert","498","1420188","0.0-6.0-2.70","2663194","co39139","norming","","","{""curiosity"":6,""confidence"":0}","[0,1]","../img/tt/222tt.jpg","",""
"814.2149999986868","","","recognition","survey-text","499","1421004","0.0-6.0-3.70","2663194","co39139","norming","","","{""guess"":""""}","","../img/tt/222tt.jpg","",""
"null","../img/gs/222gs.jpg","null","reveal","image-keyboard-response","500","1423010","0.0-6.0-4.70","2663194","co39139","norming","","","","","","",""
"null","../img/tt/222tt.jpg","null","mooney2","image-keyboard-response","501","1425021","0.0-6.0-5.70","2663194","co39139","norming","","","","","","",""
"3476.1049999997485","","","post_reveal_questions","survey-likert","502","1428500","0.0-6.0-6.70","2663194","co39139","norming","","","{""aha"":2}","[0]","../img/tt/222tt.jpg","",""
"null","<div style=""font-size:60px;""> </div>","null","fixation","html-keyboard-response","503","1428701","0.0-6.0-0.71","2663194","co39139","norming","","","","","","",""
"null","../img/tt/123tt.jpg","null","mooney1","image-keyboard-response","504","1431705","0.0-6.0-1.71","2663194","co39139","norming","","","","","","",""
"4975.164999999804","","","post_mooney1_questions","survey-likert","505","1436684","0.0-6.0-2.71","2663194","co39139","norming","","","{""curiosity"":5,""confidence"":1}","[0,1]","../img/tt/123tt.jpg","",""
"2534.2700000000186","","","recognition","survey-text","506","1439220","0.0-6.0-3.71","2663194","co39139","norming","","","{""guess"":""koffer""}","","../img/tt/123tt.jpg","",""
"null","../img/gs/123gs.jpg","null","reveal","image-keyboard-response","507","1441221","0.0-6.0-4.71","2663194","co39139","norming","","","","","","",""
"null","../img/tt/123tt.jpg","null","mooney2","image-keyboard-response","508","1443228","0.0-6.0-5.71","2663194","co39139","norming","","","","","","",""
"2288.4949999989476","","","post_reveal_questions","survey-likert","509","1445519","0.0-6.0-6.71","2663194","co39139","norming","","","{""aha"":5}","[0]","../img/tt/123tt.jpg","",""
"null","<div style=""font-size:60px;""> </div>","null","fixation","html-keyboard-response","510","1445720","0.0-6.0-0.72","2663194","co39139","norming","","","","","","",""
"null","../img/tt/1061tt.jpg","null","mooney1","image-keyboard-response","511","1448723","0.0-6.0-1.72","2663194","co39139","norming","","","","","","",""
"3379.055000001332","","","post_mooney1_questions","survey-likert","512","1452104","0.0-6.0-2.72","2663194","co39139","norming","","","{""curiosity"":4,""confidence"":2}","[0,1]","../img/tt/1061tt.jpg","",""
"2813.9800000009127","","","recognition","survey-text","513","1454919","0.0-6.0-3.72","2663194","co39139","norming","","","{""guess"":""baseball""}","","../img/tt/1061tt.jpg","",""
"null","../img/gs/1061gs.jpg","null","reveal","image-keyboard-response","514","1456924","0.0-6.0-4.72","2663194","co39139","norming","","","","","","",""
"null","../img/tt/1061tt.jpg","null","mooney2","image-keyboard-response","515","1458925","0.0-6.0-5.72","2663194","co39139","norming","","","","","","",""
"3159.314999999013","","","post_reveal_questions","survey-likert","516","1462087","0.0-6.0-6.72","2663194","co39139","norming","","","{""aha"":4}","[0]","../img/tt/1061tt.jpg","",""
"null","<div style=""font-size:60px;""> </div>","null","fixation","html-keyboard-response","517","1462295","0.0-6.0-0.73","2663194","co39139","norming","","","","","","",""
"null","../img/tt/380tt.jpg","null","mooney1","image-keyboard-response","518","1465302","0.0-6.0-1.73","2663194","co39139","norming","","","","","","",""
"5957.235000001732","","","post_mooney1_questions","survey-likert","519","1471263","0.0-6.0-2.73","2663194","co39139","norming","","","{""curiosity"":6,""confidence"":0}","[0,1]","../img/tt/380tt.jpg","",""
"1182.2000000011176","","","recognition","survey-text","520","1472447","0.0-6.0-3.73","2663194","co39139","norming","","","{""guess"":""""}","","../img/tt/380tt.jpg","",""
"null","../img/gs/380gs.jpg","null","reveal","image-keyboard-response","521","1474452","0.0-6.0-4.73","2663194","co39139","norming","","","","","","",""
"null","../img/tt/380tt.jpg","null","mooney2","image-keyboard-response","522","1476460","0.0-6.0-5.73","2663194","co39139","norming","","","","","","",""
"3448.609999999404","","","post_reveal_questions","survey-likert","523","1479911","0.0-6.0-6.73","2663194","co39139","norming","","","{""aha"":0}","[0]","../img/tt/380tt.jpg","",""
"null","<div style=""font-size:60px;""> </div>","null","fixation","html-keyboard-response","524","1480113","0.0-6.0-0.74","2663194","co39139","norming","","","","","","",""
"null","../img/tt/007tt.jpg","null","mooney1","image-keyboard-response","525","1483125","0.0-6.0-1.74","2663194","co39139","norming","","","","","","",""
"3606.460000000894","","","post_mooney1_questions","survey-likert","526","1486735","0.0-6.0-2.74","2663194","co39139","norming","","","{""curiosity"":6,""confidence"":0}","[0,1]","../img/tt/007tt.jpg","",""
"502.00000000046566","","","recognition","survey-text","527","1487239","0.0-6.0-3.74","2663194","co39139","norming","","","{""guess"":""""}","","../img/tt/007tt.jpg","",""
"null","../img/gs/007gs.jpg","null","reveal","image-keyboard-response","528","1489244","0.0-6.0-4.74","2663194","co39139","norming","","","","","","",""
"null","../img/tt/007tt.jpg","null","mooney2","image-keyboard-response","529","1491255","0.0-6.0-5.74","2663194","co39139","norming","","","","","","",""
"2764.93500000122","","","post_reveal_questions","survey-likert","530","1494023","0.0-6.0-6.74","2663194","co39139","norming","","","{""aha"":0}","[0]","../img/tt/007tt.jpg","",""
"null","<div style=""font-size:60px;""> </div>","null","fixation","html-keyboard-response","531","1494230","0.0-6.0-0.75","2663194","co39139","norming","","","","","","",""
"null","../img/tt/412tt.jpg","null","mooney1","image-keyboard-response","532","1497236","0.0-6.0-1.75","2663194","co39139","norming","","","","","","",""
"3975.6450000004843","","","post_mooney1_questions","survey-likert","533","1501215","0.0-6.0-2.75","2663194","co39139","norming","","","{""curiosity"":6,""confidence"":0}","[0,1]","../img/tt/412tt.jpg","",""
"3686.475000000559","","","recognition","survey-text","534","1504901","0.0-6.0-3.75","2663194","co39139","norming","","","{""guess"":""hand""}","","../img/tt/412tt.jpg","",""
"null","../img/gs/412gs.jpg","null","reveal","image-keyboard-response","535","1506905","0.0-6.0-4.75","2663194","co39139","norming","","","","","","",""
"null","../img/tt/412tt.jpg","null","mooney2","image-keyboard-response","536","1508912","0.0-6.0-5.75","2663194","co39139","norming","","","","","","",""
"2634.2999999998137","","","post_reveal_questions","survey-likert","537","1511549","0.0-6.0-6.75","2663194","co39139","norming","","","{""aha"":0}","[0]","../img/tt/412tt.jpg","",""
"null","<div style=""font-size:60px;""> </div>","null","fixation","html-keyboard-response","538","1511751","0.0-6.0-0.76","2663194","co39139","norming","","","","","","",""
"null","../img/tt/1107tt.jpg","null","mooney1","image-keyboard-response","539","1514764","0.0-6.0-1.76","2663194","co39139","norming","","","","","","",""
"3839.9300000001676","","","post_mooney1_questions","survey-likert","540","1518605","0.0-6.0-2.76","2663194","co39139","norming","","","{""curiosity"":5,""confidence"":1}","[0,1]","../img/tt/1107tt.jpg","",""
"2085.2099999992643","","","recognition","survey-text","541","1520692","0.0-6.0-3.76","2663194","co39139","norming","","","{""guess"":""koppel""}","","../img/tt/1107tt.jpg","",""
"null","../img/gs/1107gs.jpg","null","reveal","image-keyboard-response","542","1522698","0.0-6.0-4.76","2663194","co39139","norming","","","","","","",""
"null","../img/tt/1107tt.jpg","null","mooney2","image-keyboard-response","543","1524700","0.0-6.0-5.76","2663194","co39139","norming","","","","","","",""
"5271.430000000866","","","post_reveal_questions","survey-likert","544","1529973","0.0-6.0-6.76","2663194","co39139","norming","","","{""aha"":4}","[0]","../img/tt/1107tt.jpg","",""
"null","<div style=""font-size:60px;""> </div>","null","fixation","html-keyboard-response","545","1530181","0.0-6.0-0.77","2663194","co39139","norming","","","","","","",""
"null","../img/tt/1191tt.jpg","null","mooney1","image-keyboard-response","546","1533187","0.0-6.0-1.77","2663194","co39139","norming","","","","","","",""
"4094.31500000041","","","post_mooney1_questions","survey-likert","547","1537285","0.0-6.0-2.77","2663194","co39139","norming","","","{""curiosity"":5,""confidence"":1}","[0,1]","../img/tt/1191tt.jpg","",""
"3053.855000000214","","","recognition","survey-text","548","1540341","0.0-6.0-3.77","2663194","co39139","norming","","","{""guess"":""baseball""}","","../img/tt/1191tt.jpg","",""
"null","../img/gs/1191gs.jpg","null","reveal","image-keyboard-response","549","1542350","0.0-6.0-4.77","2663194","co39139","norming","","","","","","",""
"null","../img/tt/1191tt.jpg","null","mooney2","image-keyboard-response","550","1544357","0.0-6.0-5.77","2663194","co39139","norming","","","","","","",""
"2725.0450000010896","","","post_reveal_questions","survey-likert","551","1547085","0.0-6.0-6.77","2663194","co39139","norming","","","{""aha"":2}","[0]","../img/tt/1191tt.jpg","",""
"null","<div style=""font-size:60px;""> </div>","null","fixation","html-keyboard-response","552","1547290","0.0-6.0-0.78","2663194","co39139","norming","","","","","","",""
"null","../img/tt/1002tt.jpg","null","mooney1","image-keyboard-response","553","1550295","0.0-6.0-1.78","2663194","co39139","norming","","","","","","",""
