"rt","stimulus","key_press","test_part","trial_type","trial_index","time_elapsed","internal_node_id","totalTime","subject","experiment_name","button_pressed","success","responses","question_order","currentStim","old","correct"
"10446.815000000015","Welcome to the experiment. This is an online experiment so please don't close the tab/window until we say goodbye.  Press any key to begin.","13","instructions","html-keyboard-response","0","10460","0.0-0.0","3142902","co39754","norming","","","","","","",""
"22710.175000000054","<div style='word-wrap: break-word; width: 900px'><h3>Please consider this information carefully before deciding whether to participate in this research</h3><ul style='text-align: left; font-size: .8em;'><li><b>Purpose of the research</b>: To examine how people process images.</li><li><b>What you will do in this research</b>:  Stimuli (images) will be presented on the computer and you will be asked different questions about them.</li><li><b>Time required</b>: Participation will take between 45 and 60 minutes to complete.</li><li><b>Risks</b>:  There are no anticipated risks associated with participating in this study. The effects of participating should be comparable to those you would experience from viewing a computer monitor for 30 minutes and using a mouse or keyboard.</li><li><b>Benefits</b>:  This study provides no benefits to you individually except for the credit. The study provides important information about the nature of perception and learning.</li><li><b>Confidentiality</b>:  Your participation in this study will remain confidential. No personally identifiable information will be associated with your data. Your de-identified data may be shared with other researchers and used in future projects.</li><li><b>Participation and withdrawal</b>:  Your participation in this study is completely voluntary and you may refuse to participate or you may choose to withdraw at any time without penalty.</li><li><b>How to contact the researchers</b>: If you have questions or concerns about your participation or payment, or want to request a summary of research findings, please contact Sander Van de Cruys (KU Leuven), at sander.vandecruys@kuleuven.be.</li></ul><p>The nature and purpose of this research have been sufficiently explained and I agree to participate in this study.  I understand that I am free to withdraw at any time without incurring any penalty.</p><p>Please consent by clicking the button below to continue. Otherwise, please exit the study at this time.</p></div>","","instructions","html-button-response","1","33171","0.0-1.0","3142902","co39754","norming","0","","","","","",""
"","","","instructions","fullscreen","2","37959","0.0-2.0","3142902","co39754","norming","","true","","","","",""
"105119.78","","","sona","survey-html-form","3","143069","0.0-3.0","3142902","co39754","norming","","","[{""name"":""sonaid"",""value"":""39754""},{""name"":""debrief"",""value"":""yes""},{""name"":""datajoin"",""value"":""yes""}]","","","",""
"56578.22999999998","<div style='word-wrap: break-word; width: 900px'><h3>Instructions</h3><p>This experiment will have 3 parts. In the first part you will see a series of distorted images like the one below on the left. As you can see in the righthand image, the distorted images are derived from actual photographs. In what follows, you will <strong>briefly</strong> be presented with <strong>only</strong> the distorted image.</p> <div style='float: left; margin-right: 20px;'><img src='../img/018tt.jpg' height='250' width='250'></img></div><div style='float: right; margin-left: 20px;'><img src='../img/018gs.jpg' height='250' width='250'></img></div><p>Subsequently you will be asked a few questions about the image: One question on how <strong>curious</strong> you are about the solution and one on how <strong>confident</strong> you are that you know the solution.</p>Next, we ask you to make a guess on what is in the image. Note that it is OK to name just the <strong>basic level category</strong>. For example when you see a parrot in the image, 'parrot' will obviously be a correct answer but also correct is 'bird'. However, 'animal' will <strong>not</strong> be counted as a correct response. For the example above, 'rose' would be correct or 'flower', but not 'plant'. When soccer players are depicted, 'soccer', 'football', 'soccer players' will be correct, but not 'humans', 'outdoors', or 'sports'. You do not need to describe the image in full, just name the main object in it <strong>in one or two words</strong>. All images depict objects from one of the following broad level categories: animals, inanimate objects, plants, sports, vehicles, and food. Recognizing means knowing <strong>more</strong> than these broad labels for a given image. But we always encourage you to <strong>make a guess</strong> if you can. Note that you are allowed to use <strong>Dutch and English</strong> in your answers, whatever comes easiest for you.</p><p>Press any key to continue.</p></div>","13","instructions","html-keyboard-response","4","199643","0.0-4.0","3142902","co39754","norming","","","","","","",""
"12367.444999999978","<div style='word-wrap: break-word; width: 900px'><h3>Instructions</h3> <p>Next, the solution image will be revealed to you and you'll be asked to indicate how strong your <strong>aha-experience</strong> was after seeing the solution. This describes the positive feeling of the 'click' you sometimes experience, when the pieces of the 'puzzle' fall together and you suddenly have 'insight' in the image.</p><img src='aha.jpg' height='188' width='250'></img><p>Note that there are no right or wrong answers. We are interested in what <strong>you</strong> see in the image and how <strong>you</strong> feel about it.</p><p>Press any key to start the experiment.</p></div>","13","instructions","html-keyboard-response","5","212011","0.0-5.0","3142902","co39754","norming","","","","","","",""
"null","<div style=""font-size:60px;""> </div>","null","fixation","html-keyboard-response","6","212222","0.0-6.0-0.0","3142902","co39754","norming","","","","","","",""
"null","../img/tt/507tt.jpg","null","mooney1","image-keyboard-response","7","215230","0.0-6.0-1.0","3142902","co39754","norming","","","","","","",""
"11915.054999999935","","","post_mooney1_questions","survey-likert","8","227148","0.0-6.0-2.0","3142902","co39754","norming","","","{""curiosity"":0,""confidence"":0}","[0,1]","../img/tt/507tt.jpg","",""
"7901.640000000043","","","recognition","survey-text","9","235052","0.0-6.0-3.0","3142902","co39754","norming","","","{""guess"":""face""}","","../img/tt/507tt.jpg","",""
"null","../img/gs/507gs.jpg","null","reveal","image-keyboard-response","10","237058","0.0-6.0-4.0","3142902","co39754","norming","","","","","","",""
"null","../img/tt/507tt.jpg","null","mooney2","image-keyboard-response","11","239061","0.0-6.0-5.0","3142902","co39754","norming","","","","","","",""
"6204.654999999999","","","post_reveal_questions","survey-likert","12","245268","0.0-6.0-6.0","3142902","co39754","norming","","","{""aha"":1}","[0]","../img/tt/507tt.jpg","",""
"null","<div style=""font-size:60px;""> </div>","null","fixation","html-keyboard-response","13","245479","0.0-6.0-0.1","3142902","co39754","norming","","","","","","",""
"null","../img/tt/1205tt.jpg","null","mooney1","image-keyboard-response","14","248482","0.0-6.0-1.1","3142902","co39754","norming","","","","","","",""
"5423.155000000057","","","post_mooney1_questions","survey-likert","15","253908","0.0-6.0-2.1","3142902","co39754","norming","","","{""curiosity"":0,""confidence"":0}","[0,1]","../img/tt/1205tt.jpg","",""
"3246.2149999999965","","","recognition","survey-text","16","257155","0.0-6.0-3.1","3142902","co39754","norming","","","{""guess"":""""}","","../img/tt/1205tt.jpg","",""
"null","../img/gs/1205gs.jpg","null","reveal","image-keyboard-response","17","259161","0.0-6.0-4.1","3142902","co39754","norming","","","","","","",""
"null","../img/tt/1205tt.jpg","null","mooney2","image-keyboard-response","18","261169","0.0-6.0-5.1","3142902","co39754","norming","","","","","","",""
"3621.7399999999616","","","post_reveal_questions","survey-likert","19","264792","0.0-6.0-6.1","3142902","co39754","norming","","","{""aha"":0}","[0]","../img/tt/1205tt.jpg","",""
"null","<div style=""font-size:60px;""> </div>","null","fixation","html-keyboard-response","20","265002","0.0-6.0-0.2","3142902","co39754","norming","","","","","","",""
"null","../img/tt/1278tt.jpg","null","mooney1","image-keyboard-response","21","268009","0.0-6.0-1.2","3142902","co39754","norming","","","","","","",""
"9892.629999999946","","","post_mooney1_questions","survey-likert","22","277904","0.0-6.0-2.2","3142902","co39754","norming","","","{""curiosity"":0,""confidence"":0}","[0,1]","../img/tt/1278tt.jpg","",""
"3526.2049999999","","","recognition","survey-text","23","281432","0.0-6.0-3.2","3142902","co39754","norming","","","{""guess"":""face""}","","../img/tt/1278tt.jpg","",""
"null","../img/gs/1278gs.jpg","null","reveal","image-keyboard-response","24","283433","0.0-6.0-4.2","3142902","co39754","norming","","","","","","",""
"null","../img/tt/1278tt.jpg","null","mooney2","image-keyboard-response","25","285436","0.0-6.0-5.2","3142902","co39754","norming","","","","","","",""
"2409.3000000000466","","","post_reveal_questions","survey-likert","26","287848","0.0-6.0-6.2","3142902","co39754","norming","","","{""aha"":0}","[0]","../img/tt/1278tt.jpg","",""
"null","<div style=""font-size:60px;""> </div>","null","fixation","html-keyboard-response","27","288058","0.0-6.0-0.3","3142902","co39754","norming","","","","","","",""
"null","../img/tt/222tt.jpg","null","mooney1","image-keyboard-response","28","291070","0.0-6.0-1.3","3142902","co39754","norming","","","","","","",""
"4679.744999999937","","","post_mooney1_questions","survey-likert","29","295752","0.0-6.0-2.3","3142902","co39754","norming","","","{""curiosity"":0,""confidence"":0}","[0,1]","../img/tt/222tt.jpg","",""
"9821.79999999993","","","recognition","survey-text","30","305575","0.0-6.0-3.3","3142902","co39754","norming","","","{""guess"":""ship""}","","../img/tt/222tt.jpg","",""
"null","../img/gs/222gs.jpg","null","reveal","image-keyboard-response","31","307577","0.0-6.0-4.3","3142902","co39754","norming","","","","","","",""
"null","../img/tt/222tt.jpg","null","mooney2","image-keyboard-response","32","309582","0.0-6.0-5.3","3142902","co39754","norming","","","","","","",""
"4832.375000000058","","","post_reveal_questions","survey-likert","33","314416","0.0-6.0-6.3","3142902","co39754","norming","","","{""aha"":2}","[0]","../img/tt/222tt.jpg","",""
"null","<div style=""font-size:60px;""> </div>","null","fixation","html-keyboard-response","34","314626","0.0-6.0-0.4","3142902","co39754","norming","","","","","","",""
"null","../img/tt/060tt.jpg","null","mooney1","image-keyboard-response","35","317630","0.0-6.0-1.4","3142902","co39754","norming","","","","","","",""
"4615.890000000014","","","post_mooney1_questions","survey-likert","36","322239","0.0-6.0-2.4","3142902","co39754","norming","","","{""curiosity"":0,""confidence"":2}","[0,1]","../img/tt/060tt.jpg","",""
"2838.015000000014","","","recognition","survey-text","37","325078","0.0-6.0-3.4","3142902","co39754","norming","","","{""guess"":""bread""}","","../img/tt/060tt.jpg","",""
"null","../img/gs/060gs.jpg","null","reveal","image-keyboard-response","38","327084","0.0-6.0-4.4","3142902","co39754","norming","","","","","","",""
"null","../img/tt/060tt.jpg","null","mooney2","image-keyboard-response","39","329097","0.0-6.0-5.4","3142902","co39754","norming","","","","","","",""
"3155.680000000051","","","post_reveal_questions","survey-likert","40","332254","0.0-6.0-6.4","3142902","co39754","norming","","","{""aha"":1}","[0]","../img/tt/060tt.jpg","",""
"null","<div style=""font-size:60px;""> </div>","null","fixation","html-keyboard-response","41","332455","0.0-6.0-0.5","3142902","co39754","norming","","","","","","",""
"null","../img/tt/567tt.jpg","null","mooney1","image-keyboard-response","42","335464","0.0-6.0-1.5","3142902","co39754","norming","","","","","","",""
"8596.079999999958","","","post_mooney1_questions","survey-likert","43","344063","0.0-6.0-2.5","3142902","co39754","norming","","","{""curiosity"":0,""confidence"":1}","[0,1]","../img/tt/567tt.jpg","",""
"3677.905000000028","","","recognition","survey-text","44","347742","0.0-6.0-3.5","3142902","co39754","norming","","","{""guess"":""toaster""}","","../img/tt/567tt.jpg","",""
"null","../img/gs/567gs.jpg","null","reveal","image-keyboard-response","45","349744","0.0-6.0-4.5","3142902","co39754","norming","","","","","","",""
"null","../img/tt/567tt.jpg","null","mooney2","image-keyboard-response","46","351753","0.0-6.0-5.5","3142902","co39754","norming","","","","","","",""
"9580.490000000049","","","post_reveal_questions","survey-likert","47","361334","0.0-6.0-6.5","3142902","co39754","norming","","","{""aha"":0}","[0]","../img/tt/567tt.jpg","",""
"null","<div style=""font-size:60px;""> </div>","null","fixation","html-keyboard-response","48","361536","0.0-6.0-0.6","3142902","co39754","norming","","","","","","",""
"null","../img/tt/1226tt.jpg","null","mooney1","image-keyboard-response","49","364537","0.0-6.0-1.6","3142902","co39754","norming","","","","","","",""
"4500.2049999999","","","post_mooney1_questions","survey-likert","50","369039","0.0-6.0-2.6","3142902","co39754","norming","","","{""curiosity"":1,""confidence"":1}","[0,1]","../img/tt/1226tt.jpg","",""
"3421.9100000000326","","","recognition","survey-text","51","372462","0.0-6.0-3.6","3142902","co39754","norming","","","{""guess"":""witch""}","","../img/tt/1226tt.jpg","",""
"null","../img/gs/1226gs.jpg","null","reveal","image-keyboard-response","52","374465","0.0-6.0-4.6","3142902","co39754","norming","","","","","","",""
"null","../img/tt/1226tt.jpg","null","mooney2","image-keyboard-response","53","376472","0.0-6.0-5.6","3142902","co39754","norming","","","","","","",""
"3941.445000000065","","","post_reveal_questions","survey-likert","54","380414","0.0-6.0-6.6","3142902","co39754","norming","","","{""aha"":1}","[0]","../img/tt/1226tt.jpg","",""
"null","<div style=""font-size:60px;""> </div>","null","fixation","html-keyboard-response","55","380616","0.0-6.0-0.7","3142902","co39754","norming","","","","","","",""
"null","../img/tt/1362tt.jpg","null","mooney1","image-keyboard-response","56","383625","0.0-6.0-1.7","3142902","co39754","norming","","","","","","",""
"3364.435000000056","","","post_mooney1_questions","survey-likert","57","386990","0.0-6.0-2.7","3142902","co39754","norming","","","{""curiosity"":0,""confidence"":3}","[0,1]","../img/tt/1362tt.jpg","",""
"5709.890000000014","","","recognition","survey-text","58","392702","0.0-6.0-3.7","3142902","co39754","norming","","","{""guess"":""fornuis""}","","../img/tt/1362tt.jpg","",""
"null","../img/gs/1362gs.jpg","null","reveal","image-keyboard-response","59","394704","0.0-6.0-4.7","3142902","co39754","norming","","","","","","",""
"null","../img/tt/1362tt.jpg","null","mooney2","image-keyboard-response","60","396713","0.0-6.0-5.7","3142902","co39754","norming","","","","","","",""
"2283.429999999935","","","post_reveal_questions","survey-likert","61","398998","0.0-6.0-6.7","3142902","co39754","norming","","","{""aha"":0}","[0]","../img/tt/1362tt.jpg","",""
"null","<div style=""font-size:60px;""> </div>","null","fixation","html-keyboard-response","62","399207","0.0-6.0-0.8","3142902","co39754","norming","","","","","","",""
"null","../img/tt/094tt.jpg","null","mooney1","image-keyboard-response","63","402217","0.0-6.0-1.8","3142902","co39754","norming","","","","","","",""
"3860.435000000056","","","post_mooney1_questions","survey-likert","64","406078","0.0-6.0-2.8","3142902","co39754","norming","","","{""curiosity"":0,""confidence"":0}","[0,1]","../img/tt/094tt.jpg","",""
"822.1050000000978","","","recognition","survey-text","65","406902","0.0-6.0-3.8","3142902","co39754","norming","","","{""guess"":""""}","","../img/tt/094tt.jpg","",""
"null","../img/gs/094gs.jpg","null","reveal","image-keyboard-response","66","408905","0.0-6.0-4.8","3142902","co39754","norming","","","","","","",""
"null","../img/tt/094tt.jpg","null","mooney2","image-keyboard-response","67","410907","0.0-6.0-5.8","3142902","co39754","norming","","","","","","",""
"1594.344999999972","","","post_reveal_questions","survey-likert","68","412502","0.0-6.0-6.8","3142902","co39754","norming","","","{""aha"":0}","[0]","../img/tt/094tt.jpg","",""
"null","<div style=""font-size:60px;""> </div>","null","fixation","html-keyboard-response","69","412710","0.0-6.0-0.9","3142902","co39754","norming","","","","","","",""
"null","../img/tt/522tt.jpg","null","mooney1","image-keyboard-response","70","415715","0.0-6.0-1.9","3142902","co39754","norming","","","","","","",""
"2945.535000000091","","","post_mooney1_questions","survey-likert","71","418662","0.0-6.0-2.9","3142902","co39754","norming","","","{""curiosity"":0,""confidence"":0}","[0,1]","../img/tt/522tt.jpg","",""
"725.9899999999325","","","recognition","survey-text","72","419390","0.0-6.0-3.9","3142902","co39754","norming","","","{""guess"":""""}","","../img/tt/522tt.jpg","",""
"null","../img/gs/522gs.jpg","null","reveal","image-keyboard-response","73","421392","0.0-6.0-4.9","3142902","co39754","norming","","","","","","",""
"null","../img/tt/522tt.jpg","null","mooney2","image-keyboard-response","74","423395","0.0-6.0-5.9","3142902","co39754","norming","","","","","","",""
"2641.8299999999","","","post_reveal_questions","survey-likert","75","426038","0.0-6.0-6.9","3142902","co39754","norming","","","{""aha"":2}","[0]","../img/tt/522tt.jpg","",""
"null","<div style=""font-size:60px;""> </div>","null","fixation","html-keyboard-response","76","426240","0.0-6.0-0.10","3142902","co39754","norming","","","","","","",""
"null","../img/tt/1130tt.jpg","null","mooney1","image-keyboard-response","77","429241","0.0-6.0-1.10","3142902","co39754","norming","","","","","","",""
"5275.629999999946","","","post_mooney1_questions","survey-likert","78","434518","0.0-6.0-2.10","3142902","co39754","norming","","","{""curiosity"":0,""confidence"":5}","[0,1]","../img/tt/1130tt.jpg","",""
"4461.869999999995","","","recognition","survey-text","79","438982","0.0-6.0-3.10","3142902","co39754","norming","","","{""guess"":""cyclist""}","","../img/tt/1130tt.jpg","",""
"null","../img/gs/1130gs.jpg","null","reveal","image-keyboard-response","80","440997","0.0-6.0-4.10","3142902","co39754","norming","","","","","","",""
"null","../img/tt/1130tt.jpg","null","mooney2","image-keyboard-response","81","443001","0.0-6.0-5.10","3142902","co39754","norming","","","","","","",""
"2877.515000000014","","","post_reveal_questions","survey-likert","82","445880","0.0-6.0-6.10","3142902","co39754","norming","","","{""aha"":0}","[0]","../img/tt/1130tt.jpg","",""
"null","<div style=""font-size:60px;""> </div>","null","fixation","html-keyboard-response","83","446089","0.0-6.0-0.11","3142902","co39754","norming","","","","","","",""
"null","../img/tt/121tt.jpg","null","mooney1","image-keyboard-response","84","449095","0.0-6.0-1.11","3142902","co39754","norming","","","","","","",""
"4239.305000000051","","","post_mooney1_questions","survey-likert","85","453336","0.0-6.0-2.11","3142902","co39754","norming","","","{""curiosity"":0,""confidence"":1}","[0,1]","../img/tt/121tt.jpg","",""
"4093.9150000000373","","","recognition","survey-text","86","457431","0.0-6.0-3.11","3142902","co39754","norming","","","{""guess"":""landscape""}","","../img/tt/121tt.jpg","",""
"null","../img/gs/121gs.jpg","null","reveal","image-keyboard-response","87","459435","0.0-6.0-4.11","3142902","co39754","norming","","","","","","",""
"null","../img/tt/121tt.jpg","null","mooney2","image-keyboard-response","88","461439","0.0-6.0-5.11","3142902","co39754","norming","","","","","","",""
"2943.7249999999767","","","post_reveal_questions","survey-likert","89","464384","0.0-6.0-6.11","3142902","co39754","norming","","","{""aha"":1}","[0]","../img/tt/121tt.jpg","",""
"null","<div style=""font-size:60px;""> </div>","null","fixation","html-keyboard-response","90","464589","0.0-6.0-0.12","3142902","co39754","norming","","","","","","",""
"null","../img/tt/1171tt.jpg","null","mooney1","image-keyboard-response","91","467599","0.0-6.0-1.12","3142902","co39754","norming","","","","","","",""
"3183.159999999916","","","post_mooney1_questions","survey-likert","92","470784","0.0-6.0-2.12","3142902","co39754","norming","","","{""curiosity"":0,""confidence"":1}","[0,1]","../img/tt/1171tt.jpg","",""
"2830.3250000000116","","","recognition","survey-text","93","473616","0.0-6.0-3.12","3142902","co39754","norming","","","{""guess"":""face""}","","../img/tt/1171tt.jpg","",""
"null","../img/gs/1171gs.jpg","null","reveal","image-keyboard-response","94","475620","0.0-6.0-4.12","3142902","co39754","norming","","","","","","",""
"null","../img/tt/1171tt.jpg","null","mooney2","image-keyboard-response","95","477630","0.0-6.0-5.12","3142902","co39754","norming","","","","","","",""
"2888.055000000051","","","post_reveal_questions","survey-likert","96","480520","0.0-6.0-6.12","3142902","co39754","norming","","","{""aha"":1}","[0]","../img/tt/1171tt.jpg","",""
"null","<div style=""font-size:60px;""> </div>","null","fixation","html-keyboard-response","97","480722","0.0-6.0-0.13","3142902","co39754","norming","","","","","","",""
"null","../img/tt/1143tt.jpg","null","mooney1","image-keyboard-response","98","483728","0.0-6.0-1.13","3142902","co39754","norming","","","","","","",""
"2838.4899999999907","","","post_mooney1_questions","survey-likert","99","486568","0.0-6.0-2.13","3142902","co39754","norming","","","{""curiosity"":0,""confidence"":0}","[0,1]","../img/tt/1143tt.jpg","",""
"6829.780000000028","","","recognition","survey-text","100","493400","0.0-6.0-3.13","3142902","co39754","norming","","","{""guess"":""tracks""}","","../img/tt/1143tt.jpg","",""
"null","../img/gs/1143gs.jpg","null","reveal","image-keyboard-response","101","495408","0.0-6.0-4.13","3142902","co39754","norming","","","","","","",""
"null","../img/tt/1143tt.jpg","null","mooney2","image-keyboard-response","102","497415","0.0-6.0-5.13","3142902","co39754","norming","","","","","","",""
"2215.5049999998882","","","post_reveal_questions","survey-likert","103","499632","0.0-6.0-6.13","3142902","co39754","norming","","","{""aha"":1}","[0]","../img/tt/1143tt.jpg","",""
"null","<div style=""font-size:60px;""> </div>","null","fixation","html-keyboard-response","104","499834","0.0-6.0-0.14","3142902","co39754","norming","","","","","","",""
"null","../img/tt/1232tt.jpg","null","mooney1","image-keyboard-response","105","502836","0.0-6.0-1.14","3142902","co39754","norming","","","","","","",""
"4234.915000000037","","","post_mooney1_questions","survey-likert","106","507072","0.0-6.0-2.14","3142902","co39754","norming","","","{""curiosity"":0,""confidence"":0}","[0,1]","../img/tt/1232tt.jpg","",""
"629.9299999999348","","","recognition","survey-text","107","507704","0.0-6.0-3.14","3142902","co39754","norming","","","{""guess"":""""}","","../img/tt/1232tt.jpg","",""
"null","../img/gs/1232gs.jpg","null","reveal","image-keyboard-response","108","509708","0.0-6.0-4.14","3142902","co39754","norming","","","","","","",""
"null","../img/tt/1232tt.jpg","null","mooney2","image-keyboard-response","109","511712","0.0-6.0-5.14","3142902","co39754","norming","","","","","","",""
"2998.7799999999115","","","post_reveal_questions","survey-likert","110","514712","0.0-6.0-6.14","3142902","co39754","norming","","","{""aha"":2}","[0]","../img/tt/1232tt.jpg","",""
"null","<div style=""font-size:60px;""> </div>","null","fixation","html-keyboard-response","111","514923","0.0-6.0-0.15","3142902","co39754","norming","","","","","","",""
"null","../img/tt/584tt.jpg","null","mooney1","image-keyboard-response","112","517928","0.0-6.0-1.15","3142902","co39754","norming","","","","","","",""
"5799.25","","","post_mooney1_questions","survey-likert","113","523728","0.0-6.0-2.15","3142902","co39754","norming","","","{""curiosity"":0,""confidence"":1}","[0,1]","../img/tt/584tt.jpg","",""
"3734.1150000002235","","","recognition","survey-text","114","527464","0.0-6.0-3.15","3142902","co39754","norming","","","{""guess"":""flower""}","","../img/tt/584tt.jpg","",""
"null","../img/gs/584gs.jpg","null","reveal","image-keyboard-response","115","529471","0.0-6.0-4.15","3142902","co39754","norming","","","","","","",""
"null","../img/tt/584tt.jpg","null","mooney2","image-keyboard-response","116","531474","0.0-6.0-5.15","3142902","co39754","norming","","","","","","",""
"2732.545000000042","","","post_reveal_questions","survey-likert","117","534208","0.0-6.0-6.15","3142902","co39754","norming","","","{""aha"":1}","[0]","../img/tt/584tt.jpg","",""
"null","<div style=""font-size:60px;""> </div>","null","fixation","html-keyboard-response","118","534418","0.0-6.0-0.16","3142902","co39754","norming","","","","","","",""
"null","../img/tt/063tt.jpg","null","mooney1","image-keyboard-response","119","537428","0.0-6.0-1.16","3142902","co39754","norming","","","","","","",""
"2954.9000000000233","","","post_mooney1_questions","survey-likert","120","540384","0.0-6.0-2.16","3142902","co39754","norming","","","{""curiosity"":0,""confidence"":2}","[0,1]","../img/tt/063tt.jpg","",""
"14214.25","","","recognition","survey-text","121","554600","0.0-6.0-3.16","3142902","co39754","norming","","","{""guess"":""typing machine""}","","../img/tt/063tt.jpg","",""
"null","../img/gs/063gs.jpg","null","reveal","image-keyboard-response","122","556602","0.0-6.0-4.16","3142902","co39754","norming","","","","","","",""
"null","../img/tt/063tt.jpg","null","mooney2","image-keyboard-response","123","558604","0.0-6.0-5.16","3142902","co39754","norming","","","","","","",""
"2099.175000000163","","","post_reveal_questions","survey-likert","124","560704","0.0-6.0-6.16","3142902","co39754","norming","","","{""aha"":2}","[0]","../img/tt/063tt.jpg","",""
"null","<div style=""font-size:60px;""> </div>","null","fixation","html-keyboard-response","125","560905","0.0-6.0-0.17","3142902","co39754","norming","","","","","","",""
"null","../img/tt/1154tt.jpg","null","mooney1","image-keyboard-response","126","563913","0.0-6.0-1.17","3142902","co39754","norming","","","","","","",""
"3045.17499999993","","","post_mooney1_questions","survey-likert","127","566960","0.0-6.0-2.17","3142902","co39754","norming","","","{""curiosity"":0,""confidence"":0}","[0,1]","../img/tt/1154tt.jpg","",""
"981.9899999999907","","","recognition","survey-text","128","567944","0.0-6.0-3.17","3142902","co39754","norming","","","{""guess"":""""}","","../img/tt/1154tt.jpg","",""
"null","../img/gs/1154gs.jpg","null","reveal","image-keyboard-response","129","569946","0.0-6.0-4.17","3142902","co39754","norming","","","","","","",""
"null","../img/tt/1154tt.jpg","null","mooney2","image-keyboard-response","130","571956","0.0-6.0-5.17","3142902","co39754","norming","","","","","","",""
"2698.4400000000605","","","post_reveal_questions","survey-likert","131","574656","0.0-6.0-6.17","3142902","co39754","norming","","","{""aha"":2}","[0]","../img/tt/1154tt.jpg","",""
"null","<div style=""font-size:60px;""> </div>","null","fixation","html-keyboard-response","132","574861","0.0-6.0-0.18","3142902","co39754","norming","","","","","","",""
"null","../img/tt/1118tt.jpg","null","mooney1","image-keyboard-response","133","577872","0.0-6.0-1.18","3142902","co39754","norming","","","","","","",""
"4046.689999999944","","","post_mooney1_questions","survey-likert","134","581920","0.0-6.0-2.18","3142902","co39754","norming","","","{""curiosity"":0,""confidence"":1}","[0,1]","../img/tt/1118tt.jpg","",""
"5349.84999999986","","","recognition","survey-text","135","587272","0.0-6.0-3.18","3142902","co39754","norming","","","{""guess"":""river""}","","../img/tt/1118tt.jpg","",""
"null","../img/gs/1118gs.jpg","null","reveal","image-keyboard-response","136","589273","0.0-6.0-4.18","3142902","co39754","norming","","","","","","",""
"null","../img/tt/1118tt.jpg","null","mooney2","image-keyboard-response","137","591281","0.0-6.0-5.18","3142902","co39754","norming","","","","","","",""
"1822.579999999958","","","post_reveal_questions","survey-likert","138","593104","0.0-6.0-6.18","3142902","co39754","norming","","","{""aha"":1}","[0]","../img/tt/1118tt.jpg","",""
"null","<div style=""font-size:60px;""> </div>","null","fixation","html-keyboard-response","139","593305","0.0-6.0-0.19","3142902","co39754","norming","","","","","","",""
"null","../img/tt/081tt.jpg","null","mooney1","image-keyboard-response","140","596312","0.0-6.0-1.19","3142902","co39754","norming","","","","","","",""
"3063.3599999998696","","","post_mooney1_questions","survey-likert","141","599376","0.0-6.0-2.19","3142902","co39754","norming","","","{""curiosity"":0,""confidence"":1}","[0,1]","../img/tt/081tt.jpg","",""
"8134.255000000005","","","recognition","survey-text","142","607512","0.0-6.0-3.19","3142902","co39754","norming","","","{""guess"":""cat""}","","../img/tt/081tt.jpg","",""
"null","../img/gs/081gs.jpg","null","reveal","image-keyboard-response","143","609521","0.0-6.0-4.19","3142902","co39754","norming","","","","","","",""
"null","../img/tt/081tt.jpg","null","mooney2","image-keyboard-response","144","611522","0.0-6.0-5.19","3142902","co39754","norming","","","","","","",""
"1989.0749999999534","","","post_reveal_questions","survey-likert","145","613512","0.0-6.0-6.19","3142902","co39754","norming","","","{""aha"":1}","[0]","../img/tt/081tt.jpg","",""
"null","<div style=""font-size:60px;""> </div>","null","fixation","html-keyboard-response","146","613722","0.0-6.0-0.20","3142902","co39754","norming","","","","","","",""
"null","../img/tt/1173tt.jpg","null","mooney1","image-keyboard-response","147","616727","0.0-6.0-1.20","3142902","co39754","norming","","","","","","",""
"3015.4049999999115","","","post_mooney1_questions","survey-likert","148","619744","0.0-6.0-2.20","3142902","co39754","norming","","","{""curiosity"":0,""confidence"":2}","[0,1]","../img/tt/1173tt.jpg","",""
"6509.835000000079","","","recognition","survey-text","149","626248","0.0-6.0-3.20","3142902","co39754","norming","","","{""guess"":""football""}","","../img/tt/1173tt.jpg","",""
"null","../img/gs/1173gs.jpg","null","reveal","image-keyboard-response","150","628259","0.0-6.0-4.20","3142902","co39754","norming","","","","","","",""
"null","../img/tt/1173tt.jpg","null","mooney2","image-keyboard-response","151","630268","0.0-6.0-5.20","3142902","co39754","norming","","","","","","",""
"2650.8150000000605","","","post_reveal_questions","survey-likert","152","632920","0.0-6.0-6.20","3142902","co39754","norming","","","{""aha"":2}","[0]","../img/tt/1173tt.jpg","",""
"null","<div style=""font-size:60px;""> </div>","null","fixation","html-keyboard-response","153","633122","0.0-6.0-0.21","3142902","co39754","norming","","","","","","",""
"null","../img/tt/1053tt.jpg","null","mooney1","image-keyboard-response","154","636123","0.0-6.0-1.21","3142902","co39754","norming","","","","","","",""
"2796.634999999893","","","post_mooney1_questions","survey-likert","155","638920","0.0-6.0-2.21","3142902","co39754","norming","","","{""curiosity"":0,""confidence"":1}","[0,1]","../img/tt/1053tt.jpg","",""
"3981.824999999837","","","recognition","survey-text","156","642904","0.0-6.0-3.21","3142902","co39754","norming","","","{""guess"":""animals""}","","../img/tt/1053tt.jpg","",""
"null","../img/gs/1053gs.jpg","null","reveal","image-keyboard-response","157","644907","0.0-6.0-4.21","3142902","co39754","norming","","","","","","",""
"null","../img/tt/1053tt.jpg","null","mooney2","image-keyboard-response","158","646910","0.0-6.0-5.21","3142902","co39754","norming","","","","","","",""
"1920.5449999999255","","","post_reveal_questions","survey-likert","159","648832","0.0-6.0-6.21","3142902","co39754","norming","","","{""aha"":3}","[0]","../img/tt/1053tt.jpg","",""
"null","<div style=""font-size:60px;""> </div>","null","fixation","html-keyboard-response","160","649042","0.0-6.0-0.22","3142902","co39754","norming","","","","","","",""
"null","../img/tt/319tt.jpg","null","mooney1","image-keyboard-response","161","652049","0.0-6.0-1.22","3142902","co39754","norming","","","","","","",""
"2966.560000000056","","","post_mooney1_questions","survey-likert","162","655016","0.0-6.0-2.22","3142902","co39754","norming","","","{""curiosity"":0,""confidence"":1}","[0,1]","../img/tt/319tt.jpg","",""
"7518.229999999865","","","recognition","survey-text","163","662536","0.0-6.0-3.22","3142902","co39754","norming","","","{""guess"":""animals""}","","../img/tt/319tt.jpg","",""
"null","../img/gs/319gs.jpg","null","reveal","image-keyboard-response","164","664538","0.0-6.0-4.22","3142902","co39754","norming","","","","","","",""
"null","../img/tt/319tt.jpg","null","mooney2","image-keyboard-response","165","666539","0.0-6.0-5.22","3142902","co39754","norming","","","","","","",""
"2715.67499999993","","","post_reveal_questions","survey-likert","166","669256","0.0-6.0-6.22","3142902","co39754","norming","","","{""aha"":3}","[0]","../img/tt/319tt.jpg","",""
"null","<div style=""font-size:60px;""> </div>","null","fixation","html-keyboard-response","167","669466","0.0-6.0-0.23","3142902","co39754","norming","","","","","","",""
"null","../img/tt/1084tt.jpg","null","mooney1","image-keyboard-response","168","672476","0.0-6.0-1.23","3142902","co39754","norming","","","","","","",""
"11963.535000000033","","","post_mooney1_questions","survey-likert","169","684443","0.0-6.0-2.23","3142902","co39754","norming","","","{""curiosity"":0,""confidence"":1}","[0,1]","../img/tt/1084tt.jpg","",""
"4197.785000000033","","","recognition","survey-text","170","688642","0.0-6.0-3.23","3142902","co39754","norming","","","{""guess"":""glass""}","","../img/tt/1084tt.jpg","",""
"null","../img/gs/1084gs.jpg","null","reveal","image-keyboard-response","171","690645","0.0-6.0-4.23","3142902","co39754","norming","","","","","","",""
"null","../img/tt/1084tt.jpg","null","mooney2","image-keyboard-response","172","692651","0.0-6.0-5.23","3142902","co39754","norming","","","","","","",""
"2158.2949999999255","","","post_reveal_questions","survey-likert","173","694811","0.0-6.0-6.23","3142902","co39754","norming","","","{""aha"":1}","[0]","../img/tt/1084tt.jpg","",""
"null","<div style=""font-size:60px;""> </div>","null","fixation","html-keyboard-response","174","695018","0.0-6.0-0.24","3142902","co39754","norming","","","","","","",""
"null","../img/tt/1078tt.jpg","null","mooney1","image-keyboard-response","175","698023","0.0-6.0-1.24","3142902","co39754","norming","","","","","","",""
"4458.730000000098","","","post_mooney1_questions","survey-likert","176","702483","0.0-6.0-2.24","3142902","co39754","norming","","","{""curiosity"":0,""confidence"":1}","[0,1]","../img/tt/1078tt.jpg","",""
"3325.7250000002095","","","recognition","survey-text","177","705811","0.0-6.0-3.24","3142902","co39754","norming","","","{""guess"":""a man""}","","../img/tt/1078tt.jpg","",""
"null","../img/gs/1078gs.jpg","null","reveal","image-keyboard-response","178","707822","0.0-6.0-4.24","3142902","co39754","norming","","","","","","",""
"null","../img/tt/1078tt.jpg","null","mooney2","image-keyboard-response","179","709825","0.0-6.0-5.24","3142902","co39754","norming","","","","","","",""
"1584.75","","","post_reveal_questions","survey-likert","180","711411","0.0-6.0-6.24","3142902","co39754","norming","","","{""aha"":2}","[0]","../img/tt/1078tt.jpg","",""
"null","<div style=""font-size:60px;""> </div>","null","fixation","html-keyboard-response","181","711616","0.0-6.0-0.25","3142902","co39754","norming","","","","","","",""
"null","../img/tt/440tt.jpg","null","mooney1","image-keyboard-response","182","714622","0.0-6.0-1.25","3142902","co39754","norming","","","","","","",""
"2955.604999999865","","","post_mooney1_questions","survey-likert","183","717579","0.0-6.0-2.25","3142902","co39754","norming","","","{""curiosity"":0,""confidence"":1}","[0,1]","../img/tt/440tt.jpg","",""
"21262.015000000014","","","recognition","survey-text","184","738843","0.0-6.0-3.25","3142902","co39754","norming","","","{""guess"":""vee in hok""}","","../img/tt/440tt.jpg","",""
"null","../img/gs/440gs.jpg","null","reveal","image-keyboard-response","185","740846","0.0-6.0-4.25","3142902","co39754","norming","","","","","","",""
"null","../img/tt/440tt.jpg","null","mooney2","image-keyboard-response","186","742853","0.0-6.0-5.25","3142902","co39754","norming","","","","","","",""
"4140.3450000000885","","","post_reveal_questions","survey-likert","187","747003","0.0-6.0-6.25","3142902","co39754","norming","","","{""aha"":2}","[0]","../img/tt/440tt.jpg","",""
"null","<div style=""font-size:60px;""> </div>","null","fixation","html-keyboard-response","188","747211","0.0-6.0-0.26","3142902","co39754","norming","","","","","","",""
"null","../img/tt/1366tt.jpg","null","mooney1","image-keyboard-response","189","750214","0.0-6.0-1.26","3142902","co39754","norming","","","","","","",""
"2836.5100000001257","","","post_mooney1_questions","survey-likert","190","753051","0.0-6.0-2.26","3142902","co39754","norming","","","{""curiosity"":0,""confidence"":1}","[0,1]","../img/tt/1366tt.jpg","",""
"3014.134999999893","","","recognition","survey-text","191","756067","0.0-6.0-3.26","3142902","co39754","norming","","","{""guess"":""plate""}","","../img/tt/1366tt.jpg","",""
"null","../img/gs/1366gs.jpg","null","reveal","image-keyboard-response","192","758069","0.0-6.0-4.26","3142902","co39754","norming","","","","","","",""
"null","../img/tt/1366tt.jpg","null","mooney2","image-keyboard-response","193","760070","0.0-6.0-5.26","3142902","co39754","norming","","","","","","",""
"2851.9299999998184","","","post_reveal_questions","survey-likert","194","762923","0.0-6.0-6.26","3142902","co39754","norming","","","{""aha"":1}","[0]","../img/tt/1366tt.jpg","",""
"null","<div style=""font-size:60px;""> </div>","null","fixation","html-keyboard-response","195","763132","0.0-6.0-0.27","3142902","co39754","norming","","","","","","",""
"null","../img/tt/1048tt.jpg","null","mooney1","image-keyboard-response","196","766142","0.0-6.0-1.27","3142902","co39754","norming","","","","","","",""
"2700.694999999949","","","post_mooney1_questions","survey-likert","197","768844","0.0-6.0-2.27","3142902","co39754","norming","","","{""curiosity"":0,""confidence"":0}","[0,1]","../img/tt/1048tt.jpg","",""
"749.890000000014","","","recognition","survey-text","198","769595","0.0-6.0-3.27","3142902","co39754","norming","","","{""guess"":""""}","","../img/tt/1048tt.jpg","",""
"null","../img/gs/1048gs.jpg","null","reveal","image-keyboard-response","199","771598","0.0-6.0-4.27","3142902","co39754","norming","","","","","","",""
"null","../img/tt/1048tt.jpg","null","mooney2","image-keyboard-response","200","773606","0.0-6.0-5.27","3142902","co39754","norming","","","","","","",""
"2828.314999999944","","","post_reveal_questions","survey-likert","201","776435","0.0-6.0-6.27","3142902","co39754","norming","","","{""aha"":0}","[0]","../img/tt/1048tt.jpg","",""
"null","<div style=""font-size:60px;""> </div>","null","fixation","html-keyboard-response","202","776638","0.0-6.0-0.28","3142902","co39754","norming","","","","","","",""
"null","../img/tt/1107tt.jpg","null","mooney1","image-keyboard-response","203","779641","0.0-6.0-1.28","3142902","co39754","norming","","","","","","",""
"2633.530000000028","","","post_mooney1_questions","survey-likert","204","782276","0.0-6.0-2.28","3142902","co39754","norming","","","{""curiosity"":0,""confidence"":0}","[0,1]","../img/tt/1107tt.jpg","",""
"645.8200000000652","","","recognition","survey-text","205","782923","0.0-6.0-3.28","3142902","co39754","norming","","","{""guess"":""""}","","../img/tt/1107tt.jpg","",""
"null","../img/gs/1107gs.jpg","null","reveal","image-keyboard-response","206","784926","0.0-6.0-4.28","3142902","co39754","norming","","","","","","",""
"null","../img/tt/1107tt.jpg","null","mooney2","image-keyboard-response","207","786932","0.0-6.0-5.28","3142902","co39754","norming","","","","","","",""
"4110.3450000000885","","","post_reveal_questions","survey-likert","208","791043","0.0-6.0-6.28","3142902","co39754","norming","","","{""aha"":1}","[0]","../img/tt/1107tt.jpg","",""
"null","<div style=""font-size:60px;""> </div>","null","fixation","html-keyboard-response","209","791245","0.0-6.0-0.29","3142902","co39754","norming","","","","","","",""
"null","../img/tt/1101tt.jpg","null","mooney1","image-keyboard-response","210","794254","0.0-6.0-1.29","3142902","co39754","norming","","","","","","",""
"4827.900000000023","","","post_mooney1_questions","survey-likert","211","799084","0.0-6.0-2.29","3142902","co39754","norming","","","{""curiosity"":0,""confidence"":2}","[0,1]","../img/tt/1101tt.jpg","",""
"7253.794999999809","","","recognition","survey-text","212","806339","0.0-6.0-3.29","3142902","co39754","norming","","","{""guess"":""football""}","","../img/tt/1101tt.jpg","",""
"null","../img/gs/1101gs.jpg","null","reveal","image-keyboard-response","213","808343","0.0-6.0-4.29","3142902","co39754","norming","","","","","","",""
"null","../img/tt/1101tt.jpg","null","mooney2","image-keyboard-response","214","810350","0.0-6.0-5.29","3142902","co39754","norming","","","","","","",""
"4910.839999999967","","","post_reveal_questions","survey-likert","215","815261","0.0-6.0-6.29","3142902","co39754","norming","","","{""aha"":1}","[0]","../img/tt/1101tt.jpg","",""
"null","<div style=""font-size:60px;""> </div>","null","fixation","html-keyboard-response","216","815465","0.0-6.0-0.30","3142902","co39754","norming","","","","","","",""
"null","../img/tt/1272tt.jpg","null","mooney1","image-keyboard-response","217","818466","0.0-6.0-1.30","3142902","co39754","norming","","","","","","",""
"2498.3800000000047","","","post_mooney1_questions","survey-likert","218","820965","0.0-6.0-2.30","3142902","co39754","norming","","","{""curiosity"":0,""confidence"":2}","[0,1]","../img/tt/1272tt.jpg","",""
"3102.270000000135","","","recognition","survey-text","219","824069","0.0-6.0-3.30","3142902","co39754","norming","","","{""guess"":""fence""}","","../img/tt/1272tt.jpg","",""
"null","../img/gs/1272gs.jpg","null","reveal","image-keyboard-response","220","826075","0.0-6.0-4.30","3142902","co39754","norming","","","","","","",""
"null","../img/tt/1272tt.jpg","null","mooney2","image-keyboard-response","221","828080","0.0-6.0-5.30","3142902","co39754","norming","","","","","","",""
"2388.490000000107","","","post_reveal_questions","survey-likert","222","830469","0.0-6.0-6.30","3142902","co39754","norming","","","{""aha"":1}","[0]","../img/tt/1272tt.jpg","",""
"null","<div style=""font-size:60px;""> </div>","null","fixation","html-keyboard-response","223","830678","0.0-6.0-0.31","3142902","co39754","norming","","","","","","",""
"null","../img/tt/052tt.jpg","null","mooney1","image-keyboard-response","224","833680","0.0-6.0-1.31","3142902","co39754","norming","","","","","","",""
"3284.485000000219","","","post_mooney1_questions","survey-likert","225","836965","0.0-6.0-2.31","3142902","co39754","norming","","","{""curiosity"":0,""confidence"":2}","[0,1]","../img/tt/052tt.jpg","",""
"34525.840000000084","","","recognition","survey-text","226","871494","0.0-6.0-3.31","3142902","co39754","norming","","","{""guess"":""watch""}","","../img/tt/052tt.jpg","",""
"null","../img/gs/052gs.jpg","null","reveal","image-keyboard-response","227","873501","0.0-6.0-4.31","3142902","co39754","norming","","","","","","",""
"null","../img/tt/052tt.jpg","null","mooney2","image-keyboard-response","228","875502","0.0-6.0-5.31","3142902","co39754","norming","","","","","","",""
"1935.8050000000512","","","post_reveal_questions","survey-likert","229","877439","0.0-6.0-6.31","3142902","co39754","norming","","","{""aha"":1}","[0]","../img/tt/052tt.jpg","",""
"null","<div style=""font-size:60px;""> </div>","null","fixation","html-keyboard-response","230","877640","0.0-6.0-0.32","3142902","co39754","norming","","","","","","",""
"null","../img/tt/1199tt.jpg","null","mooney1","image-keyboard-response","231","880641","0.0-6.0-1.32","3142902","co39754","norming","","","","","","",""
"7228.229999999981","","","post_mooney1_questions","survey-likert","232","887871","0.0-6.0-2.32","3142902","co39754","norming","","","{""curiosity"":1,""confidence"":2}","[0,1]","../img/tt/1199tt.jpg","",""
"19797.784999999916","","","recognition","survey-text","233","907670","0.0-6.0-3.32","3142902","co39754","norming","","","{""guess"":""man met verrekijker ""}","","../img/tt/1199tt.jpg","",""
"null","../img/gs/1199gs.jpg","null","reveal","image-keyboard-response","234","909672","0.0-6.0-4.32","3142902","co39754","norming","","","","","","",""
"null","../img/tt/1199tt.jpg","null","mooney2","image-keyboard-response","235","911674","0.0-6.0-5.32","3142902","co39754","norming","","","","","","",""
"4539.619999999995","","","post_reveal_questions","survey-likert","236","916215","0.0-6.0-6.32","3142902","co39754","norming","","","{""aha"":1}","[0]","../img/tt/1199tt.jpg","",""
"null","<div style=""font-size:60px;""> </div>","null","fixation","html-keyboard-response","237","916416","0.0-6.0-0.33","3142902","co39754","norming","","","","","","",""
"null","../img/tt/091tt.jpg","null","mooney1","image-keyboard-response","238","919421","0.0-6.0-1.33","3142902","co39754","norming","","","","","","",""
"2968.4000000000233","","","post_mooney1_questions","survey-likert","239","922391","0.0-6.0-2.33","3142902","co39754","norming","","","{""curiosity"":0,""confidence"":0}","[0,1]","../img/tt/091tt.jpg","",""
"509.9049999999115","","","recognition","survey-text","240","922902","0.0-6.0-3.33","3142902","co39754","norming","","","{""guess"":""""}","","../img/tt/091tt.jpg","",""
"null","../img/gs/091gs.jpg","null","reveal","image-keyboard-response","241","924905","0.0-6.0-4.33","3142902","co39754","norming","","","","","","",""
"null","../img/tt/091tt.jpg","null","mooney2","image-keyboard-response","242","926915","0.0-6.0-5.33","3142902","co39754","norming","","","","","","",""
"2370.335000000079","","","post_reveal_questions","survey-likert","243","929284","0.0-6.0-6.33","3142902","co39754","norming","","","{""aha"":0}","[0]","../img/tt/091tt.jpg","",""
"null","<div style=""font-size:60px;""> </div>","null","fixation","html-keyboard-response","244","929493","0.0-6.0-0.34","3142902","co39754","norming","","","","","","",""
"null","../img/tt/1241tt.jpg","null","mooney1","image-keyboard-response","245","932501","0.0-6.0-1.34","3142902","co39754","norming","","","","","","",""
"2542.1549999999115","","","post_mooney1_questions","survey-likert","246","935044","0.0-6.0-2.34","3142902","co39754","norming","","","{""curiosity"":0,""confidence"":2}","[0,1]","../img/tt/1241tt.jpg","",""
"2390.2750000000233","","","recognition","survey-text","247","937436","0.0-6.0-3.34","3142902","co39754","norming","","","{""guess"":""pig""}","","../img/tt/1241tt.jpg","",""
"null","../img/gs/1241gs.jpg","null","reveal","image-keyboard-response","248","939440","0.0-6.0-4.34","3142902","co39754","norming","","","","","","",""
"null","../img/tt/1241tt.jpg","null","mooney2","image-keyboard-response","249","941443","0.0-6.0-5.34","3142902","co39754","norming","","","","","","",""
"1656.2750000000233","","","post_reveal_questions","survey-likert","250","943101","0.0-6.0-6.34","3142902","co39754","norming","","","{""aha"":1}","[0]","../img/tt/1241tt.jpg","",""
"null","<div style=""font-size:60px;""> </div>","null","fixation","html-keyboard-response","251","943303","0.0-6.0-0.35","3142902","co39754","norming","","","","","","",""
"null","../img/tt/1063tt.jpg","null","mooney1","image-keyboard-response","252","946312","0.0-6.0-1.35","3142902","co39754","norming","","","","","","",""
"7467.209999999963","","","post_mooney1_questions","survey-likert","253","953781","0.0-6.0-2.35","3142902","co39754","norming","","","{""curiosity"":0,""confidence"":5}","[0,1]","../img/tt/1063tt.jpg","",""
"2718.1400000001304","","","recognition","survey-text","254","956500","0.0-6.0-3.35","3142902","co39754","norming","","","{""guess"":""horse""}","","../img/tt/1063tt.jpg","",""
"null","../img/gs/1063gs.jpg","null","reveal","image-keyboard-response","255","958511","0.0-6.0-4.35","3142902","co39754","norming","","","","","","",""
"null","../img/tt/1063tt.jpg","null","mooney2","image-keyboard-response","256","960516","0.0-6.0-5.35","3142902","co39754","norming","","","","","","",""
"2463.3699999999953","","","post_reveal_questions","survey-likert","257","962981","0.0-6.0-6.35","3142902","co39754","norming","","","{""aha"":0}","[0]","../img/tt/1063tt.jpg","",""
"null","<div style=""font-size:60px;""> </div>","null","fixation","html-keyboard-response","258","963188","0.0-6.0-0.36","3142902","co39754","norming","","","","","","",""
"null","../img/tt/1049tt.jpg","null","mooney1","image-keyboard-response","259","966189","0.0-6.0-1.36","3142902","co39754","norming","","","","","","",""
"3942.310000000056","","","post_mooney1_questions","survey-likert","260","970133","0.0-6.0-2.36","3142902","co39754","norming","","","{""curiosity"":0,""confidence"":1}","[0,1]","../img/tt/1049tt.jpg","",""
"3205.965000000084","","","recognition","survey-text","261","973340","0.0-6.0-3.36","3142902","co39754","norming","","","{""guess"":""bird""}","","../img/tt/1049tt.jpg","",""
"null","../img/gs/1049gs.jpg","null","reveal","image-keyboard-response","262","975343","0.0-6.0-4.36","3142902","co39754","norming","","","","","","",""
"null","../img/tt/1049tt.jpg","null","mooney2","image-keyboard-response","263","977344","0.0-6.0-5.36","3142902","co39754","norming","","","","","","",""
"1979.454999999958","","","post_reveal_questions","survey-likert","264","979324","0.0-6.0-6.36","3142902","co39754","norming","","","{""aha"":1}","[0]","../img/tt/1049tt.jpg","",""
"null","<div style=""font-size:60px;""> </div>","null","fixation","html-keyboard-response","265","979531","0.0-6.0-0.37","3142902","co39754","norming","","","","","","",""
"null","../img/tt/1290tt.jpg","null","mooney1","image-keyboard-response","266","982534","0.0-6.0-1.37","3142902","co39754","norming","","","","","","",""
"3165.740000000107","","","post_mooney1_questions","survey-likert","267","985701","0.0-6.0-2.37","3142902","co39754","norming","","","{""curiosity"":0,""confidence"":2}","[0,1]","../img/tt/1290tt.jpg","",""
"6597.8150000000605","","","recognition","survey-text","268","992294","0.0-6.0-3.37","3142902","co39754","norming","","","{""guess"":""granade or chicken""}","","../img/tt/1290tt.jpg","",""
"null","../img/gs/1290gs.jpg","null","reveal","image-keyboard-response","269","994297","0.0-6.0-4.37","3142902","co39754","norming","","","","","","",""
"null","../img/tt/1290tt.jpg","null","mooney2","image-keyboard-response","270","996298","0.0-6.0-5.37","3142902","co39754","norming","","","","","","",""
"3827.359999999986","","","post_reveal_questions","survey-likert","271","1000126","0.0-6.0-6.37","3142902","co39754","norming","","","{""aha"":3}","[0]","../img/tt/1290tt.jpg","",""
"null","<div style=""font-size:60px;""> </div>","null","fixation","html-keyboard-response","272","1000336","0.0-6.0-0.38","3142902","co39754","norming","","","","","","",""
"null","../img/tt/135tt.jpg","null","mooney1","image-keyboard-response","273","1003338","0.0-6.0-1.38","3142902","co39754","norming","","","","","","",""
"3715.069999999949","","","post_mooney1_questions","survey-likert","274","1007055","0.0-6.0-2.38","3142902","co39754","norming","","","{""curiosity"":0,""confidence"":4}","[0,1]","../img/tt/135tt.jpg","",""
"2982.085000000079","","","recognition","survey-text","275","1010038","0.0-6.0-3.38","3142902","co39754","norming","","","{""guess"":""toilet""}","","../img/tt/135tt.jpg","",""
"null","../img/gs/135gs.jpg","null","reveal","image-keyboard-response","276","1012044","0.0-6.0-4.38","3142902","co39754","norming","","","","","","",""
"null","../img/tt/135tt.jpg","null","mooney2","image-keyboard-response","277","1014046","0.0-6.0-5.38","3142902","co39754","norming","","","","","","",""
"1695.5800000000745","","","post_reveal_questions","survey-likert","278","1015742","0.0-6.0-6.38","3142902","co39754","norming","","","{""aha"":0}","[0]","../img/tt/135tt.jpg","",""
"null","<div style=""font-size:60px;""> </div>","null","fixation","html-keyboard-response","279","1015951","0.0-6.0-0.39","3142902","co39754","norming","","","","","","",""
"null","../img/tt/1089tt.jpg","null","mooney1","image-keyboard-response","280","1018960","0.0-6.0-1.39","3142902","co39754","norming","","","","","","",""
"4205.829999999958","","","post_mooney1_questions","survey-likert","281","1023167","0.0-6.0-2.39","3142902","co39754","norming","","","{""curiosity"":0,""confidence"":3}","[0,1]","../img/tt/1089tt.jpg","",""
"3333.585000000079","","","recognition","survey-text","282","1026502","0.0-6.0-3.39","3142902","co39754","norming","","","{""guess"":""olifant""}","","../img/tt/1089tt.jpg","",""
"null","../img/gs/1089gs.jpg","null","reveal","image-keyboard-response","283","1028506","0.0-6.0-4.39","3142902","co39754","norming","","","","","","",""
"null","../img/tt/1089tt.jpg","null","mooney2","image-keyboard-response","284","1030512","0.0-6.0-5.39","3142902","co39754","norming","","","","","","",""
"2261.1600000000326","","","post_reveal_questions","survey-likert","285","1032774","0.0-6.0-6.39","3142902","co39754","norming","","","{""aha"":0}","[0]","../img/tt/1089tt.jpg","",""
"null","<div style=""font-size:60px;""> </div>","null","fixation","html-keyboard-response","286","1032977","0.0-6.0-0.40","3142902","co39754","norming","","","","","","",""
"null","../img/tt/098tt.jpg","null","mooney1","image-keyboard-response","287","1035980","0.0-6.0-1.40","3142902","co39754","norming","","","","","","",""
"3001.419999999809","","","post_mooney1_questions","survey-likert","288","1038983","0.0-6.0-2.40","3142902","co39754","norming","","","{""curiosity"":0,""confidence"":1}","[0,1]","../img/tt/098tt.jpg","",""
"3494.1049999999814","","","recognition","survey-text","289","1042478","0.0-6.0-3.40","3142902","co39754","norming","","","{""guess"":""eenhoorn""}","","../img/tt/098tt.jpg","",""
"null","../img/gs/098gs.jpg","null","reveal","image-keyboard-response","290","1044480","0.0-6.0-4.40","3142902","co39754","norming","","","","","","",""
"null","../img/tt/098tt.jpg","null","mooney2","image-keyboard-response","291","1046482","0.0-6.0-5.40","3142902","co39754","norming","","","","","","",""
"5099.5599999999395","","","post_reveal_questions","survey-likert","292","1051590","0.0-6.0-6.40","3142902","co39754","norming","","","{""aha"":1}","[0]","../img/tt/098tt.jpg","",""
"null","<div style=""font-size:60px;""> </div>","null","fixation","html-keyboard-response","293","1051794","0.0-6.0-0.41","3142902","co39754","norming","","","","","","",""
"null","../img/tt/1126tt.jpg","null","mooney1","image-keyboard-response","294","1054800","0.0-6.0-1.41","3142902","co39754","norming","","","","","","",""
"4741.395000000019","","","post_mooney1_questions","survey-likert","295","1059542","0.0-6.0-2.41","3142902","co39754","norming","","","{""curiosity"":0,""confidence"":1}","[0,1]","../img/tt/1126tt.jpg","",""
"3830.2399999999907","","","recognition","survey-text","296","1063374","0.0-6.0-3.41","3142902","co39754","norming","","","{""guess"":""mountain""}","","../img/tt/1126tt.jpg","",""
"null","../img/gs/1126gs.jpg","null","reveal","image-keyboard-response","297","1065381","0.0-6.0-4.41","3142902","co39754","norming","","","","","","",""
"null","../img/tt/1126tt.jpg","null","mooney2","image-keyboard-response","298","1067389","0.0-6.0-5.41","3142902","co39754","norming","","","","","","",""
"1632.2599999997765","","","post_reveal_questions","survey-likert","299","1069022","0.0-6.0-6.41","3142902","co39754","norming","","","{""aha"":1}","[0]","../img/tt/1126tt.jpg","",""
"null","<div style=""font-size:60px;""> </div>","null","fixation","html-keyboard-response","300","1069228","0.0-6.0-0.42","3142902","co39754","norming","","","","","","",""
"null","../img/tt/497tt.jpg","null","mooney1","image-keyboard-response","301","1072230","0.0-6.0-1.42","3142902","co39754","norming","","","","","","",""
"5031.625","","","post_mooney1_questions","survey-likert","302","1077263","0.0-6.0-2.42","3142902","co39754","norming","","","{""curiosity"":0,""confidence"":1}","[0,1]","../img/tt/497tt.jpg","",""
"35789.64999999991","","","recognition","survey-text","303","1113054","0.0-6.0-3.42","3142902","co39754","norming","","","{""guess"":""Minas Tirith""}","","../img/tt/497tt.jpg","",""
"null","../img/gs/497gs.jpg","null","reveal","image-keyboard-response","304","1115061","0.0-6.0-4.42","3142902","co39754","norming","","","","","","",""
"null","../img/tt/497tt.jpg","null","mooney2","image-keyboard-response","305","1117071","0.0-6.0-5.42","3142902","co39754","norming","","","","","","",""
"2613.9149999998044","","","post_reveal_questions","survey-likert","306","1119687","0.0-6.0-6.42","3142902","co39754","norming","","","{""aha"":2}","[0]","../img/tt/497tt.jpg","",""
"null","<div style=""font-size:60px;""> </div>","null","fixation","html-keyboard-response","307","1119889","0.0-6.0-0.43","3142902","co39754","norming","","","","","","",""
"null","../img/tt/273tt.jpg","null","mooney1","image-keyboard-response","308","1122890","0.0-6.0-1.43","3142902","co39754","norming","","","","","","",""
"3435.5499999998137","","","post_mooney1_questions","survey-likert","309","1126327","0.0-6.0-2.43","3142902","co39754","norming","","","{""curiosity"":0,""confidence"":6}","[0,1]","../img/tt/273tt.jpg","",""
"17453.64000000013","","","recognition","survey-text","310","1143782","0.0-6.0-3.43","3142902","co39754","norming","","","{""guess"":""braces""}","","../img/tt/273tt.jpg","",""
"null","../img/gs/273gs.jpg","null","reveal","image-keyboard-response","311","1145784","0.0-6.0-4.43","3142902","co39754","norming","","","","","","",""
"null","../img/tt/273tt.jpg","null","mooney2","image-keyboard-response","312","1147789","0.0-6.0-5.43","3142902","co39754","norming","","","","","","",""
"3792.6299999998882","","","post_reveal_questions","survey-likert","313","1151583","0.0-6.0-6.43","3142902","co39754","norming","","","{""aha"":0}","[0]","../img/tt/273tt.jpg","",""
"null","<div style=""font-size:60px;""> </div>","null","fixation","html-keyboard-response","314","1151793","0.0-6.0-0.44","3142902","co39754","norming","","","","","","",""
"null","../img/tt/1122tt.jpg","null","mooney1","image-keyboard-response","315","1154802","0.0-6.0-1.44","3142902","co39754","norming","","","","","","",""
"3211.524999999907","","","post_mooney1_questions","survey-likert","316","1158015","0.0-6.0-2.44","3142902","co39754","norming","","","{""curiosity"":0,""confidence"":4}","[0,1]","../img/tt/1122tt.jpg","",""
"3333.83499999973","","","recognition","survey-text","317","1161351","0.0-6.0-3.44","3142902","co39754","norming","","","{""guess"":""boats""}","","../img/tt/1122tt.jpg","",""
"null","../img/gs/1122gs.jpg","null","reveal","image-keyboard-response","318","1163358","0.0-6.0-4.44","3142902","co39754","norming","","","","","","",""
"null","../img/tt/1122tt.jpg","null","mooney2","image-keyboard-response","319","1165360","0.0-6.0-5.44","3142902","co39754","norming","","","","","","",""
"1846.1299999998882","","","post_reveal_questions","survey-likert","320","1167207","0.0-6.0-6.44","3142902","co39754","norming","","","{""aha"":0}","[0]","../img/tt/1122tt.jpg","",""
"null","<div style=""font-size:60px;""> </div>","null","fixation","html-keyboard-response","321","1167417","0.0-6.0-0.45","3142902","co39754","norming","","","","","","",""
"null","../img/tt/096tt.jpg","null","mooney1","image-keyboard-response","322","1170426","0.0-6.0-1.45","3142902","co39754","norming","","","","","","",""
"2227.105000000214","","","post_mooney1_questions","survey-likert","323","1172655","0.0-6.0-2.45","3142902","co39754","norming","","","{""curiosity"":0,""confidence"":2}","[0,1]","../img/tt/096tt.jpg","",""
"3309.8299999998417","","","recognition","survey-text","324","1175967","0.0-6.0-3.45","3142902","co39754","norming","","","{""guess"":""piano""}","","../img/tt/096tt.jpg","",""
"null","../img/gs/096gs.jpg","null","reveal","image-keyboard-response","325","1177976","0.0-6.0-4.45","3142902","co39754","norming","","","","","","",""
"null","../img/tt/096tt.jpg","null","mooney2","image-keyboard-response","326","1179980","0.0-6.0-5.45","3142902","co39754","norming","","","","","","",""
"1785.589999999851","","","post_reveal_questions","survey-likert","327","1181767","0.0-6.0-6.45","3142902","co39754","norming","","","{""aha"":0}","[0]","../img/tt/096tt.jpg","",""
"null","<div style=""font-size:60px;""> </div>","null","fixation","html-keyboard-response","328","1181972","0.0-6.0-0.46","3142902","co39754","norming","","","","","","",""
"null","../img/tt/1239tt.jpg","null","mooney1","image-keyboard-response","329","1184974","0.0-6.0-1.46","3142902","co39754","norming","","","","","","",""
"4160.069999999832","","","post_mooney1_questions","survey-likert","330","1189135","0.0-6.0-2.46","3142902","co39754","norming","","","{""curiosity"":0,""confidence"":0}","[0,1]","../img/tt/1239tt.jpg","",""
"774.0799999998417","","","recognition","survey-text","331","1189911","0.0-6.0-3.46","3142902","co39754","norming","","","{""guess"":""""}","","../img/tt/1239tt.jpg","",""
"null","../img/gs/1239gs.jpg","null","reveal","image-keyboard-response","332","1191913","0.0-6.0-4.46","3142902","co39754","norming","","","","","","",""
"null","../img/tt/1239tt.jpg","null","mooney2","image-keyboard-response","333","1193914","0.0-6.0-5.46","3142902","co39754","norming","","","","","","",""
"1499.6949999998324","","","post_reveal_questions","survey-likert","334","1195415","0.0-6.0-6.46","3142902","co39754","norming","","","{""aha"":0}","[0]","../img/tt/1239tt.jpg","",""
"null","<div style=""font-size:60px;""> </div>","null","fixation","html-keyboard-response","335","1195619","0.0-6.0-0.47","3142902","co39754","norming","","","","","","",""
"null","../img/tt/1043tt.jpg","null","mooney1","image-keyboard-response","336","1198621","0.0-6.0-1.47","3142902","co39754","norming","","","","","","",""
"5144.885000000009","","","post_mooney1_questions","survey-likert","337","1203767","0.0-6.0-2.47","3142902","co39754","norming","","","{""curiosity"":0,""confidence"":1}","[0,1]","../img/tt/1043tt.jpg","",""
"3941.314999999944","","","recognition","survey-text","338","1207711","0.0-6.0-3.47","3142902","co39754","norming","","","{""guess"":""bear trap""}","","../img/tt/1043tt.jpg","",""
"null","../img/gs/1043gs.jpg","null","reveal","image-keyboard-response","339","1209714","0.0-6.0-4.47","3142902","co39754","norming","","","","","","",""
"null","../img/tt/1043tt.jpg","null","mooney2","image-keyboard-response","340","1211714","0.0-6.0-5.47","3142902","co39754","norming","","","","","","",""
"1987.8049999999348","","","post_reveal_questions","survey-likert","341","1213703","0.0-6.0-6.47","3142902","co39754","norming","","","{""aha"":1}","[0]","../img/tt/1043tt.jpg","",""
"null","<div style=""font-size:60px;""> </div>","null","fixation","html-keyboard-response","342","1213913","0.0-6.0-0.48","3142902","co39754","norming","","","","","","",""
"null","../img/tt/438tt.jpg","null","mooney1","image-keyboard-response","343","1216914","0.0-6.0-1.48","3142902","co39754","norming","","","","","","",""
"3300.2349999998696","","","post_mooney1_questions","survey-likert","344","1220215","0.0-6.0-2.48","3142902","co39754","norming","","","{""curiosity"":0,""confidence"":2}","[0,1]","../img/tt/438tt.jpg","",""
"16533.59999999986","","","recognition","survey-text","345","1236751","0.0-6.0-3.48","3142902","co39754","norming","","","{""guess"":""reptile euh salamander?""}","","../img/tt/438tt.jpg","",""
"null","../img/gs/438gs.jpg","null","reveal","image-keyboard-response","346","1238761","0.0-6.0-4.48","3142902","co39754","norming","","","","","","",""
"null","../img/tt/438tt.jpg","null","mooney2","image-keyboard-response","347","1240767","0.0-6.0-5.48","3142902","co39754","norming","","","","","","",""
"2246.405000000028","","","post_reveal_questions","survey-likert","348","1243015","0.0-6.0-6.48","3142902","co39754","norming","","","{""aha"":2}","[0]","../img/tt/438tt.jpg","",""
"null","<div style=""font-size:60px;""> </div>","null","fixation","html-keyboard-response","349","1243216","0.0-6.0-0.49","3142902","co39754","norming","","","","","","",""
"null","../img/tt/076tt.jpg","null","mooney1","image-keyboard-response","350","1246220","0.0-6.0-1.49","3142902","co39754","norming","","","","","","",""
"6921.554999999935","","","post_mooney1_questions","survey-likert","351","1253143","0.0-6.0-2.49","3142902","co39754","norming","","","{""curiosity"":0,""confidence"":4}","[0,1]","../img/tt/076tt.jpg","",""
"6373.945000000065","","","recognition","survey-text","352","1259519","0.0-6.0-3.49","3142902","co39754","norming","","","{""guess"":""in-line skates""}","","../img/tt/076tt.jpg","",""
"null","../img/gs/076gs.jpg","null","reveal","image-keyboard-response","353","1261527","0.0-6.0-4.49","3142902","co39754","norming","","","","","","",""
"null","../img/tt/076tt.jpg","null","mooney2","image-keyboard-response","354","1263529","0.0-6.0-5.49","3142902","co39754","norming","","","","","","",""
"1916.160000000149","","","post_reveal_questions","survey-likert","355","1265447","0.0-6.0-6.49","3142902","co39754","norming","","","{""aha"":0}","[0]","../img/tt/076tt.jpg","",""
"null","<div style=""font-size:60px;""> </div>","null","fixation","html-keyboard-response","356","1265658","0.0-6.0-0.50","3142902","co39754","norming","","","","","","",""
"null","../img/tt/1012tt.jpg","null","mooney1","image-keyboard-response","357","1268661","0.0-6.0-1.50","3142902","co39754","norming","","","","","","",""
"2912.220000000205","","","post_mooney1_questions","survey-likert","358","1271575","0.0-6.0-2.50","3142902","co39754","norming","","","{""curiosity"":0,""confidence"":0}","[0,1]","../img/tt/1012tt.jpg","",""
"614.0849999999627","","","recognition","survey-text","359","1272191","0.0-6.0-3.50","3142902","co39754","norming","","","{""guess"":""""}","","../img/tt/1012tt.jpg","",""
"null","../img/gs/1012gs.jpg","null","reveal","image-keyboard-response","360","1274199","0.0-6.0-4.50","3142902","co39754","norming","","","","","","",""
"null","../img/tt/1012tt.jpg","null","mooney2","image-keyboard-response","361","1276203","0.0-6.0-5.50","3142902","co39754","norming","","","","","","",""
"1881.2500000002328","","","post_reveal_questions","survey-likert","362","1278087","0.0-6.0-6.50","3142902","co39754","norming","","","{""aha"":2}","[0]","../img/tt/1012tt.jpg","",""
"null","<div style=""font-size:60px;""> </div>","null","fixation","html-keyboard-response","363","1278289","0.0-6.0-0.51","3142902","co39754","norming","","","","","","",""
"null","../img/tt/163tt.jpg","null","mooney1","image-keyboard-response","364","1281297","0.0-6.0-1.51","3142902","co39754","norming","","","","","","",""
"3811.494999999879","","","post_mooney1_questions","survey-likert","365","1285111","0.0-6.0-2.51","3142902","co39754","norming","","","{""curiosity"":0,""confidence"":0}","[0,1]","../img/tt/163tt.jpg","",""
"582.1650000000373","","","recognition","survey-text","366","1285695","0.0-6.0-3.51","3142902","co39754","norming","","","{""guess"":""""}","","../img/tt/163tt.jpg","",""
"null","../img/gs/163gs.jpg","null","reveal","image-keyboard-response","367","1287705","0.0-6.0-4.51","3142902","co39754","norming","","","","","","",""
"null","../img/tt/163tt.jpg","null","mooney2","image-keyboard-response","368","1289715","0.0-6.0-5.51","3142902","co39754","norming","","","","","","",""
"4801.424999999814","","","post_reveal_questions","survey-likert","369","1294515","0.0-6.0-6.51","3142902","co39754","norming","","","{""aha"":2}","[0]","../img/tt/163tt.jpg","",""
"null","<div style=""font-size:60px;""> </div>","null","fixation","html-keyboard-response","370","1294718","0.0-6.0-0.52","3142902","co39754","norming","","","","","","",""
"null","../img/tt/1227tt.jpg","null","mooney1","image-keyboard-response","371","1297721","0.0-6.0-1.52","3142902","co39754","norming","","","","","","",""
"3318.3950000000186","","","post_mooney1_questions","survey-likert","372","1301043","0.0-6.0-2.52","3142902","co39754","norming","","","{""curiosity"":0,""confidence"":4}","[0,1]","../img/tt/1227tt.jpg","",""
"5542.065000000177","","","recognition","survey-text","373","1306587","0.0-6.0-3.52","3142902","co39754","norming","","","{""guess"":""chicken""}","","../img/tt/1227tt.jpg","",""
"null","../img/gs/1227gs.jpg","null","reveal","image-keyboard-response","374","1308593","0.0-6.0-4.52","3142902","co39754","norming","","","","","","",""
"null","../img/tt/1227tt.jpg","null","mooney2","image-keyboard-response","375","1310595","0.0-6.0-5.52","3142902","co39754","norming","","","","","","",""
"1437.6449999997858","","","post_reveal_questions","survey-likert","376","1312035","0.0-6.0-6.52","3142902","co39754","norming","","","{""aha"":0}","[0]","../img/tt/1227tt.jpg","",""
"null","<div style=""font-size:60px;""> </div>","null","fixation","html-keyboard-response","377","1312239","0.0-6.0-0.53","3142902","co39754","norming","","","","","","",""
"null","../img/tt/044tt.jpg","null","mooney1","image-keyboard-response","378","1315248","0.0-6.0-1.53","3142902","co39754","norming","","","","","","",""
"3984.119999999879","","","post_mooney1_questions","survey-likert","379","1319235","0.0-6.0-2.53","3142902","co39754","norming","","","{""curiosity"":0,""confidence"":2}","[0,1]","../img/tt/044tt.jpg","",""
"7469.980000000214","","","recognition","survey-text","380","1326707","0.0-6.0-3.53","3142902","co39754","norming","","","{""guess"":""under water""}","","../img/tt/044tt.jpg","",""
"null","../img/gs/044gs.jpg","null","reveal","image-keyboard-response","381","1328713","0.0-6.0-4.53","3142902","co39754","norming","","","","","","",""
"null","../img/tt/044tt.jpg","null","mooney2","image-keyboard-response","382","1330715","0.0-6.0-5.53","3142902","co39754","norming","","","","","","",""
"1453.559999999823","","","post_reveal_questions","survey-likert","383","1332171","0.0-6.0-6.53","3142902","co39754","norming","","","{""aha"":2}","[0]","../img/tt/044tt.jpg","",""
"null","<div style=""font-size:60px;""> </div>","null","fixation","html-keyboard-response","384","1332372","0.0-6.0-0.54","3142902","co39754","norming","","","","","","",""
"null","../img/tt/1242tt.jpg","null","mooney1","image-keyboard-response","385","1335375","0.0-6.0-1.54","3142902","co39754","norming","","","","","","",""
"2738.1500000001397","","","post_mooney1_questions","survey-likert","386","1338115","0.0-6.0-2.54","3142902","co39754","norming","","","{""curiosity"":0,""confidence"":0}","[0,1]","../img/tt/1242tt.jpg","",""
"790.0700000000652","","","recognition","survey-text","387","1338907","0.0-6.0-3.54","3142902","co39754","norming","","","{""guess"":""""}","","../img/tt/1242tt.jpg","",""
"null","../img/gs/1242gs.jpg","null","reveal","image-keyboard-response","388","1340916","0.0-6.0-4.54","3142902","co39754","norming","","","","","","",""
"null","../img/tt/1242tt.jpg","null","mooney2","image-keyboard-response","389","1342917","0.0-6.0-5.54","3142902","co39754","norming","","","","","","",""
"1588.839999999851","","","post_reveal_questions","survey-likert","390","1344507","0.0-6.0-6.54","3142902","co39754","norming","","","{""aha"":1}","[0]","../img/tt/1242tt.jpg","",""
"null","<div style=""font-size:60px;""> </div>","null","fixation","html-keyboard-response","391","1344717","0.0-6.0-0.55","3142902","co39754","norming","","","","","","",""
"null","../img/tt/1080tt.jpg","null","mooney1","image-keyboard-response","392","1347722","0.0-6.0-1.55","3142902","co39754","norming","","","","","","",""
"2997.689999999944","","","post_mooney1_questions","survey-likert","393","1350723","0.0-6.0-2.55","3142902","co39754","norming","","","{""curiosity"":0,""confidence"":0}","[0,1]","../img/tt/1080tt.jpg","",""
"462.12999999988824","","","recognition","survey-text","394","1351187","0.0-6.0-3.55","3142902","co39754","norming","","","{""guess"":""""}","","../img/tt/1080tt.jpg","",""
"null","../img/gs/1080gs.jpg","null","reveal","image-keyboard-response","395","1353191","0.0-6.0-4.55","3142902","co39754","norming","","","","","","",""
"null","../img/tt/1080tt.jpg","null","mooney2","image-keyboard-response","396","1355207","0.0-6.0-5.55","3142902","co39754","norming","","","","","","",""
"1879.5200000000186","","","post_reveal_questions","survey-likert","397","1357087","0.0-6.0-6.55","3142902","co39754","norming","","","{""aha"":0}","[0]","../img/tt/1080tt.jpg","",""
"null","<div style=""font-size:60px;""> </div>","null","fixation","html-keyboard-response","398","1357295","0.0-6.0-0.56","3142902","co39754","norming","","","","","","",""
"null","../img/tt/112tt.jpg","null","mooney1","image-keyboard-response","399","1360300","0.0-6.0-1.56","3142902","co39754","norming","","","","","","",""
"2672.2299999999814","","","post_mooney1_questions","survey-likert","400","1362976","0.0-6.0-2.56","3142902","co39754","norming","","","{""curiosity"":0,""confidence"":1}","[0,1]","../img/tt/112tt.jpg","",""
"4406.195000000065","","","recognition","survey-text","401","1367383","0.0-6.0-3.56","3142902","co39754","norming","","","{""guess"":""instrument""}","","../img/tt/112tt.jpg","",""
"null","../img/gs/112gs.jpg","null","reveal","image-keyboard-response","402","1369387","0.0-6.0-4.56","3142902","co39754","norming","","","","","","",""
"null","../img/tt/112tt.jpg","null","mooney2","image-keyboard-response","403","1371398","0.0-6.0-5.56","3142902","co39754","norming","","","","","","",""
"3543.45999999973","","","post_reveal_questions","survey-likert","404","1374944","0.0-6.0-6.56","3142902","co39754","norming","","","{""aha"":2}","[0]","../img/tt/112tt.jpg","",""
"null","<div style=""font-size:60px;""> </div>","null","fixation","html-keyboard-response","405","1375145","0.0-6.0-0.57","3142902","co39754","norming","","","","","","",""
"null","../img/tt/1261tt.jpg","null","mooney1","image-keyboard-response","406","1378155","0.0-6.0-1.57","3142902","co39754","norming","","","","","","",""
"2569.439999999944","","","post_mooney1_questions","survey-likert","407","1380728","0.0-6.0-2.57","3142902","co39754","norming","","","{""curiosity"":0,""confidence"":1}","[0,1]","../img/tt/1261tt.jpg","",""
"8790.070000000065","","","recognition","survey-text","408","1389519","0.0-6.0-3.57","3142902","co39754","norming","","","{""guess"":""window""}","","../img/tt/1261tt.jpg","",""
"null","../img/gs/1261gs.jpg","null","reveal","image-keyboard-response","409","1391523","0.0-6.0-4.57","3142902","co39754","norming","","","","","","",""
"null","../img/tt/1261tt.jpg","null","mooney2","image-keyboard-response","410","1393526","0.0-6.0-5.57","3142902","co39754","norming","","","","","","",""
"4215.054999999935","","","post_reveal_questions","survey-likert","411","1397744","0.0-6.0-6.57","3142902","co39754","norming","","","{""aha"":1}","[0]","../img/tt/1261tt.jpg","",""
"null","<div style=""font-size:60px;""> </div>","null","fixation","html-keyboard-response","412","1397952","0.0-6.0-0.58","3142902","co39754","norming","","","","","","",""
"null","../img/tt/079tt.jpg","null","mooney1","image-keyboard-response","413","1400955","0.0-6.0-1.58","3142902","co39754","norming","","","","","","",""
"2992.785000000149","","","post_mooney1_questions","survey-likert","414","1403952","0.0-6.0-2.58","3142902","co39754","norming","","","{""curiosity"":0,""confidence"":1}","[0,1]","../img/tt/079tt.jpg","",""
"3566.4199999999255","","","recognition","survey-text","415","1407519","0.0-6.0-3.58","3142902","co39754","norming","","","{""guess"":""mountain""}","","../img/tt/079tt.jpg","",""
"null","../img/gs/079gs.jpg","null","reveal","image-keyboard-response","416","1409521","0.0-6.0-4.58","3142902","co39754","norming","","","","","","",""
"null","../img/tt/079tt.jpg","null","mooney2","image-keyboard-response","417","1411523","0.0-6.0-5.58","3142902","co39754","norming","","","","","","",""
"1882.1200000003446","","","post_reveal_questions","survey-likert","418","1413408","0.0-6.0-6.58","3142902","co39754","norming","","","{""aha"":2}","[0]","../img/tt/079tt.jpg","",""
"null","<div style=""font-size:60px;""> </div>","null","fixation","html-keyboard-response","419","1413616","0.0-6.0-0.59","3142902","co39754","norming","","","","","","",""
"null","../img/tt/580tt.jpg","null","mooney1","image-keyboard-response","420","1416625","0.0-6.0-1.59","3142902","co39754","norming","","","","","","",""
"3923.5550000001676","","","post_mooney1_questions","survey-likert","421","1420552","0.0-6.0-2.59","3142902","co39754","norming","","","{""curiosity"":0,""confidence"":0}","[0,1]","../img/tt/580tt.jpg","",""
"613.8999999999069","","","recognition","survey-text","422","1421167","0.0-6.0-3.59","3142902","co39754","norming","","","{""guess"":""""}","","../img/tt/580tt.jpg","",""
"null","../img/gs/580gs.jpg","null","reveal","image-keyboard-response","423","1423168","0.0-6.0-4.59","3142902","co39754","norming","","","","","","",""
"null","../img/tt/580tt.jpg","null","mooney2","image-keyboard-response","424","1425171","0.0-6.0-5.59","3142902","co39754","norming","","","","","","",""
"1201.2299999999814","","","post_reveal_questions","survey-likert","425","1426375","0.0-6.0-6.59","3142902","co39754","norming","","","{""aha"":1}","[0]","../img/tt/580tt.jpg","",""
"null","<div style=""font-size:60px;""> </div>","null","fixation","html-keyboard-response","426","1426585","0.0-6.0-0.60","3142902","co39754","norming","","","","","","",""
"null","../img/tt/1250tt.jpg","null","mooney1","image-keyboard-response","427","1429588","0.0-6.0-1.60","3142902","co39754","norming","","","","","","",""
"5744.929999999702","","","post_mooney1_questions","survey-likert","428","1435336","0.0-6.0-2.60","3142902","co39754","norming","","","{""curiosity"":0,""confidence"":2}","[0,1]","../img/tt/1250tt.jpg","",""
"2821.809999999823","","","recognition","survey-text","429","1438159","0.0-6.0-3.60","3142902","co39754","norming","","","{""guess"":""otters""}","","../img/tt/1250tt.jpg","",""
"null","../img/gs/1250gs.jpg","null","reveal","image-keyboard-response","430","1440167","0.0-6.0-4.60","3142902","co39754","norming","","","","","","",""
"null","../img/tt/1250tt.jpg","null","mooney2","image-keyboard-response","431","1442175","0.0-6.0-5.60","3142902","co39754","norming","","","","","","",""
"2277.945000000065","","","post_reveal_questions","survey-likert","432","1444455","0.0-6.0-6.60","3142902","co39754","norming","","","{""aha"":2}","[0]","../img/tt/1250tt.jpg","",""
"null","<div style=""font-size:60px;""> </div>","null","fixation","html-keyboard-response","433","1444657","0.0-6.0-0.61","3142902","co39754","norming","","","","","","",""
"null","../img/tt/1251tt.jpg","null","mooney1","image-keyboard-response","434","1447659","0.0-6.0-1.61","3142902","co39754","norming","","","","","","",""
"2563.005000000121","","","post_mooney1_questions","survey-likert","435","1450223","0.0-6.0-2.61","3142902","co39754","norming","","","{""curiosity"":0,""confidence"":1}","[0,1]","../img/tt/1251tt.jpg","",""
"3366.2549999998882","","","recognition","survey-text","436","1453591","0.0-6.0-3.61","3142902","co39754","norming","","","{""guess"":""animal""}","","../img/tt/1251tt.jpg","",""
"null","../img/gs/1251gs.jpg","null","reveal","image-keyboard-response","437","1455599","0.0-6.0-4.61","3142902","co39754","norming","","","","","","",""
"null","../img/tt/1251tt.jpg","null","mooney2","image-keyboard-response","438","1457611","0.0-6.0-5.61","3142902","co39754","norming","","","","","","",""
"2066.2700000000186","","","post_reveal_questions","survey-likert","439","1459679","0.0-6.0-6.61","3142902","co39754","norming","","","{""aha"":1}","[0]","../img/tt/1251tt.jpg","",""
"null","<div style=""font-size:60px;""> </div>","null","fixation","html-keyboard-response","440","1459887","0.0-6.0-0.62","3142902","co39754","norming","","","","","","",""
"null","../img/tt/1189tt.jpg","null","mooney1","image-keyboard-response","441","1462895","0.0-6.0-1.62","3142902","co39754","norming","","","","","","",""
"2983.760000000242","","","post_mooney1_questions","survey-likert","442","1465880","0.0-6.0-2.62","3142902","co39754","norming","","","{""curiosity"":0,""confidence"":1}","[0,1]","../img/tt/1189tt.jpg","",""
"3582.1399999998976","","","recognition","survey-text","443","1469463","0.0-6.0-3.62","3142902","co39754","norming","","","{""guess"":""sea""}","","../img/tt/1189tt.jpg","",""
"null","../img/gs/1189gs.jpg","null","reveal","image-keyboard-response","444","1471464","0.0-6.0-4.62","3142902","co39754","norming","","","","","","",""
"null","../img/tt/1189tt.jpg","null","mooney2","image-keyboard-response","445","1473466","0.0-6.0-5.62","3142902","co39754","norming","","","","","","",""
"1482.755000000121","","","post_reveal_questions","survey-likert","446","1474951","0.0-6.0-6.62","3142902","co39754","norming","","","{""aha"":2}","[0]","../img/tt/1189tt.jpg","",""
"null","<div style=""font-size:60px;""> </div>","null","fixation","html-keyboard-response","447","1475159","0.0-6.0-0.63","3142902","co39754","norming","","","","","","",""
"null","../img/tt/1091tt.jpg","null","mooney1","image-keyboard-response","448","1478165","0.0-6.0-1.63","3142902","co39754","norming","","","","","","",""
"3127.159999999916","","","post_mooney1_questions","survey-likert","449","1481296","0.0-6.0-2.63","3142902","co39754","norming","","","{""curiosity"":0,""confidence"":1}","[0,1]","../img/tt/1091tt.jpg","",""
"5230.064999999944","","","recognition","survey-text","450","1486527","0.0-6.0-3.63","3142902","co39754","norming","","","{""guess"":""elephant""}","","../img/tt/1091tt.jpg","",""
"null","../img/gs/1091gs.jpg","null","reveal","image-keyboard-response","451","1488533","0.0-6.0-4.63","3142902","co39754","norming","","","","","","",""
"null","../img/tt/1091tt.jpg","null","mooney2","image-keyboard-response","452","1490537","0.0-6.0-5.63","3142902","co39754","norming","","","","","","",""
"1819.714999999851","","","post_reveal_questions","survey-likert","453","1492359","0.0-6.0-6.63","3142902","co39754","norming","","","{""aha"":1}","[0]","../img/tt/1091tt.jpg","",""
"null","<div style=""font-size:60px;""> </div>","null","fixation","html-keyboard-response","454","1492569","0.0-6.0-0.64","3142902","co39754","norming","","","","","","",""
"null","../img/tt/301tt.jpg","null","mooney1","image-keyboard-response","455","1495573","0.0-6.0-1.64","3142902","co39754","norming","","","","","","",""
"2846.8649999999907","","","post_mooney1_questions","survey-likert","456","1498424","0.0-6.0-2.64","3142902","co39754","norming","","","{""curiosity"":0,""confidence"":1}","[0,1]","../img/tt/301tt.jpg","",""
"3405.964999999851","","","recognition","survey-text","457","1501831","0.0-6.0-3.64","3142902","co39754","norming","","","{""guess"":""curtain""}","","../img/tt/301tt.jpg","",""
"null","../img/gs/301gs.jpg","null","reveal","image-keyboard-response","458","1503833","0.0-6.0-4.64","3142902","co39754","norming","","","","","","",""
"null","../img/tt/301tt.jpg","null","mooney2","image-keyboard-response","459","1505836","0.0-6.0-5.64","3142902","co39754","norming","","","","","","",""
"1665.3600000001024","","","post_reveal_questions","survey-likert","460","1507503","0.0-6.0-6.64","3142902","co39754","norming","","","{""aha"":1}","[0]","../img/tt/301tt.jpg","",""
"null","<div style=""font-size:60px;""> </div>","null","fixation","html-keyboard-response","461","1507705","0.0-6.0-0.65","3142902","co39754","norming","","","","","","",""
"null","../img/tt/1156tt.jpg","null","mooney1","image-keyboard-response","462","1510711","0.0-6.0-1.65","3142902","co39754","norming","","","","","","",""
"2469.9899999999907","","","post_mooney1_questions","survey-likert","463","1513184","0.0-6.0-2.65","3142902","co39754","norming","","","{""curiosity"":0,""confidence"":0}","[0,1]","../img/tt/1156tt.jpg","",""
"702.0849999997299","","","recognition","survey-text","464","1513887","0.0-6.0-3.65","3142902","co39754","norming","","","{""guess"":""""}","","../img/tt/1156tt.jpg","",""
"null","../img/gs/1156gs.jpg","null","reveal","image-keyboard-response","465","1515895","0.0-6.0-4.65","3142902","co39754","norming","","","","","","",""
"null","../img/tt/1156tt.jpg","null","mooney2","image-keyboard-response","466","1517899","0.0-6.0-5.65","3142902","co39754","norming","","","","","","",""
"2755.945000000065","","","post_reveal_questions","survey-likert","467","1520655","0.0-6.0-6.65","3142902","co39754","norming","","","{""aha"":2}","[0]","../img/tt/1156tt.jpg","",""
"null","<div style=""font-size:60px;""> </div>","null","fixation","html-keyboard-response","468","1520864","0.0-6.0-0.66","3142902","co39754","norming","","","","","","",""
"null","../img/tt/590tt.jpg","null","mooney1","image-keyboard-response","469","1523865","0.0-6.0-1.66","3142902","co39754","norming","","","","","","",""
"2331.440000000177","","","post_mooney1_questions","survey-likert","470","1526200","0.0-6.0-2.66","3142902","co39754","norming","","","{""curiosity"":0,""confidence"":1}","[0,1]","../img/tt/590tt.jpg","",""
"5558.119999999879","","","recognition","survey-text","471","1531759","0.0-6.0-3.66","3142902","co39754","norming","","","{""guess"":""instrument""}","","../img/tt/590tt.jpg","",""
"null","../img/gs/590gs.jpg","null","reveal","image-keyboard-response","472","1533761","0.0-6.0-4.66","3142902","co39754","norming","","","","","","",""
"null","../img/tt/590tt.jpg","null","mooney2","image-keyboard-response","473","1535772","0.0-6.0-5.66","3142902","co39754","norming","","","","","","",""
"1184.7000000001863","","","post_reveal_questions","survey-likert","474","1536959","0.0-6.0-6.66","3142902","co39754","norming","","","{""aha"":2}","[0]","../img/tt/590tt.jpg","",""
"null","<div style=""font-size:60px;""> </div>","null","fixation","html-keyboard-response","475","1537163","0.0-6.0-0.67","3142902","co39754","norming","","","","","","",""
"null","../img/tt/007tt.jpg","null","mooney1","image-keyboard-response","476","1540165","0.0-6.0-1.67","3142902","co39754","norming","","","","","","",""
"2591.6350000000093","","","post_mooney1_questions","survey-likert","477","1542760","0.0-6.0-2.67","3142902","co39754","norming","","","{""curiosity"":0,""confidence"":0}","[0,1]","../img/tt/007tt.jpg","",""
"910.0800000000745","","","recognition","survey-text","478","1543671","0.0-6.0-3.67","3142902","co39754","norming","","","{""guess"":""""}","","../img/tt/007tt.jpg","",""
"null","../img/gs/007gs.jpg","null","reveal","image-keyboard-response","479","1545674","0.0-6.0-4.67","3142902","co39754","norming","","","","","","",""
"null","../img/tt/007tt.jpg","null","mooney2","image-keyboard-response","480","1547677","0.0-6.0-5.67","3142902","co39754","norming","","","","","","",""
"1551.8700000001118","","","post_reveal_questions","survey-likert","481","1549232","0.0-6.0-6.67","3142902","co39754","norming","","","{""aha"":1}","[0]","../img/tt/007tt.jpg","",""
"null","<div style=""font-size:60px;""> </div>","null","fixation","html-keyboard-response","482","1549442","0.0-6.0-0.68","3142902","co39754","norming","","","","","","",""
"null","../img/tt/603tt.jpg","null","mooney1","image-keyboard-response","483","1552445","0.0-6.0-1.68","3142902","co39754","norming","","","","","","",""
"6607.090000000084","","","post_mooney1_questions","survey-likert","484","1559055","0.0-6.0-2.68","3142902","co39754","norming","","","{""curiosity"":0,""confidence"":2}","[0,1]","../img/tt/603tt.jpg","",""
"7109.869999999646","","","recognition","survey-text","485","1566167","0.0-6.0-3.68","3142902","co39754","norming","","","{""guess"":""butterfly with eyes on back""}","","../img/tt/603tt.jpg","",""
"null","../img/gs/603gs.jpg","null","reveal","image-keyboard-response","486","1568173","0.0-6.0-4.68","3142902","co39754","norming","","","","","","",""
"null","../img/tt/603tt.jpg","null","mooney2","image-keyboard-response","487","1570179","0.0-6.0-5.68","3142902","co39754","norming","","","","","","",""
"3449.755000000121","","","post_reveal_questions","survey-likert","488","1573631","0.0-6.0-6.68","3142902","co39754","norming","","","{""aha"":1}","[0]","../img/tt/603tt.jpg","",""
"null","<div style=""font-size:60px;""> </div>","null","fixation","html-keyboard-response","489","1573838","0.0-6.0-0.69","3142902","co39754","norming","","","","","","",""
"null","../img/tt/353tt.jpg","null","mooney1","image-keyboard-response","490","1576846","0.0-6.0-1.69","3142902","co39754","norming","","","","","","",""
"2824.70999999973","","","post_mooney1_questions","survey-likert","491","1579672","0.0-6.0-2.69","3142902","co39754","norming","","","{""curiosity"":0,""confidence"":1}","[0,1]","../img/tt/353tt.jpg","",""
"2974.189999999944","","","recognition","survey-text","492","1582647","0.0-6.0-3.69","3142902","co39754","norming","","","{""guess"":""animal""}","","../img/tt/353tt.jpg","",""
"null","../img/gs/353gs.jpg","null","reveal","image-keyboard-response","493","1584656","0.0-6.0-4.69","3142902","co39754","norming","","","","","","",""
"null","../img/tt/353tt.jpg","null","mooney2","image-keyboard-response","494","1586657","0.0-6.0-5.69","3142902","co39754","norming","","","","","","",""
"2443.5349999996834","","","post_reveal_questions","survey-likert","495","1589104","0.0-6.0-6.69","3142902","co39754","norming","","","{""aha"":2}","[0]","../img/tt/353tt.jpg","",""
"null","<div style=""font-size:60px;""> </div>","null","fixation","html-keyboard-response","496","1589314","0.0-6.0-0.70","3142902","co39754","norming","","","","","","",""
"null","../img/tt/1234tt.jpg","null","mooney1","image-keyboard-response","497","1592317","0.0-6.0-1.70","3142902","co39754","norming","","","","","","",""
"2681.7000000001863","","","post_mooney1_questions","survey-likert","498","1595000","0.0-6.0-2.70","3142902","co39754","norming","","","{""curiosity"":0,""confidence"":0}","[0,1]","../img/tt/1234tt.jpg","",""
"1590.0550000001676","","","recognition","survey-text","499","1596591","0.0-6.0-3.70","3142902","co39754","norming","","","{""guess"":""""}","","../img/tt/1234tt.jpg","",""
"null","../img/gs/1234gs.jpg","null","reveal","image-keyboard-response","500","1598598","0.0-6.0-4.70","3142902","co39754","norming","","","","","","",""
"null","../img/tt/1234tt.jpg","null","mooney2","image-keyboard-response","501","1600601","0.0-6.0-5.70","3142902","co39754","norming","","","","","","",""
"1412.4100000003818","","","post_reveal_questions","survey-likert","502","1602016","0.0-6.0-6.70","3142902","co39754","norming","","","{""aha"":2}","[0]","../img/tt/1234tt.jpg","",""
"null","<div style=""font-size:60px;""> </div>","null","fixation","html-keyboard-response","503","1602223","0.0-6.0-0.71","3142902","co39754","norming","","","","","","",""
"null","../img/tt/1033tt.jpg","null","mooney1","image-keyboard-response","504","1605234","0.0-6.0-1.71","3142902","co39754","norming","","","","","","",""
"2434.8300000003073","","","post_mooney1_questions","survey-likert","505","1607672","0.0-6.0-2.71","3142902","co39754","norming","","","{""curiosity"":0,""confidence"":0}","[0,1]","../img/tt/1033tt.jpg","",""
"565.5449999999255","","","recognition","survey-text","506","1608239","0.0-6.0-3.71","3142902","co39754","norming","","","{""guess"":""""}","","../img/tt/1033tt.jpg","",""
"null","../img/gs/1033gs.jpg","null","reveal","image-keyboard-response","507","1610241","0.0-6.0-4.71","3142902","co39754","norming","","","","","","",""
"null","../img/tt/1033tt.jpg","null","mooney2","image-keyboard-response","508","1612246","0.0-6.0-5.71","3142902","co39754","norming","","","","","","",""
"3902.9250000002794","","","post_reveal_questions","survey-likert","509","1616152","0.0-6.0-6.71","3142902","co39754","norming","","","{""aha"":1}","[0]","../img/tt/1033tt.jpg","",""
"null","<div style=""font-size:60px;""> </div>","null","fixation","html-keyboard-response","510","1616357","0.0-6.0-0.72","3142902","co39754","norming","","","","","","",""
"null","../img/tt/1044tt.jpg","null","mooney1","image-keyboard-response","511","1619360","0.0-6.0-1.72","3142902","co39754","norming","","","","","","",""
"3148.850000000093","","","post_mooney1_questions","survey-likert","512","1622512","0.0-6.0-2.72","3142902","co39754","norming","","","{""curiosity"":0,""confidence"":1}","[0,1]","../img/tt/1044tt.jpg","",""
"3693.6700000001583","","","recognition","survey-text","513","1626207","0.0-6.0-3.72","3142902","co39754","norming","","","{""guess"":""volcano""}","","../img/tt/1044tt.jpg","",""
"null","../img/gs/1044gs.jpg","null","reveal","image-keyboard-response","514","1628212","0.0-6.0-4.72","3142902","co39754","norming","","","","","","",""
"null","../img/tt/1044tt.jpg","null","mooney2","image-keyboard-response","515","1630216","0.0-6.0-5.72","3142902","co39754","norming","","","","","","",""
"1013.1149999997579","","","post_reveal_questions","survey-likert","516","1631231","0.0-6.0-6.72","3142902","co39754","norming","","","{""aha"":2}","[0]","../img/tt/1044tt.jpg","",""
"null","<div style=""font-size:60px;""> </div>","null","fixation","html-keyboard-response","517","1631435","0.0-6.0-0.73","3142902","co39754","norming","","","","","","",""
"null","../img/tt/1260tt.jpg","null","mooney1","image-keyboard-response","518","1634439","0.0-6.0-1.73","3142902","co39754","norming","","","","","","",""
"2431.6599999996834","","","post_mooney1_questions","survey-likert","519","1636872","0.0-6.0-2.73","3142902","co39754","norming","","","{""curiosity"":0,""confidence"":1}","[0,1]","../img/tt/1260tt.jpg","",""
"5301.890000000363","","","recognition","survey-text","520","1642175","0.0-6.0-3.73","3142902","co39754","norming","","","{""guess"":""nature""}","","../img/tt/1260tt.jpg","",""
"null","../img/gs/1260gs.jpg","null","reveal","image-keyboard-response","521","1644183","0.0-6.0-4.73","3142902","co39754","norming","","","","","","",""
"null","../img/tt/1260tt.jpg","null","mooney2","image-keyboard-response","522","1646186","0.0-6.0-5.73","3142902","co39754","norming","","","","","","",""
"1899.494999999646","","","post_reveal_questions","survey-likert","523","1648088","0.0-6.0-6.73","3142902","co39754","norming","","","{""aha"":1}","[0]","../img/tt/1260tt.jpg","",""
"null","<div style=""font-size:60px;""> </div>","null","fixation","html-keyboard-response","524","1648290","0.0-6.0-0.74","3142902","co39754","norming","","","","","","",""
"null","../img/tt/1027tt.jpg","null","mooney1","image-keyboard-response","525","1651293","0.0-6.0-1.74","3142902","co39754","norming","","","","","","",""
"3007.4850000001024","","","post_mooney1_questions","survey-likert","526","1654304","0.0-6.0-2.74","3142902","co39754","norming","","","{""curiosity"":0,""confidence"":0}","[0,1]","../img/tt/1027tt.jpg","",""
"717.9550000000745","","","recognition","survey-text","527","1655024","0.0-6.0-3.74","3142902","co39754","norming","","","{""guess"":""""}","","../img/tt/1027tt.jpg","",""
"null","../img/gs/1027gs.jpg","null","reveal","image-keyboard-response","528","1657025","0.0-6.0-4.74","3142902","co39754","norming","","","","","","",""
"null","../img/tt/1027tt.jpg","null","mooney2","image-keyboard-response","529","1659035","0.0-6.0-5.74","3142902","co39754","norming","","","","","","",""
"1137.3250000001863","","","post_reveal_questions","survey-likert","530","1660176","0.0-6.0-6.74","3142902","co39754","norming","","","{""aha"":1}","[0]","../img/tt/1027tt.jpg","",""
"null","<div style=""font-size:60px;""> </div>","null","fixation","html-keyboard-response","531","1660380","0.0-6.0-0.75","3142902","co39754","norming","","","","","","",""
"null","../img/tt/307tt.jpg","null","mooney1","image-keyboard-response","532","1663385","0.0-6.0-1.75","3142902","co39754","norming","","","","","","",""
"2807.155000000028","","","post_mooney1_questions","survey-likert","533","1666193","0.0-6.0-2.75","3142902","co39754","norming","","","{""curiosity"":0,""confidence"":0}","[0,1]","../img/tt/307tt.jpg","",""
"774.4000000003725","","","recognition","survey-text","534","1666969","0.0-6.0-3.75","3142902","co39754","norming","","","{""guess"":""""}","","../img/tt/307tt.jpg","",""
"null","../img/gs/307gs.jpg","null","reveal","image-keyboard-response","535","1668974","0.0-6.0-4.75","3142902","co39754","norming","","","","","","",""
"null","../img/tt/307tt.jpg","null","mooney2","image-keyboard-response","536","1670976","0.0-6.0-5.75","3142902","co39754","norming","","","","","","",""
"1646.9699999997392","","","post_reveal_questions","survey-likert","537","1672625","0.0-6.0-6.75","3142902","co39754","norming","","","{""aha"":2}","[0]","../img/tt/307tt.jpg","",""
"null","<div style=""font-size:60px;""> </div>","null","fixation","html-keyboard-response","538","1672827","0.0-6.0-0.76","3142902","co39754","norming","","","","","","",""
"null","../img/tt/456tt.jpg","null","mooney1","image-keyboard-response","539","1675835","0.0-6.0-1.76","3142902","co39754","norming","","","","","","",""
"2835.469999999972","","","post_mooney1_questions","survey-likert","540","1678674","0.0-6.0-2.76","3142902","co39754","norming","","","{""curiosity"":0,""confidence"":1}","[0,1]","../img/tt/456tt.jpg","",""
"2725.9449999995995","","","recognition","survey-text","541","1681402","0.0-6.0-3.76","3142902","co39754","norming","","","{""guess"":""animal""}","","../img/tt/456tt.jpg","",""
"null","../img/gs/456gs.jpg","null","reveal","image-keyboard-response","542","1683403","0.0-6.0-4.76","3142902","co39754","norming","","","","","","",""
"null","../img/tt/456tt.jpg","null","mooney2","image-keyboard-response","543","1685413","0.0-6.0-5.76","3142902","co39754","norming","","","","","","",""
"1561.8249999999534","","","post_reveal_questions","survey-likert","544","1686978","0.0-6.0-6.76","3142902","co39754","norming","","","{""aha"":1}","[0]","../img/tt/456tt.jpg","",""
"null","<div style=""font-size:60px;""> </div>","null","fixation","html-keyboard-response","545","1687185","0.0-6.0-0.77","3142902","co39754","norming","","","","","","",""
"null","../img/tt/517tt.jpg","null","mooney1","image-keyboard-response","546","1690192","0.0-6.0-1.77","3142902","co39754","norming","","","","","","",""
"2822.3000000002794","","","post_mooney1_questions","survey-likert","547","1693018","0.0-6.0-2.77","3142902","co39754","norming","","","{""curiosity"":0,""confidence"":1}","[0,1]","../img/tt/517tt.jpg","",""
"3678.1200000001118","","","recognition","survey-text","548","1696698","0.0-6.0-3.77","3142902","co39754","norming","","","{""guess"":""nose of animal""}","","../img/tt/517tt.jpg","",""
"null","../img/gs/517gs.jpg","null","reveal","image-keyboard-response","549","1698700","0.0-6.0-4.77","3142902","co39754","norming","","","","","","",""
"null","../img/tt/517tt.jpg","null","mooney2","image-keyboard-response","550","1700703","0.0-6.0-5.77","3142902","co39754","norming","","","","","","",""
"2631.7949999996927","","","post_reveal_questions","survey-likert","551","1703338","0.0-6.0-6.77","3142902","co39754","norming","","","{""aha"":1}","[0]","../img/tt/517tt.jpg","",""
