"rt","stimulus","key_press","test_part","trial_type","trial_index","time_elapsed","internal_node_id","totalTime","subject","experiment_name","button_pressed","success","responses","question_order","currentStim","old","correct"
"24251.914999999826","Welcome to the experiment. This is an online experiment so please don't close the tab/window until we say goodbye.  Press any key to begin.","32","instructions","html-keyboard-response","0","24300","0.0-0.0","4128585","co39274","norming","","","","","","",""
"34081.25000000018","<div style='word-wrap: break-word; width: 900px'><h3>Please consider this information carefully before deciding whether to participate in this research</h3><ul style='text-align: left; font-size: .8em;'><li><b>Purpose of the research</b>: To examine how people process images.</li><li><b>What you will do in this research</b>:  Stimuli (images) will be presented on the computer and you will be asked different questions about them.</li><li><b>Time required</b>: Participation will take between 45 and 60 minutes to complete.</li><li><b>Risks</b>:  There are no anticipated risks associated with participating in this study. The effects of participating should be comparable to those you would experience from viewing a computer monitor for 30 minutes and using a mouse or keyboard.</li><li><b>Benefits</b>:  This study provides no benefits to you individually except for the credit. The study provides important information about the nature of perception and learning.</li><li><b>Confidentiality</b>:  Your participation in this study will remain confidential. No personally identifiable information will be associated with your data. Your de-identified data may be shared with other researchers and used in future projects.</li><li><b>Participation and withdrawal</b>:  Your participation in this study is completely voluntary and you may refuse to participate or you may choose to withdraw at any time without penalty.</li><li><b>How to contact the researchers</b>: If you have questions or concerns about your participation or payment, or want to request a summary of research findings, please contact Sander Van de Cruys (KU Leuven), at sander.vandecruys@kuleuven.be.</li></ul><p>The nature and purpose of this research have been sufficiently explained and I agree to participate in this study.  I understand that I am free to withdraw at any time without incurring any penalty.</p><p>Please consent by clicking the button below to continue. Otherwise, please exit the study at this time.</p></div>","","instructions","html-button-response","1","58383","0.0-1.0","4128585","co39274","norming","0","","","","","",""
"","","","instructions","fullscreen","2","62471","0.0-2.0","4128585","co39274","norming","","true","","","","",""
"33404.4699999995","","","sona","survey-html-form","3","95880","0.0-3.0","4128585","co39274","norming","","","[{""name"":""sonaid"",""value"":""39274""},{""name"":""debrief"",""value"":""yes""},{""name"":""datajoin"",""value"":""yes""}]","","","",""
"75963.78000000004","<div style='word-wrap: break-word; width: 900px'><h3>Instructions</h3><p>This experiment will have 3 parts. In the first part you will see a series of distorted images like the one below on the left. As you can see in the righthand image, the distorted images are derived from actual photographs. In what follows, you will <strong>briefly</strong> be presented with <strong>only</strong> the distorted image.</p> <div style='float: left; margin-right: 20px;'><img src='../img/018tt.jpg' height='250' width='250'></img></div><div style='float: right; margin-left: 20px;'><img src='../img/018gs.jpg' height='250' width='250'></img></div><p>Subsequently you will be asked a few questions about the image: One question on how <strong>curious</strong> you are about the solution and one on how <strong>confident</strong> you are that you know the solution.</p>Next, we ask you to make a guess on what is in the image. Note that it is OK to name just the <strong>basic level category</strong>. For example when you see a parrot in the image, 'parrot' will obviously be a correct answer but also correct is 'bird'. However, 'animal' will <strong>not</strong> be counted as a correct response. For the example above, 'rose' would be correct or 'flower', but not 'plant'. When soccer players are depicted, 'soccer', 'football', 'soccer players' will be correct, but not 'humans', 'outdoors', or 'sports'. You do not need to describe the image in full, just name the main object in it <strong>in one or two words</strong>. All images depict objects from one of the following broad level categories: animals, inanimate objects, plants, sports, vehicles, and food. Recognizing means knowing <strong>more</strong> than these broad labels for a given image. But we always encourage you to <strong>make a guess</strong> if you can. Note that you are allowed to use <strong>Dutch and English</strong> in your answers, whatever comes easiest for you.</p><p>Press any key to continue.</p></div>","32","instructions","html-keyboard-response","4","171840","0.0-4.0","4128585","co39274","norming","","","","","","",""
"39949.614999999525","<div style='word-wrap: break-word; width: 900px'><h3>Instructions</h3> <p>Next, the solution image will be revealed to you and you'll be asked to indicate how strong your <strong>aha-experience</strong> was after seeing the solution. This describes the positive feeling of the 'click' you sometimes experience, when the pieces of the 'puzzle' fall together and you suddenly have 'insight' in the image.</p><img src='aha.jpg' height='188' width='250'></img><p>Note that there are no right or wrong answers. We are interested in what <strong>you</strong> see in the image and how <strong>you</strong> feel about it.</p><p>Press any key to start the experiment.</p></div>","32","instructions","html-keyboard-response","5","211791","0.0-5.0","4128585","co39274","norming","","","","","","",""
"null","<div style=""font-size:60px;""> </div>","null","fixation","html-keyboard-response","6","211999","0.0-6.0-0.0","4128585","co39274","norming","","","","","","",""
"null","../img/tt/1175tt.jpg","null","mooney1","image-keyboard-response","7","215006","0.0-6.0-1.0","4128585","co39274","norming","","","","","","",""
"19317.015000000538","","","post_mooney1_questions","survey-likert","8","234330","0.0-6.0-2.0","4128585","co39274","norming","","","{""curiosity"":6,""confidence"":0}","[0,1]","../img/tt/1175tt.jpg","",""
"6181.464999999647","","","recognition","survey-text","9","240513","0.0-6.0-3.0","4128585","co39274","norming","","","{""guess"":""""}","","../img/tt/1175tt.jpg","",""
"null","../img/gs/1175gs.jpg","null","reveal","image-keyboard-response","10","242518","0.0-6.0-4.0","4128585","co39274","norming","","","","","","",""
"null","../img/tt/1175tt.jpg","null","mooney2","image-keyboard-response","11","244524","0.0-6.0-5.0","4128585","co39274","norming","","","","","","",""
"10451.169999999373","","","post_reveal_questions","survey-likert","12","254977","0.0-6.0-6.0","4128585","co39274","norming","","","{""aha"":0}","[0]","../img/tt/1175tt.jpg","",""
"null","<div style=""font-size:60px;""> </div>","null","fixation","html-keyboard-response","13","255186","0.0-6.0-0.1","4128585","co39274","norming","","","","","","",""
"null","../img/tt/135tt.jpg","null","mooney1","image-keyboard-response","14","258189","0.0-6.0-1.1","4128585","co39274","norming","","","","","","",""
"16273.995000000432","","","post_mooney1_questions","survey-likert","15","274465","0.0-6.0-2.1","4128585","co39274","norming","","","{""curiosity"":3,""confidence"":6}","[0,1]","../img/tt/135tt.jpg","",""
"7590.219999999157","","","recognition","survey-text","16","282057","0.0-6.0-3.1","4128585","co39274","norming","","","{""guess"":""WC""}","","../img/tt/135tt.jpg","",""
"null","../img/gs/135gs.jpg","null","reveal","image-keyboard-response","17","284060","0.0-6.0-4.1","4128585","co39274","norming","","","","","","",""
"null","../img/tt/135tt.jpg","null","mooney2","image-keyboard-response","18","286067","0.0-6.0-5.1","4128585","co39274","norming","","","","","","",""
"42036.2749999995","","","post_reveal_questions","survey-likert","19","328107","0.0-6.0-6.1","4128585","co39274","norming","","","{""aha"":0}","[0]","../img/tt/135tt.jpg","",""
"null","<div style=""font-size:60px;""> </div>","null","fixation","html-keyboard-response","20","328317","0.0-6.0-0.2","4128585","co39274","norming","","","","","","",""
"null","../img/tt/279tt.jpg","null","mooney1","image-keyboard-response","21","331324","0.0-6.0-1.2","4128585","co39274","norming","","","","","","",""
"12084.840000000491","","","post_mooney1_questions","survey-likert","22","343411","0.0-6.0-2.2","4128585","co39274","norming","","","{""curiosity"":6,""confidence"":0}","[0,1]","../img/tt/279tt.jpg","",""
"4134.090000000491","","","recognition","survey-text","23","347547","0.0-6.0-3.2","4128585","co39274","norming","","","{""guess"":""""}","","../img/tt/279tt.jpg","",""
"null","../img/gs/279gs.jpg","null","reveal","image-keyboard-response","24","349553","0.0-6.0-4.2","4128585","co39274","norming","","","","","","",""
"null","../img/tt/279tt.jpg","null","mooney2","image-keyboard-response","25","351564","0.0-6.0-5.2","4128585","co39274","norming","","","","","","",""
"5668.029999999795","","","post_reveal_questions","survey-likert","26","357235","0.0-6.0-6.2","4128585","co39274","norming","","","{""aha"":6}","[0]","../img/tt/279tt.jpg","",""
"null","<div style=""font-size:60px;""> </div>","null","fixation","html-keyboard-response","27","357438","0.0-6.0-0.3","4128585","co39274","norming","","","","","","",""
"null","../img/tt/094tt.jpg","null","mooney1","image-keyboard-response","28","360447","0.0-6.0-1.3","4128585","co39274","norming","","","","","","",""
"11962.724999999395","","","post_mooney1_questions","survey-likert","29","372411","0.0-6.0-2.3","4128585","co39274","norming","","","{""curiosity"":6,""confidence"":2}","[0,1]","../img/tt/094tt.jpg","",""
"8534.459999999846","","","recognition","survey-text","30","380947","0.0-6.0-3.3","4128585","co39274","norming","","","{""guess"":""Koe""}","","../img/tt/094tt.jpg","",""
"null","../img/gs/094gs.jpg","null","reveal","image-keyboard-response","31","382955","0.0-6.0-4.3","4128585","co39274","norming","","","","","","",""
"null","../img/tt/094tt.jpg","null","mooney2","image-keyboard-response","32","384965","0.0-6.0-5.3","4128585","co39274","norming","","","","","","",""
"8843.274999999267","","","post_reveal_questions","survey-likert","33","393813","0.0-6.0-6.3","4128585","co39274","norming","","","{""aha"":0}","[0]","../img/tt/094tt.jpg","",""
"null","<div style=""font-size:60px;""> </div>","null","fixation","html-keyboard-response","34","394018","0.0-6.0-0.4","4128585","co39274","norming","","","","","","",""
"null","../img/tt/1159tt.jpg","null","mooney1","image-keyboard-response","35","397026","0.0-6.0-1.4","4128585","co39274","norming","","","","","","",""
"13343.975000000675","","","post_mooney1_questions","survey-likert","36","410373","0.0-6.0-2.4","4128585","co39274","norming","","","{""curiosity"":6,""confidence"":2}","[0,1]","../img/tt/1159tt.jpg","",""
"42325.98000000056","","","recognition","survey-text","37","452701","0.0-6.0-3.4","4128585","co39274","norming","","","{""guess"":""trap""}","","../img/tt/1159tt.jpg","",""
"null","../img/gs/1159gs.jpg","null","reveal","image-keyboard-response","38","454703","0.0-6.0-4.4","4128585","co39274","norming","","","","","","",""
"null","../img/tt/1159tt.jpg","null","mooney2","image-keyboard-response","39","456716","0.0-6.0-5.4","4128585","co39274","norming","","","","","","",""
"4016.585000000312","","","post_reveal_questions","survey-likert","40","460733","0.0-6.0-6.4","4128585","co39274","norming","","","{""aha"":6}","[0]","../img/tt/1159tt.jpg","",""
"null","<div style=""font-size:60px;""> </div>","null","fixation","html-keyboard-response","41","460939","0.0-6.0-0.5","4128585","co39274","norming","","","","","","",""
"null","../img/tt/013tt.jpg","null","mooney1","image-keyboard-response","42","463942","0.0-6.0-1.5","4128585","co39274","norming","","","","","","",""
"8556.78999999963","","","post_mooney1_questions","survey-likert","43","472501","0.0-6.0-2.5","4128585","co39274","norming","","","{""curiosity"":6,""confidence"":0}","[0,1]","../img/tt/013tt.jpg","",""
"11885.99500000052","","","recognition","survey-text","44","484389","0.0-6.0-3.5","4128585","co39274","norming","","","{""guess"":""""}","","../img/tt/013tt.jpg","",""
"null","../img/gs/013gs.jpg","null","reveal","image-keyboard-response","45","486390","0.0-6.0-4.5","4128585","co39274","norming","","","","","","",""
"null","../img/tt/013tt.jpg","null","mooney2","image-keyboard-response","46","488393","0.0-6.0-5.5","4128585","co39274","norming","","","","","","",""
"4362.965000000258","","","post_reveal_questions","survey-likert","47","492757","0.0-6.0-6.5","4128585","co39274","norming","","","{""aha"":5}","[0]","../img/tt/013tt.jpg","",""
"null","<div style=""font-size:60px;""> </div>","null","fixation","html-keyboard-response","48","492964","0.0-6.0-0.6","4128585","co39274","norming","","","","","","",""
"null","../img/tt/1190tt.jpg","null","mooney1","image-keyboard-response","49","495967","0.0-6.0-1.6","4128585","co39274","norming","","","","","","",""
"7580.114999999758","","","post_mooney1_questions","survey-likert","50","503549","0.0-6.0-2.6","4128585","co39274","norming","","","{""curiosity"":6,""confidence"":0}","[0,1]","../img/tt/1190tt.jpg","",""
"982.0950000002631","","","recognition","survey-text","51","504533","0.0-6.0-3.6","4128585","co39274","norming","","","{""guess"":""""}","","../img/tt/1190tt.jpg","",""
"null","../img/gs/1190gs.jpg","null","reveal","image-keyboard-response","52","506543","0.0-6.0-4.6","4128585","co39274","norming","","","","","","",""
"null","../img/tt/1190tt.jpg","null","mooney2","image-keyboard-response","53","508551","0.0-6.0-5.6","4128585","co39274","norming","","","","","","",""
"2732.2600000006496","","","post_reveal_questions","survey-likert","54","511285","0.0-6.0-6.6","4128585","co39274","norming","","","{""aha"":0}","[0]","../img/tt/1190tt.jpg","",""
"null","<div style=""font-size:60px;""> </div>","null","fixation","html-keyboard-response","55","511492","0.0-6.0-0.7","4128585","co39274","norming","","","","","","",""
"null","../img/tt/1004tt.jpg","null","mooney1","image-keyboard-response","56","514499","0.0-6.0-1.7","4128585","co39274","norming","","","","","","",""
"7173.635000000126","","","post_mooney1_questions","survey-likert","57","521674","0.0-6.0-2.7","4128585","co39274","norming","","","{""curiosity"":6,""confidence"":1}","[0,1]","../img/tt/1004tt.jpg","",""
"4894.2350000006845","","","recognition","survey-text","58","526570","0.0-6.0-3.7","4128585","co39274","norming","","","{""guess"":""rots""}","","../img/tt/1004tt.jpg","",""
"null","../img/gs/1004gs.jpg","null","reveal","image-keyboard-response","59","528578","0.0-6.0-4.7","4128585","co39274","norming","","","","","","",""
"null","../img/tt/1004tt.jpg","null","mooney2","image-keyboard-response","60","530579","0.0-6.0-5.7","4128585","co39274","norming","","","","","","",""
"8963.75999999966","","","post_reveal_questions","survey-likert","61","539546","0.0-6.0-6.7","4128585","co39274","norming","","","{""aha"":5}","[0]","../img/tt/1004tt.jpg","",""
"null","<div style=""font-size:60px;""> </div>","null","fixation","html-keyboard-response","62","539751","0.0-6.0-0.8","4128585","co39274","norming","","","","","","",""
"null","../img/tt/1084tt.jpg","null","mooney1","image-keyboard-response","63","542759","0.0-6.0-1.8","4128585","co39274","norming","","","","","","",""
"12536.509999999893","","","post_mooney1_questions","survey-likert","64","555298","0.0-6.0-2.8","4128585","co39274","norming","","","{""curiosity"":6,""confidence"":2}","[0,1]","../img/tt/1084tt.jpg","",""
"8005.680000000168","","","recognition","survey-text","65","563306","0.0-6.0-3.8","4128585","co39274","norming","","","{""guess"":""een vaas""}","","../img/tt/1084tt.jpg","",""
"null","../img/gs/1084gs.jpg","null","reveal","image-keyboard-response","66","565314","0.0-6.0-4.8","4128585","co39274","norming","","","","","","",""
"null","../img/tt/1084tt.jpg","null","mooney2","image-keyboard-response","67","567317","0.0-6.0-5.8","4128585","co39274","norming","","","","","","",""
"4666.959999999497","","","post_reveal_questions","survey-likert","68","571986","0.0-6.0-6.8","4128585","co39274","norming","","","{""aha"":5}","[0]","../img/tt/1084tt.jpg","",""
"null","<div style=""font-size:60px;""> </div>","null","fixation","html-keyboard-response","69","572191","0.0-6.0-0.9","4128585","co39274","norming","","","","","","",""
"null","../img/tt/380tt.jpg","null","mooney1","image-keyboard-response","70","575195","0.0-6.0-1.9","4128585","co39274","norming","","","","","","",""
"23453.43500000029","","","post_mooney1_questions","survey-likert","71","598651","0.0-6.0-2.9","4128585","co39274","norming","","","{""curiosity"":6,""confidence"":1}","[0,1]","../img/tt/380tt.jpg","",""
"32686.024999999907","","","recognition","survey-text","72","631338","0.0-6.0-3.9","4128585","co39274","norming","","","{""guess"":""een rat""}","","../img/tt/380tt.jpg","",""
"null","../img/gs/380gs.jpg","null","reveal","image-keyboard-response","73","633344","0.0-6.0-4.9","4128585","co39274","norming","","","","","","",""
"null","../img/tt/380tt.jpg","null","mooney2","image-keyboard-response","74","635346","0.0-6.0-5.9","4128585","co39274","norming","","","","","","",""
"7525.985000000219","","","post_reveal_questions","survey-likert","75","642875","0.0-6.0-6.9","4128585","co39274","norming","","","{""aha"":1}","[0]","../img/tt/380tt.jpg","",""
"null","<div style=""font-size:60px;""> </div>","null","fixation","html-keyboard-response","76","643079","0.0-6.0-0.10","4128585","co39274","norming","","","","","","",""
"null","../img/tt/1116tt.jpg","null","mooney1","image-keyboard-response","77","646090","0.0-6.0-1.10","4128585","co39274","norming","","","","","","",""
"12605.949999999255","","","post_mooney1_questions","survey-likert","78","658699","0.0-6.0-2.10","4128585","co39274","norming","","","{""curiosity"":6,""confidence"":2}","[0,1]","../img/tt/1116tt.jpg","",""
"13157.234999999637","","","recognition","survey-text","79","671859","0.0-6.0-3.10","4128585","co39274","norming","","","{""guess"":""boten""}","","../img/tt/1116tt.jpg","",""
"null","../img/gs/1116gs.jpg","null","reveal","image-keyboard-response","80","673869","0.0-6.0-4.10","4128585","co39274","norming","","","","","","",""
"null","../img/tt/1116tt.jpg","null","mooney2","image-keyboard-response","81","675873","0.0-6.0-5.10","4128585","co39274","norming","","","","","","",""
"2447.395000000135","","","post_reveal_questions","survey-likert","82","678323","0.0-6.0-6.10","4128585","co39274","norming","","","{""aha"":5}","[0]","../img/tt/1116tt.jpg","",""
"null","<div style=""font-size:60px;""> </div>","null","fixation","html-keyboard-response","83","678530","0.0-6.0-0.11","4128585","co39274","norming","","","","","","",""
"null","../img/tt/442tt.jpg","null","mooney1","image-keyboard-response","84","681536","0.0-6.0-1.11","4128585","co39274","norming","","","","","","",""
"21680.070000000414","","","post_mooney1_questions","survey-likert","85","703211","0.0-6.0-2.11","4128585","co39274","norming","","","{""curiosity"":6,""confidence"":2}","[0,1]","../img/tt/442tt.jpg","",""
"10981.590000000317","","","recognition","survey-text","86","714195","0.0-6.0-3.11","4128585","co39274","norming","","","{""guess"":""man,vuur""}","","../img/tt/442tt.jpg","",""
"null","../img/gs/442gs.jpg","null","reveal","image-keyboard-response","87","716200","0.0-6.0-4.11","4128585","co39274","norming","","","","","","",""
"null","../img/tt/442tt.jpg","null","mooney2","image-keyboard-response","88","718211","0.0-6.0-5.11","4128585","co39274","norming","","","","","","",""
"5237.4099999998","","","post_reveal_questions","survey-likert","89","723451","0.0-6.0-6.11","4128585","co39274","norming","","","{""aha"":3}","[0]","../img/tt/442tt.jpg","",""
"null","<div style=""font-size:60px;""> </div>","null","fixation","html-keyboard-response","90","723660","0.0-6.0-0.12","4128585","co39274","norming","","","","","","",""
"null","../img/tt/1224tt.jpg","null","mooney1","image-keyboard-response","91","726664","0.0-6.0-1.12","4128585","co39274","norming","","","","","","",""
"12433.10999999987","","","post_mooney1_questions","survey-likert","92","739099","0.0-6.0-2.12","4128585","co39274","norming","","","{""curiosity"":5,""confidence"":2}","[0,1]","../img/tt/1224tt.jpg","",""
"18238.115000000107","","","recognition","survey-text","93","757347","0.0-6.0-3.12","4128585","co39274","norming","","","{""guess"":""zittende vrouw""}","","../img/tt/1224tt.jpg","",""
"null","../img/gs/1224gs.jpg","null","reveal","image-keyboard-response","94","759350","0.0-6.0-4.12","4128585","co39274","norming","","","","","","",""
"null","../img/tt/1224tt.jpg","null","mooney2","image-keyboard-response","95","761353","0.0-6.0-5.12","4128585","co39274","norming","","","","","","",""
"3416.3950000002515","","","post_reveal_questions","survey-likert","96","764771","0.0-6.0-6.12","4128585","co39274","norming","","","{""aha"":3}","[0]","../img/tt/1224tt.jpg","",""
"null","<div style=""font-size:60px;""> </div>","null","fixation","html-keyboard-response","97","764973","0.0-6.0-0.13","4128585","co39274","norming","","","","","","",""
"null","../img/tt/001tt.jpg","null","mooney1","image-keyboard-response","98","767976","0.0-6.0-1.13","4128585","co39274","norming","","","","","","",""
"5689.23499999987","","","post_mooney1_questions","survey-likert","99","773668","0.0-6.0-2.13","4128585","co39274","norming","","","{""curiosity"":6,""confidence"":0}","[0,1]","../img/tt/001tt.jpg","",""
"926.0549999999348","","","recognition","survey-text","100","774595","0.0-6.0-3.13","4128585","co39274","norming","","","{""guess"":""""}","","../img/tt/001tt.jpg","",""
"null","../img/gs/001gs.jpg","null","reveal","image-keyboard-response","101","776598","0.0-6.0-4.13","4128585","co39274","norming","","","","","","",""
"null","../img/tt/001tt.jpg","null","mooney2","image-keyboard-response","102","778608","0.0-6.0-5.13","4128585","co39274","norming","","","","","","",""
"3633.399999999674","","","post_reveal_questions","survey-likert","103","782244","0.0-6.0-6.13","4128585","co39274","norming","","","{""aha"":1}","[0]","../img/tt/001tt.jpg","",""
"null","<div style=""font-size:60px;""> </div>","null","fixation","html-keyboard-response","104","782454","0.0-6.0-0.14","4128585","co39274","norming","","","","","","",""
"null","../img/tt/1173tt.jpg","null","mooney1","image-keyboard-response","105","785464","0.0-6.0-1.14","4128585","co39274","norming","","","","","","",""
"25240.999999999884","","","post_mooney1_questions","survey-likert","106","810707","0.0-6.0-2.14","4128585","co39274","norming","","","{""curiosity"":3,""confidence"":4}","[0,1]","../img/tt/1173tt.jpg","",""
"40517.81999999995","","","recognition","survey-text","107","851226","0.0-6.0-3.14","4128585","co39274","norming","","","{""guess"":""hockey speelers""}","","../img/tt/1173tt.jpg","",""
"null","../img/gs/1173gs.jpg","null","reveal","image-keyboard-response","108","853235","0.0-6.0-4.14","4128585","co39274","norming","","","","","","",""
"null","../img/tt/1173tt.jpg","null","mooney2","image-keyboard-response","109","855244","0.0-6.0-5.14","4128585","co39274","norming","","","","","","",""
"4316.719999999739","","","post_reveal_questions","survey-likert","110","859562","0.0-6.0-6.14","4128585","co39274","norming","","","{""aha"":3}","[0]","../img/tt/1173tt.jpg","",""
"null","<div style=""font-size:60px;""> </div>","null","fixation","html-keyboard-response","111","859768","0.0-6.0-0.15","4128585","co39274","norming","","","","","","",""
"null","../img/tt/1366tt.jpg","null","mooney1","image-keyboard-response","112","862770","0.0-6.0-1.15","4128585","co39274","norming","","","","","","",""
"17511.160000000033","","","post_mooney1_questions","survey-likert","113","880279","0.0-6.0-2.15","4128585","co39274","norming","","","{""curiosity"":6,""confidence"":1}","[0,1]","../img/tt/1366tt.jpg","",""
"9613.844999999856","","","recognition","survey-text","114","889895","0.0-6.0-3.15","4128585","co39274","norming","","","{""guess"":""een boot""}","","../img/tt/1366tt.jpg","",""
"null","../img/gs/1366gs.jpg","null","reveal","image-keyboard-response","115","891901","0.0-6.0-4.15","4128585","co39274","norming","","","","","","",""
"null","../img/tt/1366tt.jpg","null","mooney2","image-keyboard-response","116","893901","0.0-6.0-5.15","4128585","co39274","norming","","","","","","",""
"3512.7550000005867","","","post_reveal_questions","survey-likert","117","897415","0.0-6.0-6.15","4128585","co39274","norming","","","{""aha"":5}","[0]","../img/tt/1366tt.jpg","",""
"null","<div style=""font-size:60px;""> </div>","null","fixation","html-keyboard-response","118","897620","0.0-6.0-0.16","4128585","co39274","norming","","","","","","",""
"null","../img/tt/1234tt.jpg","null","mooney1","image-keyboard-response","119","900624","0.0-6.0-1.16","4128585","co39274","norming","","","","","","",""
"10542.19000000006","","","post_mooney1_questions","survey-likert","120","911167","0.0-6.0-2.16","4128585","co39274","norming","","","{""curiosity"":6,""confidence"":5}","[0,1]","../img/tt/1234tt.jpg","",""
"8358.124999999767","","","recognition","survey-text","121","919527","0.0-6.0-3.16","4128585","co39274","norming","","","{""guess"":""man, boot""}","","../img/tt/1234tt.jpg","",""
"null","../img/gs/1234gs.jpg","null","reveal","image-keyboard-response","122","921532","0.0-6.0-4.16","4128585","co39274","norming","","","","","","",""
"null","../img/tt/1234tt.jpg","null","mooney2","image-keyboard-response","123","923532","0.0-6.0-5.16","4128585","co39274","norming","","","","","","",""
"4010.185000000056","","","post_reveal_questions","survey-likert","124","927543","0.0-6.0-6.16","4128585","co39274","norming","","","{""aha"":6}","[0]","../img/tt/1234tt.jpg","",""
"null","<div style=""font-size:60px;""> </div>","null","fixation","html-keyboard-response","125","927751","0.0-6.0-0.17","4128585","co39274","norming","","","","","","",""
"null","../img/tt/056tt.jpg","null","mooney1","image-keyboard-response","126","930753","0.0-6.0-1.17","4128585","co39274","norming","","","","","","",""
"22308.904999999795","","","post_mooney1_questions","survey-likert","127","953067","0.0-6.0-2.17","4128585","co39274","norming","","","{""curiosity"":6,""confidence"":2}","[0,1]","../img/tt/056tt.jpg","",""
"16854.02500000049","","","recognition","survey-text","128","969923","0.0-6.0-3.17","4128585","co39274","norming","","","{""guess"":""katachtig dier""}","","../img/tt/056tt.jpg","",""
"null","../img/gs/056gs.jpg","null","reveal","image-keyboard-response","129","971926","0.0-6.0-4.17","4128585","co39274","norming","","","","","","",""
"null","../img/tt/056tt.jpg","null","mooney2","image-keyboard-response","130","973934","0.0-6.0-5.17","4128585","co39274","norming","","","","","","",""
"13282.430000000284","","","post_reveal_questions","survey-likert","131","987219","0.0-6.0-6.17","4128585","co39274","norming","","","{""aha"":6}","[0]","../img/tt/056tt.jpg","",""
"null","<div style=""font-size:60px;""> </div>","null","fixation","html-keyboard-response","132","987429","0.0-6.0-0.18","4128585","co39274","norming","","","","","","",""
"null","../img/tt/222tt.jpg","null","mooney1","image-keyboard-response","133","990432","0.0-6.0-1.18","4128585","co39274","norming","","","","","","",""
"8106.144999999786","","","post_mooney1_questions","survey-likert","134","998539","0.0-6.0-2.18","4128585","co39274","norming","","","{""curiosity"":6,""confidence"":0}","[0,1]","../img/tt/222tt.jpg","",""
"854.2900000001537","","","recognition","survey-text","135","999395","0.0-6.0-3.18","4128585","co39274","norming","","","{""guess"":""""}","","../img/tt/222tt.jpg","",""
"null","../img/gs/222gs.jpg","null","reveal","image-keyboard-response","136","1001397","0.0-6.0-4.18","4128585","co39274","norming","","","","","","",""
"null","../img/tt/222tt.jpg","null","mooney2","image-keyboard-response","137","1003402","0.0-6.0-5.18","4128585","co39274","norming","","","","","","",""
"3854.769999999902","","","post_reveal_questions","survey-likert","138","1007258","0.0-6.0-6.18","4128585","co39274","norming","","","{""aha"":0}","[0]","../img/tt/222tt.jpg","",""
"null","<div style=""font-size:60px;""> </div>","null","fixation","html-keyboard-response","139","1007465","0.0-6.0-0.19","4128585","co39274","norming","","","","","","",""
"null","../img/tt/108tt.jpg","null","mooney1","image-keyboard-response","140","1010469","0.0-6.0-1.19","4128585","co39274","norming","","","","","","",""
"4948.164999999688","","","post_mooney1_questions","survey-likert","141","1015418","0.0-6.0-2.19","4128585","co39274","norming","","","{""curiosity"":6,""confidence"":1}","[0,1]","../img/tt/108tt.jpg","",""
"6022.289999999921","","","recognition","survey-text","142","1021442","0.0-6.0-3.19","4128585","co39274","norming","","","{""guess"":""bergen""}","","../img/tt/108tt.jpg","",""
"null","../img/gs/108gs.jpg","null","reveal","image-keyboard-response","143","1023444","0.0-6.0-4.19","4128585","co39274","norming","","","","","","",""
"null","../img/tt/108tt.jpg","null","mooney2","image-keyboard-response","144","1025453","0.0-6.0-5.19","4128585","co39274","norming","","","","","","",""
"2155.2399999999907","","","post_reveal_questions","survey-likert","145","1027610","0.0-6.0-6.19","4128585","co39274","norming","","","{""aha"":5}","[0]","../img/tt/108tt.jpg","",""
"null","<div style=""font-size:60px;""> </div>","null","fixation","html-keyboard-response","146","1027819","0.0-6.0-0.20","4128585","co39274","norming","","","","","","",""
"null","../img/tt/008tt.jpg","null","mooney1","image-keyboard-response","147","1030824","0.0-6.0-1.20","4128585","co39274","norming","","","","","","",""
"6031.420000000275","","","post_mooney1_questions","survey-likert","148","1036859","0.0-6.0-2.20","4128585","co39274","norming","","","{""curiosity"":6,""confidence"":5}","[0,1]","../img/tt/008tt.jpg","",""
"6501.935000000289","","","recognition","survey-text","149","1043362","0.0-6.0-3.20","4128585","co39274","norming","","","{""guess"":""geweer""}","","../img/tt/008tt.jpg","",""
"null","../img/gs/008gs.jpg","null","reveal","image-keyboard-response","150","1045367","0.0-6.0-4.20","4128585","co39274","norming","","","","","","",""
"null","../img/tt/008tt.jpg","null","mooney2","image-keyboard-response","151","1047369","0.0-6.0-5.20","4128585","co39274","norming","","","","","","",""
"8464.18499999994","","","post_reveal_questions","survey-likert","152","1055834","0.0-6.0-6.20","4128585","co39274","norming","","","{""aha"":3}","[0]","../img/tt/008tt.jpg","",""
"null","<div style=""font-size:60px;""> </div>","null","fixation","html-keyboard-response","153","1056041","0.0-6.0-0.21","4128585","co39274","norming","","","","","","",""
"null","../img/tt/481tt.jpg","null","mooney1","image-keyboard-response","154","1059049","0.0-6.0-1.21","4128585","co39274","norming","","","","","","",""
"11022.07499999972","","","post_mooney1_questions","survey-likert","155","1070067","0.0-6.0-2.21","4128585","co39274","norming","","","{""curiosity"":6,""confidence"":1}","[0,1]","../img/tt/481tt.jpg","",""
"5422.310000000056","","","recognition","survey-text","156","1075491","0.0-6.0-3.21","4128585","co39274","norming","","","{""guess"":""gezicht""}","","../img/tt/481tt.jpg","",""
"null","../img/gs/481gs.jpg","null","reveal","image-keyboard-response","157","1077493","0.0-6.0-4.21","4128585","co39274","norming","","","","","","",""
"null","../img/tt/481tt.jpg","null","mooney2","image-keyboard-response","158","1079495","0.0-6.0-5.21","4128585","co39274","norming","","","","","","",""
"2392.9599999999627","","","post_reveal_questions","survey-likert","159","1081891","0.0-6.0-6.21","4128585","co39274","norming","","","{""aha"":6}","[0]","../img/tt/481tt.jpg","",""
"null","<div style=""font-size:60px;""> </div>","null","fixation","html-keyboard-response","160","1082098","0.0-6.0-0.22","4128585","co39274","norming","","","","","","",""
"null","../img/tt/1080tt.jpg","null","mooney1","image-keyboard-response","161","1085103","0.0-6.0-1.22","4128585","co39274","norming","","","","","","",""
"8145.454999999842","","","post_mooney1_questions","survey-likert","162","1093251","0.0-6.0-2.22","4128585","co39274","norming","","","{""curiosity"":6,""confidence"":1}","[0,1]","../img/tt/1080tt.jpg","",""
"5574.155000000261","","","recognition","survey-text","163","1098827","0.0-6.0-3.22","4128585","co39274","norming","","","{""guess"":""heuvel""}","","../img/tt/1080tt.jpg","",""
"null","../img/gs/1080gs.jpg","null","reveal","image-keyboard-response","164","1100834","0.0-6.0-4.22","4128585","co39274","norming","","","","","","",""
"null","../img/tt/1080tt.jpg","null","mooney2","image-keyboard-response","165","1102843","0.0-6.0-5.22","4128585","co39274","norming","","","","","","",""
"4125.145000000717","","","post_reveal_questions","survey-likert","166","1106971","0.0-6.0-6.22","4128585","co39274","norming","","","{""aha"":6}","[0]","../img/tt/1080tt.jpg","",""
"null","<div style=""font-size:60px;""> </div>","null","fixation","html-keyboard-response","167","1107173","0.0-6.0-0.23","4128585","co39274","norming","","","","","","",""
"null","../img/tt/1279tt.jpg","null","mooney1","image-keyboard-response","168","1110176","0.0-6.0-1.23","4128585","co39274","norming","","","","","","",""
"6799.995000000345","","","post_mooney1_questions","survey-likert","169","1116979","0.0-6.0-2.23","4128585","co39274","norming","","","{""curiosity"":6,""confidence"":4}","[0,1]","../img/tt/1279tt.jpg","",""
"5086.024999999441","","","recognition","survey-text","170","1122067","0.0-6.0-3.23","4128585","co39274","norming","","","{""guess"":""geiten""}","","../img/tt/1279tt.jpg","",""
"null","../img/gs/1279gs.jpg","null","reveal","image-keyboard-response","171","1124071","0.0-6.0-4.23","4128585","co39274","norming","","","","","","",""
"null","../img/tt/1279tt.jpg","null","mooney2","image-keyboard-response","172","1126075","0.0-6.0-5.23","4128585","co39274","norming","","","","","","",""
"3981.845000000205","","","post_reveal_questions","survey-likert","173","1130062","0.0-6.0-6.23","4128585","co39274","norming","","","{""aha"":6}","[0]","../img/tt/1279tt.jpg","",""
"null","<div style=""font-size:60px;""> </div>","null","fixation","html-keyboard-response","174","1130266","0.0-6.0-0.24","4128585","co39274","norming","","","","","","",""
"null","../img/tt/1107tt.jpg","null","mooney1","image-keyboard-response","175","1133276","0.0-6.0-1.24","4128585","co39274","norming","","","","","","",""
"17071.714999999152","","","post_mooney1_questions","survey-likert","176","1150350","0.0-6.0-2.24","4128585","co39274","norming","","","{""curiosity"":6,""confidence"":3}","[0,1]","../img/tt/1107tt.jpg","",""
"7102.265000000363","","","recognition","survey-text","177","1157454","0.0-6.0-3.24","4128585","co39274","norming","","","{""guess"":""hoofd dier""}","","../img/tt/1107tt.jpg","",""
"null","../img/gs/1107gs.jpg","null","reveal","image-keyboard-response","178","1159459","0.0-6.0-4.24","4128585","co39274","norming","","","","","","",""
"null","../img/tt/1107tt.jpg","null","mooney2","image-keyboard-response","179","1161471","0.0-6.0-5.24","4128585","co39274","norming","","","","","","",""
"2493.0649999994785","","","post_reveal_questions","survey-likert","180","1163966","0.0-6.0-6.24","4128585","co39274","norming","","","{""aha"":5}","[0]","../img/tt/1107tt.jpg","",""
"null","<div style=""font-size:60px;""> </div>","null","fixation","html-keyboard-response","181","1164168","0.0-6.0-0.25","4128585","co39274","norming","","","","","","",""
"null","../img/tt/040tt.jpg","null","mooney1","image-keyboard-response","182","1167171","0.0-6.0-1.25","4128585","co39274","norming","","","","","","",""
"6568.269999999786","","","post_mooney1_questions","survey-likert","183","1173743","0.0-6.0-2.25","4128585","co39274","norming","","","{""curiosity"":6,""confidence"":1}","[0,1]","../img/tt/040tt.jpg","",""
"6958.094999999972","","","recognition","survey-text","184","1180702","0.0-6.0-3.25","4128585","co39274","norming","","","{""guess"":""konijn""}","","../img/tt/040tt.jpg","",""
"null","../img/gs/040gs.jpg","null","reveal","image-keyboard-response","185","1182706","0.0-6.0-4.25","4128585","co39274","norming","","","","","","",""
"null","../img/tt/040tt.jpg","null","mooney2","image-keyboard-response","186","1184714","0.0-6.0-5.25","4128585","co39274","norming","","","","","","",""
"3705.570000000065","","","post_reveal_questions","survey-likert","187","1188422","0.0-6.0-6.25","4128585","co39274","norming","","","{""aha"":6}","[0]","../img/tt/040tt.jpg","",""
"null","<div style=""font-size:60px;""> </div>","null","fixation","html-keyboard-response","188","1188624","0.0-6.0-0.26","4128585","co39274","norming","","","","","","",""
"null","../img/tt/085tt.jpg","null","mooney1","image-keyboard-response","189","1191636","0.0-6.0-1.26","4128585","co39274","norming","","","","","","",""
"15853.159999999683","","","post_mooney1_questions","survey-likert","190","1207492","0.0-6.0-2.26","4128585","co39274","norming","","","{""curiosity"":6,""confidence"":2}","[0,1]","../img/tt/085tt.jpg","",""
"4038.140000000596","","","recognition","survey-text","191","1211532","0.0-6.0-3.26","4128585","co39274","norming","","","{""guess"":""geit""}","","../img/tt/085tt.jpg","",""
"null","../img/gs/085gs.jpg","null","reveal","image-keyboard-response","192","1213538","0.0-6.0-4.26","4128585","co39274","norming","","","","","","",""
"null","../img/tt/085tt.jpg","null","mooney2","image-keyboard-response","193","1215541","0.0-6.0-5.26","4128585","co39274","norming","","","","","","",""
"3237.215000000084","","","post_reveal_questions","survey-likert","194","1218780","0.0-6.0-6.26","4128585","co39274","norming","","","{""aha"":6}","[0]","../img/tt/085tt.jpg","",""
"null","<div style=""font-size:60px;""> </div>","null","fixation","html-keyboard-response","195","1218984","0.0-6.0-0.27","4128585","co39274","norming","","","","","","",""
"null","../img/tt/534tt.jpg","null","mooney1","image-keyboard-response","196","1221993","0.0-6.0-1.27","4128585","co39274","norming","","","","","","",""
"4185.024999999674","","","post_mooney1_questions","survey-likert","197","1226181","0.0-6.0-2.27","4128585","co39274","norming","","","{""curiosity"":6,""confidence"":3}","[0,1]","../img/tt/534tt.jpg","",""
"9030.080000000307","","","recognition","survey-text","198","1235212","0.0-6.0-3.27","4128585","co39274","norming","","","{""guess"":""cactussen""}","","../img/tt/534tt.jpg","",""
"null","../img/gs/534gs.jpg","null","reveal","image-keyboard-response","199","1237215","0.0-6.0-4.27","4128585","co39274","norming","","","","","","",""
"null","../img/tt/534tt.jpg","null","mooney2","image-keyboard-response","200","1239221","0.0-6.0-5.27","4128585","co39274","norming","","","","","","",""
"4868.399999999208","","","post_reveal_questions","survey-likert","201","1244092","0.0-6.0-6.27","4128585","co39274","norming","","","{""aha"":3}","[0]","../img/tt/534tt.jpg","",""
"null","<div style=""font-size:60px;""> </div>","null","fixation","html-keyboard-response","202","1244302","0.0-6.0-0.28","4128585","co39274","norming","","","","","","",""
"null","../img/tt/1260tt.jpg","null","mooney1","image-keyboard-response","203","1247308","0.0-6.0-1.28","4128585","co39274","norming","","","","","","",""
"4309.619999999879","","","post_mooney1_questions","survey-likert","204","1251620","0.0-6.0-2.28","4128585","co39274","norming","","","{""curiosity"":6,""confidence"":4}","[0,1]","../img/tt/1260tt.jpg","",""
"4654.039999999572","","","recognition","survey-text","205","1256273","0.0-6.0-3.28","4128585","co39274","norming","","","{""guess"":""tenten""}","","../img/tt/1260tt.jpg","",""
"null","../img/gs/1260gs.jpg","null","reveal","image-keyboard-response","206","1258278","0.0-6.0-4.28","4128585","co39274","norming","","","","","","",""
"null","../img/tt/1260tt.jpg","null","mooney2","image-keyboard-response","207","1260286","0.0-6.0-5.28","4128585","co39274","norming","","","","","","",""
"2848.58499999973","","","post_reveal_questions","survey-likert","208","1263137","0.0-6.0-6.28","4128585","co39274","norming","","","{""aha"":6}","[0]","../img/tt/1260tt.jpg","",""
"null","<div style=""font-size:60px;""> </div>","null","fixation","html-keyboard-response","209","1263342","0.0-6.0-0.29","4128585","co39274","norming","","","","","","",""
"null","../img/tt/1161tt.jpg","null","mooney1","image-keyboard-response","210","1266352","0.0-6.0-1.29","4128585","co39274","norming","","","","","","",""
"5334.754999999888","","","post_mooney1_questions","survey-likert","211","1271690","0.0-6.0-2.29","4128585","co39274","norming","","","{""curiosity"":6,""confidence"":4}","[0,1]","../img/tt/1161tt.jpg","",""
"9198.104999999516","","","recognition","survey-text","212","1280889","0.0-6.0-3.29","4128585","co39274","norming","","","{""guess"":""bergbeklimmer""}","","../img/tt/1161tt.jpg","",""
"null","../img/gs/1161gs.jpg","null","reveal","image-keyboard-response","213","1282892","0.0-6.0-4.29","4128585","co39274","norming","","","","","","",""
"null","../img/tt/1161tt.jpg","null","mooney2","image-keyboard-response","214","1284894","0.0-6.0-5.29","4128585","co39274","norming","","","","","","",""
"2457.0499999998137","","","post_reveal_questions","survey-likert","215","1287353","0.0-6.0-6.29","4128585","co39274","norming","","","{""aha"":3}","[0]","../img/tt/1161tt.jpg","",""
"null","<div style=""font-size:60px;""> </div>","null","fixation","html-keyboard-response","216","1287560","0.0-6.0-0.30","4128585","co39274","norming","","","","","","",""
"null","../img/tt/1063tt.jpg","null","mooney1","image-keyboard-response","217","1290564","0.0-6.0-1.30","4128585","co39274","norming","","","","","","",""
"15676.639999999665","","","post_mooney1_questions","survey-likert","218","1306242","0.0-6.0-2.30","4128585","co39274","norming","","","{""curiosity"":6,""confidence"":2}","[0,1]","../img/tt/1063tt.jpg","",""
"21422.010000000242","","","recognition","survey-text","219","1327667","0.0-6.0-3.30","4128585","co39274","norming","","","{""guess"":""paard, wei""}","","../img/tt/1063tt.jpg","",""
"null","../img/gs/1063gs.jpg","null","reveal","image-keyboard-response","220","1329674","0.0-6.0-4.30","4128585","co39274","norming","","","","","","",""
"null","../img/tt/1063tt.jpg","null","mooney2","image-keyboard-response","221","1331675","0.0-6.0-5.30","4128585","co39274","norming","","","","","","",""
"4484.954999999842","","","post_reveal_questions","survey-likert","222","1336163","0.0-6.0-6.30","4128585","co39274","norming","","","{""aha"":5}","[0]","../img/tt/1063tt.jpg","",""
"null","<div style=""font-size:60px;""> </div>","null","fixation","html-keyboard-response","223","1336366","0.0-6.0-0.31","4128585","co39274","norming","","","","","","",""
"null","../img/tt/307tt.jpg","null","mooney1","image-keyboard-response","224","1339370","0.0-6.0-1.31","4128585","co39274","norming","","","","","","",""
"7206.699999999721","","","post_mooney1_questions","survey-likert","225","1346579","0.0-6.0-2.31","4128585","co39274","norming","","","{""curiosity"":6,""confidence"":3}","[0,1]","../img/tt/307tt.jpg","",""
"15861.725000000559","","","recognition","survey-text","226","1362443","0.0-6.0-3.31","4128585","co39274","norming","","","{""guess"":""muziek instrument""}","","../img/tt/307tt.jpg","",""
"null","../img/gs/307gs.jpg","null","reveal","image-keyboard-response","227","1364452","0.0-6.0-4.31","4128585","co39274","norming","","","","","","",""
"null","../img/tt/307tt.jpg","null","mooney2","image-keyboard-response","228","1366462","0.0-6.0-5.31","4128585","co39274","norming","","","","","","",""
"2220.0800000000745","","","post_reveal_questions","survey-likert","229","1368683","0.0-6.0-6.31","4128585","co39274","norming","","","{""aha"":6}","[0]","../img/tt/307tt.jpg","",""
"null","<div style=""font-size:60px;""> </div>","null","fixation","html-keyboard-response","230","1368888","0.0-6.0-0.32","4128585","co39274","norming","","","","","","",""
"null","../img/tt/079tt.jpg","null","mooney1","image-keyboard-response","231","1371891","0.0-6.0-1.32","4128585","co39274","norming","","","","","","",""
"4541.6950000009965","","","post_mooney1_questions","survey-likert","232","1376434","0.0-6.0-2.32","4128585","co39274","norming","","","{""curiosity"":6,""confidence"":6}","[0,1]","../img/tt/079tt.jpg","",""
"3694.0450000001583","","","recognition","survey-text","233","1380130","0.0-6.0-3.32","4128585","co39274","norming","","","{""guess"":""beer""}","","../img/tt/079tt.jpg","",""
"null","../img/gs/079gs.jpg","null","reveal","image-keyboard-response","234","1382136","0.0-6.0-4.32","4128585","co39274","norming","","","","","","",""
"null","../img/tt/079tt.jpg","null","mooney2","image-keyboard-response","235","1384147","0.0-6.0-5.32","4128585","co39274","norming","","","","","","",""
"4908.489999999758","","","post_reveal_questions","survey-likert","236","1389058","0.0-6.0-6.32","4128585","co39274","norming","","","{""aha"":0}","[0]","../img/tt/079tt.jpg","",""
"null","<div style=""font-size:60px;""> </div>","null","fixation","html-keyboard-response","237","1389259","0.0-6.0-0.33","4128585","co39274","norming","","","","","","",""
"null","../img/tt/468tt.jpg","null","mooney1","image-keyboard-response","238","1392266","0.0-6.0-1.33","4128585","co39274","norming","","","","","","",""
"22901.08500000043","","","post_mooney1_questions","survey-likert","239","1415170","0.0-6.0-2.33","4128585","co39274","norming","","","{""curiosity"":6,""confidence"":3}","[0,1]","../img/tt/468tt.jpg","",""
"13693.98499999987","","","recognition","survey-text","240","1428866","0.0-6.0-3.33","4128585","co39274","norming","","","{""guess"":""boogschutter""}","","../img/tt/468tt.jpg","",""
"null","../img/gs/468gs.jpg","null","reveal","image-keyboard-response","241","1430873","0.0-6.0-4.33","4128585","co39274","norming","","","","","","",""
"null","../img/tt/468tt.jpg","null","mooney2","image-keyboard-response","242","1432883","0.0-6.0-5.33","4128585","co39274","norming","","","","","","",""
"3059.9799999999814","","","post_reveal_questions","survey-likert","243","1435944","0.0-6.0-6.33","4128585","co39274","norming","","","{""aha"":6}","[0]","../img/tt/468tt.jpg","",""
"null","<div style=""font-size:60px;""> </div>","null","fixation","html-keyboard-response","244","1436145","0.0-6.0-0.34","4128585","co39274","norming","","","","","","",""
"null","../img/tt/064tt.jpg","null","mooney1","image-keyboard-response","245","1439148","0.0-6.0-1.34","4128585","co39274","norming","","","","","","",""
"4411.465000000084","","","post_mooney1_questions","survey-likert","246","1443560","0.0-6.0-2.34","4128585","co39274","norming","","","{""curiosity"":6,""confidence"":5}","[0,1]","../img/tt/064tt.jpg","",""
"6958.100000000559","","","recognition","survey-text","247","1450520","0.0-6.0-3.34","4128585","co39274","norming","","","{""guess"":""schildpad""}","","../img/tt/064tt.jpg","",""
"null","../img/gs/064gs.jpg","null","reveal","image-keyboard-response","248","1452527","0.0-6.0-4.34","4128585","co39274","norming","","","","","","",""
"null","../img/tt/064tt.jpg","null","mooney2","image-keyboard-response","249","1454530","0.0-6.0-5.34","4128585","co39274","norming","","","","","","",""
"4500.904999999795","","","post_reveal_questions","survey-likert","250","1459032","0.0-6.0-6.34","4128585","co39274","norming","","","{""aha"":1}","[0]","../img/tt/064tt.jpg","",""
"null","<div style=""font-size:60px;""> </div>","null","fixation","html-keyboard-response","251","1459236","0.0-6.0-0.35","4128585","co39274","norming","","","","","","",""
"null","../img/tt/020tt.jpg","null","mooney1","image-keyboard-response","252","1462240","0.0-6.0-1.35","4128585","co39274","norming","","","","","","",""
"8317.245000000345","","","post_mooney1_questions","survey-likert","253","1470560","0.0-6.0-2.35","4128585","co39274","norming","","","{""curiosity"":6,""confidence"":2}","[0,1]","../img/tt/020tt.jpg","",""
"3654.1699999996927","","","recognition","survey-text","254","1474216","0.0-6.0-3.35","4128585","co39274","norming","","","{""guess"":""man""}","","../img/tt/020tt.jpg","",""
"null","../img/gs/020gs.jpg","null","reveal","image-keyboard-response","255","1476222","0.0-6.0-4.35","4128585","co39274","norming","","","","","","",""
"null","../img/tt/020tt.jpg","null","mooney2","image-keyboard-response","256","1478224","0.0-6.0-5.35","4128585","co39274","norming","","","","","","",""
"6469.72499999986","","","post_reveal_questions","survey-likert","257","1484696","0.0-6.0-6.35","4128585","co39274","norming","","","{""aha"":3}","[0]","../img/tt/020tt.jpg","",""
"null","<div style=""font-size:60px;""> </div>","null","fixation","html-keyboard-response","258","1484901","0.0-6.0-0.36","4128585","co39274","norming","","","","","","",""
"null","../img/tt/1189tt.jpg","null","mooney1","image-keyboard-response","259","1487904","0.0-6.0-1.36","4128585","co39274","norming","","","","","","",""
"7549.500000000233","","","post_mooney1_questions","survey-likert","260","1495459","0.0-6.0-2.36","4128585","co39274","norming","","","{""curiosity"":6,""confidence"":4}","[0,1]","../img/tt/1189tt.jpg","",""
"6125.97499999986","","","recognition","survey-text","261","1501587","0.0-6.0-3.36","4128585","co39274","norming","","","{""guess"":""onder zee""}","","../img/tt/1189tt.jpg","",""
"null","../img/gs/1189gs.jpg","null","reveal","image-keyboard-response","262","1503592","0.0-6.0-4.36","4128585","co39274","norming","","","","","","",""
"null","../img/tt/1189tt.jpg","null","mooney2","image-keyboard-response","263","1505601","0.0-6.0-5.36","4128585","co39274","norming","","","","","","",""
"3823.825000000419","","","post_reveal_questions","survey-likert","264","1509427","0.0-6.0-6.36","4128585","co39274","norming","","","{""aha"":6}","[0]","../img/tt/1189tt.jpg","",""
"null","<div style=""font-size:60px;""> </div>","null","fixation","html-keyboard-response","265","1509631","0.0-6.0-0.37","4128585","co39274","norming","","","","","","",""
"null","../img/tt/358tt.jpg","null","mooney1","image-keyboard-response","266","1512641","0.0-6.0-1.37","4128585","co39274","norming","","","","","","",""
"4903.330000000307","","","post_mooney1_questions","survey-likert","267","1517547","0.0-6.0-2.37","4128585","co39274","norming","","","{""curiosity"":6,""confidence"":1}","[0,1]","../img/tt/358tt.jpg","",""
"13197.98499999987","","","recognition","survey-text","268","1530747","0.0-6.0-3.37","4128585","co39274","norming","","","{""guess"":""omhelzing""}","","../img/tt/358tt.jpg","",""
"null","../img/gs/358gs.jpg","null","reveal","image-keyboard-response","269","1532753","0.0-6.0-4.37","4128585","co39274","norming","","","","","","",""
"null","../img/tt/358tt.jpg","null","mooney2","image-keyboard-response","270","1534755","0.0-6.0-5.37","4128585","co39274","norming","","","","","","",""
"2309.674999999581","","","post_reveal_questions","survey-likert","271","1537067","0.0-6.0-6.37","4128585","co39274","norming","","","{""aha"":4}","[0]","../img/tt/358tt.jpg","",""
"null","<div style=""font-size:60px;""> </div>","null","fixation","html-keyboard-response","272","1537268","0.0-6.0-0.38","4128585","co39274","norming","","","","","","",""
"null","../img/tt/1033tt.jpg","null","mooney1","image-keyboard-response","273","1540277","0.0-6.0-1.38","4128585","co39274","norming","","","","","","",""
"6698.925000000512","","","post_mooney1_questions","survey-likert","274","1546979","0.0-6.0-2.38","4128585","co39274","norming","","","{""curiosity"":6,""confidence"":4}","[0,1]","../img/tt/1033tt.jpg","",""
"3270.1200000001118","","","recognition","survey-text","275","1550251","0.0-6.0-3.38","4128585","co39274","norming","","","{""guess"":""boot""}","","../img/tt/1033tt.jpg","",""
"null","../img/gs/1033gs.jpg","null","reveal","image-keyboard-response","276","1552261","0.0-6.0-4.38","4128585","co39274","norming","","","","","","",""
"null","../img/tt/1033tt.jpg","null","mooney2","image-keyboard-response","277","1554263","0.0-6.0-5.38","4128585","co39274","norming","","","","","","",""
"2936.994999999879","","","post_reveal_questions","survey-likert","278","1557208","0.0-6.0-6.38","4128585","co39274","norming","","","{""aha"":5}","[0]","../img/tt/1033tt.jpg","",""
"null","<div style=""font-size:60px;""> </div>","null","fixation","html-keyboard-response","279","1557416","0.0-6.0-0.39","4128585","co39274","norming","","","","","","",""
"null","../img/tt/1235tt.jpg","null","mooney1","image-keyboard-response","280","1560420","0.0-6.0-1.39","4128585","co39274","norming","","","","","","",""
"9633.630000000354","","","post_mooney1_questions","survey-likert","281","1570057","0.0-6.0-2.39","4128585","co39274","norming","","","{""curiosity"":6,""confidence"":5}","[0,1]","../img/tt/1235tt.jpg","",""
"13374.069999999832","","","recognition","survey-text","282","1583432","0.0-6.0-3.39","4128585","co39274","norming","","","{""guess"":""achterkant dier""}","","../img/tt/1235tt.jpg","",""
"null","../img/gs/1235gs.jpg","null","reveal","image-keyboard-response","283","1585442","0.0-6.0-4.39","4128585","co39274","norming","","","","","","",""
"null","../img/tt/1235tt.jpg","null","mooney2","image-keyboard-response","284","1587444","0.0-6.0-5.39","4128585","co39274","norming","","","","","","",""
"2625.8050000006333","","","post_reveal_questions","survey-likert","285","1590073","0.0-6.0-6.39","4128585","co39274","norming","","","{""aha"":5}","[0]","../img/tt/1235tt.jpg","",""
"null","<div style=""font-size:60px;""> </div>","null","fixation","html-keyboard-response","286","1590283","0.0-6.0-0.40","4128585","co39274","norming","","","","","","",""
"null","../img/tt/590tt.jpg","null","mooney1","image-keyboard-response","287","1593295","0.0-6.0-1.40","4128585","co39274","norming","","","","","","",""
"7127.9350000005215","","","post_mooney1_questions","survey-likert","288","1600425","0.0-6.0-2.40","4128585","co39274","norming","","","{""curiosity"":6,""confidence"":3}","[0,1]","../img/tt/590tt.jpg","",""
"6550.145000000019","","","recognition","survey-text","289","1606976","0.0-6.0-3.40","4128585","co39274","norming","","","{""guess"":""tafel""}","","../img/tt/590tt.jpg","",""
"null","../img/gs/590gs.jpg","null","reveal","image-keyboard-response","290","1608978","0.0-6.0-4.40","4128585","co39274","norming","","","","","","",""
"null","../img/tt/590tt.jpg","null","mooney2","image-keyboard-response","291","1610980","0.0-6.0-5.40","4128585","co39274","norming","","","","","","",""
"2345.8650000002235","","","post_reveal_questions","survey-likert","292","1613329","0.0-6.0-6.40","4128585","co39274","norming","","","{""aha"":4}","[0]","../img/tt/590tt.jpg","",""
"null","<div style=""font-size:60px;""> </div>","null","fixation","html-keyboard-response","293","1613540","0.0-6.0-0.41","4128585","co39274","norming","","","","","","",""
"null","../img/tt/552tt.jpg","null","mooney1","image-keyboard-response","294","1616546","0.0-6.0-1.41","4128585","co39274","norming","","","","","","",""
"4174.050000000512","","","post_mooney1_questions","survey-likert","295","1620721","0.0-6.0-2.41","4128585","co39274","norming","","","{""curiosity"":6,""confidence"":3}","[0,1]","../img/tt/552tt.jpg","",""
"7262.310000000056","","","recognition","survey-text","296","1627985","0.0-6.0-3.41","4128585","co39274","norming","","","{""guess"":""stinkdier""}","","../img/tt/552tt.jpg","",""
"null","../img/gs/552gs.jpg","null","reveal","image-keyboard-response","297","1629987","0.0-6.0-4.41","4128585","co39274","norming","","","","","","",""
"null","../img/tt/552tt.jpg","null","mooney2","image-keyboard-response","298","1631994","0.0-6.0-5.41","4128585","co39274","norming","","","","","","",""
"6964.225000000559","","","post_reveal_questions","survey-likert","299","1638961","0.0-6.0-6.41","4128585","co39274","norming","","","{""aha"":6}","[0]","../img/tt/552tt.jpg","",""
"null","<div style=""font-size:60px;""> </div>","null","fixation","html-keyboard-response","300","1639168","0.0-6.0-0.42","4128585","co39274","norming","","","","","","",""
"null","../img/tt/096tt.jpg","null","mooney1","image-keyboard-response","301","1642171","0.0-6.0-1.42","4128585","co39274","norming","","","","","","",""
"12227.420000000158","","","post_mooney1_questions","survey-likert","302","1654401","0.0-6.0-2.42","4128585","co39274","norming","","","{""curiosity"":6,""confidence"":5}","[0,1]","../img/tt/096tt.jpg","",""
"6389.864999999991","","","recognition","survey-text","303","1660793","0.0-6.0-3.42","4128585","co39274","norming","","","{""guess"":""piano""}","","../img/tt/096tt.jpg","",""
"null","../img/gs/096gs.jpg","null","reveal","image-keyboard-response","304","1662803","0.0-6.0-4.42","4128585","co39274","norming","","","","","","",""
"null","../img/tt/096tt.jpg","null","mooney2","image-keyboard-response","305","1664807","0.0-6.0-5.42","4128585","co39274","norming","","","","","","",""
"3428.6400000001304","","","post_reveal_questions","survey-likert","306","1668241","0.0-6.0-6.42","4128585","co39274","norming","","","{""aha"":3}","[0]","../img/tt/096tt.jpg","",""
"null","<div style=""font-size:60px;""> </div>","null","fixation","html-keyboard-response","307","1668452","0.0-6.0-0.43","4128585","co39274","norming","","","","","","",""
"null","../img/tt/1239tt.jpg","null","mooney1","image-keyboard-response","308","1671464","0.0-6.0-1.43","4128585","co39274","norming","","","","","","",""
"9917.725000000326","","","post_mooney1_questions","survey-likert","309","1681379","0.0-6.0-2.43","4128585","co39274","norming","","","{""curiosity"":6,""confidence"":2}","[0,1]","../img/tt/1239tt.jpg","",""
"8541.94999999972","","","recognition","survey-text","310","1689922","0.0-6.0-3.43","4128585","co39274","norming","","","{""guess"":""cowboy""}","","../img/tt/1239tt.jpg","",""
"null","../img/gs/1239gs.jpg","null","reveal","image-keyboard-response","311","1691929","0.0-6.0-4.43","4128585","co39274","norming","","","","","","",""
"null","../img/tt/1239tt.jpg","null","mooney2","image-keyboard-response","312","1693939","0.0-6.0-5.43","4128585","co39274","norming","","","","","","",""
"2140.3149999997113","","","post_reveal_questions","survey-likert","313","1696082","0.0-6.0-6.43","4128585","co39274","norming","","","{""aha"":5}","[0]","../img/tt/1239tt.jpg","",""
"null","<div style=""font-size:60px;""> </div>","null","fixation","html-keyboard-response","314","1696293","0.0-6.0-0.44","4128585","co39274","norming","","","","","","",""
"null","../img/tt/081tt.jpg","null","mooney1","image-keyboard-response","315","1699295","0.0-6.0-1.44","4128585","co39274","norming","","","","","","",""
"12880.180000000168","","","post_mooney1_questions","survey-likert","316","1712179","0.0-6.0-2.44","4128585","co39274","norming","","","{""curiosity"":6,""confidence"":5}","[0,1]","../img/tt/081tt.jpg","",""
"16389.910000000848","","","recognition","survey-text","317","1728570","0.0-6.0-3.44","4128585","co39274","norming","","","{""guess"":""zijkant dier""}","","../img/tt/081tt.jpg","",""
"null","../img/gs/081gs.jpg","null","reveal","image-keyboard-response","318","1730573","0.0-6.0-4.44","4128585","co39274","norming","","","","","","",""
"null","../img/tt/081tt.jpg","null","mooney2","image-keyboard-response","319","1732576","0.0-6.0-5.44","4128585","co39274","norming","","","","","","",""
"3521.0500000002794","","","post_reveal_questions","survey-likert","320","1736098","0.0-6.0-6.44","4128585","co39274","norming","","","{""aha"":5}","[0]","../img/tt/081tt.jpg","",""
"null","<div style=""font-size:60px;""> </div>","null","fixation","html-keyboard-response","321","1736305","0.0-6.0-0.45","4128585","co39274","norming","","","","","","",""
"null","../img/tt/010tt.jpg","null","mooney1","image-keyboard-response","322","1739308","0.0-6.0-1.45","4128585","co39274","norming","","","","","","",""
"6709.504999999655","","","post_mooney1_questions","survey-likert","323","1746018","0.0-6.0-2.45","4128585","co39274","norming","","","{""curiosity"":6,""confidence"":2}","[0,1]","../img/tt/010tt.jpg","",""
"9365.75","","","recognition","survey-text","324","1755385","0.0-6.0-3.45","4128585","co39274","norming","","","{""guess"":""troffee""}","","../img/tt/010tt.jpg","",""
"null","../img/gs/010gs.jpg","null","reveal","image-keyboard-response","325","1757389","0.0-6.0-4.45","4128585","co39274","norming","","","","","","",""
"null","../img/tt/010tt.jpg","null","mooney2","image-keyboard-response","326","1759391","0.0-6.0-5.45","4128585","co39274","norming","","","","","","",""
"8847.949999999488","","","post_reveal_questions","survey-likert","327","1768241","0.0-6.0-6.45","4128585","co39274","norming","","","{""aha"":0}","[0]","../img/tt/010tt.jpg","",""
"null","<div style=""font-size:60px;""> </div>","null","fixation","html-keyboard-response","328","1768442","0.0-6.0-0.46","4128585","co39274","norming","","","","","","",""
"null","../img/tt/1202tt.jpg","null","mooney1","image-keyboard-response","329","1771445","0.0-6.0-1.46","4128585","co39274","norming","","","","","","",""
"13056.389999999665","","","post_mooney1_questions","survey-likert","330","1784505","0.0-6.0-2.46","4128585","co39274","norming","","","{""curiosity"":4,""confidence"":1}","[0,1]","../img/tt/1202tt.jpg","",""
"5366.104999999981","","","recognition","survey-text","331","1789873","0.0-6.0-3.46","4128585","co39274","norming","","","{""guess"":""man""}","","../img/tt/1202tt.jpg","",""
"null","../img/gs/1202gs.jpg","null","reveal","image-keyboard-response","332","1791875","0.0-6.0-4.46","4128585","co39274","norming","","","","","","",""
"null","../img/tt/1202tt.jpg","null","mooney2","image-keyboard-response","333","1793885","0.0-6.0-5.46","4128585","co39274","norming","","","","","","",""
"2866.1400000001304","","","post_reveal_questions","survey-likert","334","1796753","0.0-6.0-6.46","4128585","co39274","norming","","","{""aha"":1}","[0]","../img/tt/1202tt.jpg","",""
"null","<div style=""font-size:60px;""> </div>","null","fixation","html-keyboard-response","335","1796954","0.0-6.0-0.47","4128585","co39274","norming","","","","","","",""
"null","../img/tt/1069tt.jpg","null","mooney1","image-keyboard-response","336","1799961","0.0-6.0-1.47","4128585","co39274","norming","","","","","","",""
"6725.050000000047","","","post_mooney1_questions","survey-likert","337","1806696","0.0-6.0-2.47","4128585","co39274","norming","","","{""curiosity"":6,""confidence"":6}","[0,1]","../img/tt/1069tt.jpg","",""
"3109.445000000065","","","recognition","survey-text","338","1809808","0.0-6.0-3.47","4128585","co39274","norming","","","{""guess"":""ram""}","","../img/tt/1069tt.jpg","",""
"null","../img/gs/1069gs.jpg","null","reveal","image-keyboard-response","339","1811818","0.0-6.0-4.47","4128585","co39274","norming","","","","","","",""
"null","../img/tt/1069tt.jpg","null","mooney2","image-keyboard-response","340","1813829","0.0-6.0-5.47","4128585","co39274","norming","","","","","","",""
"3511.8699999991804","","","post_reveal_questions","survey-likert","341","1817344","0.0-6.0-6.47","4128585","co39274","norming","","","{""aha"":3}","[0]","../img/tt/1069tt.jpg","",""
"null","<div style=""font-size:60px;""> </div>","null","fixation","html-keyboard-response","342","1817545","0.0-6.0-0.48","4128585","co39274","norming","","","","","","",""
"null","../img/tt/1243tt.jpg","null","mooney1","image-keyboard-response","343","1820553","0.0-6.0-1.48","4128585","co39274","norming","","","","","","",""
"18685.30000000028","","","post_mooney1_questions","survey-likert","344","1839240","0.0-6.0-2.48","4128585","co39274","norming","","","{""curiosity"":5,""confidence"":5}","[0,1]","../img/tt/1243tt.jpg","",""
"13205.740000000456","","","recognition","survey-text","345","1852448","0.0-6.0-3.48","4128585","co39274","norming","","","{""guess"":""klimmende man""}","","../img/tt/1243tt.jpg","",""
"null","../img/gs/1243gs.jpg","null","reveal","image-keyboard-response","346","1854450","0.0-6.0-4.48","4128585","co39274","norming","","","","","","",""
"null","../img/tt/1243tt.jpg","null","mooney2","image-keyboard-response","347","1856452","0.0-6.0-5.48","4128585","co39274","norming","","","","","","",""
"5041.035000000149","","","post_reveal_questions","survey-likert","348","1861496","0.0-6.0-6.48","4128585","co39274","norming","","","{""aha"":5}","[0]","../img/tt/1243tt.jpg","",""
"null","<div style=""font-size:60px;""> </div>","null","fixation","html-keyboard-response","349","1861702","0.0-6.0-0.49","4128585","co39274","norming","","","","","","",""
"null","../img/tt/1097tt.jpg","null","mooney1","image-keyboard-response","350","1864709","0.0-6.0-1.49","4128585","co39274","norming","","","","","","",""
"25777.879999999655","","","post_mooney1_questions","survey-likert","351","1890491","0.0-6.0-2.49","4128585","co39274","norming","","","{""curiosity"":5,""confidence"":6}","[0,1]","../img/tt/1097tt.jpg","",""
"14549.824999999953","","","recognition","survey-text","352","1905042","0.0-6.0-3.49","4128585","co39274","norming","","","{""guess"":""rechtstaande man""}","","../img/tt/1097tt.jpg","",""
"null","../img/gs/1097gs.jpg","null","reveal","image-keyboard-response","353","1907052","0.0-6.0-4.49","4128585","co39274","norming","","","","","","",""
"null","../img/tt/1097tt.jpg","null","mooney2","image-keyboard-response","354","1909055","0.0-6.0-5.49","4128585","co39274","norming","","","","","","",""
"2392.1200000003446","","","post_reveal_questions","survey-likert","355","1911450","0.0-6.0-6.49","4128585","co39274","norming","","","{""aha"":6}","[0]","../img/tt/1097tt.jpg","",""
"null","<div style=""font-size:60px;""> </div>","null","fixation","html-keyboard-response","356","1911654","0.0-6.0-0.50","4128585","co39274","norming","","","","","","",""
"null","../img/tt/1154tt.jpg","null","mooney1","image-keyboard-response","357","1914659","0.0-6.0-1.50","4128585","co39274","norming","","","","","","",""
"7982.920000000391","","","post_mooney1_questions","survey-likert","358","1922643","0.0-6.0-2.50","4128585","co39274","norming","","","{""curiosity"":2,""confidence"":0}","[0,1]","../img/tt/1154tt.jpg","",""
"2453.9850000001024","","","recognition","survey-text","359","1925092","0.0-6.0-3.50","4128585","co39274","norming","","","{""guess"":""""}","","../img/tt/1154tt.jpg","",""
"null","../img/gs/1154gs.jpg","null","reveal","image-keyboard-response","360","1927096","0.0-6.0-4.50","4128585","co39274","norming","","","","","","",""
"null","../img/tt/1154tt.jpg","null","mooney2","image-keyboard-response","361","1929098","0.0-6.0-5.50","4128585","co39274","norming","","","","","","",""
"2408.0500000000466","","","post_reveal_questions","survey-likert","362","1931509","0.0-6.0-6.50","4128585","co39274","norming","","","{""aha"":2}","[0]","../img/tt/1154tt.jpg","",""
"null","<div style=""font-size:60px;""> </div>","null","fixation","html-keyboard-response","363","1931716","0.0-6.0-0.51","4128585","co39274","norming","","","","","","",""
"null","../img/tt/1061tt.jpg","null","mooney1","image-keyboard-response","364","1934726","0.0-6.0-1.51","4128585","co39274","norming","","","","","","",""
"8907.4300000004","","","post_mooney1_questions","survey-likert","365","1943637","0.0-6.0-2.51","4128585","co39274","norming","","","{""curiosity"":2,""confidence"":0}","[0,1]","../img/tt/1061tt.jpg","",""
"1822.0200000007171","","","recognition","survey-text","366","1945461","0.0-6.0-3.51","4128585","co39274","norming","","","{""guess"":""""}","","../img/tt/1061tt.jpg","",""
"null","../img/gs/1061gs.jpg","null","reveal","image-keyboard-response","367","1947464","0.0-6.0-4.51","4128585","co39274","norming","","","","","","",""
"null","../img/tt/1061tt.jpg","null","mooney2","image-keyboard-response","368","1949465","0.0-6.0-5.51","4128585","co39274","norming","","","","","","",""
"3272.535000000149","","","post_reveal_questions","survey-likert","369","1952740","0.0-6.0-6.51","4128585","co39274","norming","","","{""aha"":6}","[0]","../img/tt/1061tt.jpg","",""
"null","<div style=""font-size:60px;""> </div>","null","fixation","html-keyboard-response","370","1952946","0.0-6.0-0.52","4128585","co39274","norming","","","","","","",""
"null","../img/tt/1199tt.jpg","null","mooney1","image-keyboard-response","371","1955954","0.0-6.0-1.52","4128585","co39274","norming","","","","","","",""
"16103.284999999218","","","post_mooney1_questions","survey-likert","372","1972061","0.0-6.0-2.52","4128585","co39274","norming","","","{""curiosity"":5,""confidence"":5}","[0,1]","../img/tt/1199tt.jpg","",""
"37270.01000000024","","","recognition","survey-text","373","2009339","0.0-6.0-3.52","4128585","co39274","norming","","","{""guess"":""ballerina""}","","../img/tt/1199tt.jpg","",""
"null","../img/gs/1199gs.jpg","null","reveal","image-keyboard-response","374","2011340","0.0-6.0-4.52","4128585","co39274","norming","","","","","","",""
"null","../img/tt/1199tt.jpg","null","mooney2","image-keyboard-response","375","2013342","0.0-6.0-5.52","4128585","co39274","norming","","","","","","",""
"2537.0949999995064","","","post_reveal_questions","survey-likert","376","2015883","0.0-6.0-6.52","4128585","co39274","norming","","","{""aha"":6}","[0]","../img/tt/1199tt.jpg","",""
"null","<div style=""font-size:60px;""> </div>","null","fixation","html-keyboard-response","377","2016088","0.0-6.0-0.53","4128585","co39274","norming","","","","","","",""
"null","../img/tt/1261tt.jpg","null","mooney1","image-keyboard-response","378","2019094","0.0-6.0-1.53","4128585","co39274","norming","","","","","","",""
"10889.435000000056","","","post_mooney1_questions","survey-likert","379","2029987","0.0-6.0-2.53","4128585","co39274","norming","","","{""curiosity"":2,""confidence"":4}","[0,1]","../img/tt/1261tt.jpg","",""
"9597.845000000205","","","recognition","survey-text","380","2039587","0.0-6.0-3.53","4128585","co39274","norming","","","{""guess"":""opgesloten dieren""}","","../img/tt/1261tt.jpg","",""
"null","../img/gs/1261gs.jpg","null","reveal","image-keyboard-response","381","2041596","0.0-6.0-4.53","4128585","co39274","norming","","","","","","",""
"null","../img/tt/1261tt.jpg","null","mooney2","image-keyboard-response","382","2043601","0.0-6.0-5.53","4128585","co39274","norming","","","","","","",""
"2806.6549999995623","","","post_reveal_questions","survey-likert","383","2046402","0.0-6.0-6.53","4128585","co39274","norming","","","{""aha"":5}","[0]","../img/tt/1261tt.jpg","",""
"null","<div style=""font-size:60px;""> </div>","null","fixation","html-keyboard-response","384","2046613","0.0-6.0-0.54","4128585","co39274","norming","","","","","","",""
"null","../img/tt/1191tt.jpg","null","mooney1","image-keyboard-response","385","2049618","0.0-6.0-1.54","4128585","co39274","norming","","","","","","",""
"11381.625","","","post_mooney1_questions","survey-likert","386","2061002","0.0-6.0-2.54","4128585","co39274","norming","","","{""curiosity"":2,""confidence"":4}","[0,1]","../img/tt/1191tt.jpg","",""
"8101.874999999534","","","recognition","survey-text","387","2069106","0.0-6.0-3.54","4128585","co39274","norming","","","{""guess"":""paard ruiter""}","","../img/tt/1191tt.jpg","",""
"null","../img/gs/1191gs.jpg","null","reveal","image-keyboard-response","388","2071110","0.0-6.0-4.54","4128585","co39274","norming","","","","","","",""
"null","../img/tt/1191tt.jpg","null","mooney2","image-keyboard-response","389","2073113","0.0-6.0-5.54","4128585","co39274","norming","","","","","","",""
"6366.16500000027","","","post_reveal_questions","survey-likert","390","2079482","0.0-6.0-6.54","4128585","co39274","norming","","","{""aha"":2}","[0]","../img/tt/1191tt.jpg","",""
"null","<div style=""font-size:60px;""> </div>","null","fixation","html-keyboard-response","391","2079687","0.0-6.0-0.55","4128585","co39274","norming","","","","","","",""
"null","../img/tt/416tt.jpg","null","mooney1","image-keyboard-response","392","2082694","0.0-6.0-1.55","4128585","co39274","norming","","","","","","",""
"10593.375000000466","","","post_mooney1_questions","survey-likert","393","2093290","0.0-6.0-2.55","4128585","co39274","norming","","","{""curiosity"":2,""confidence"":3}","[0,1]","../img/tt/416tt.jpg","",""
"7069.925000000047","","","recognition","survey-text","394","2100362","0.0-6.0-3.55","4128585","co39274","norming","","","{""guess"":""twee dieren""}","","../img/tt/416tt.jpg","",""
"null","../img/gs/416gs.jpg","null","reveal","image-keyboard-response","395","2102363","0.0-6.0-4.55","4128585","co39274","norming","","","","","","",""
"null","../img/tt/416tt.jpg","null","mooney2","image-keyboard-response","396","2104366","0.0-6.0-5.55","4128585","co39274","norming","","","","","","",""
"2963.6099999998696","","","post_reveal_questions","survey-likert","397","2107330","0.0-6.0-6.55","4128585","co39274","norming","","","{""aha"":5}","[0]","../img/tt/416tt.jpg","",""
"null","<div style=""font-size:60px;""> </div>","null","fixation","html-keyboard-response","398","2107541","0.0-6.0-0.56","4128585","co39274","norming","","","","","","",""
"null","../img/tt/603tt.jpg","null","mooney1","image-keyboard-response","399","2110543","0.0-6.0-1.56","4128585","co39274","norming","","","","","","",""
"10994.595000000205","","","post_mooney1_questions","survey-likert","400","2121539","0.0-6.0-2.56","4128585","co39274","norming","","","{""curiosity"":2,""confidence"":2}","[0,1]","../img/tt/603tt.jpg","",""
"6350.01500000013","","","recognition","survey-text","401","2127890","0.0-6.0-3.56","4128585","co39274","norming","","","{""guess"":""twee ogen""}","","../img/tt/603tt.jpg","",""
"null","../img/gs/603gs.jpg","null","reveal","image-keyboard-response","402","2129892","0.0-6.0-4.56","4128585","co39274","norming","","","","","","",""
"null","../img/tt/603tt.jpg","null","mooney2","image-keyboard-response","403","2131902","0.0-6.0-5.56","4128585","co39274","norming","","","","","","",""
"6305.780000000726","","","post_reveal_questions","survey-likert","404","2138210","0.0-6.0-6.56","4128585","co39274","norming","","","{""aha"":4}","[0]","../img/tt/603tt.jpg","",""
"null","<div style=""font-size:60px;""> </div>","null","fixation","html-keyboard-response","405","2138412","0.0-6.0-0.57","4128585","co39274","norming","","","","","","",""
"null","../img/tt/1269tt.jpg","null","mooney1","image-keyboard-response","406","2141421","0.0-6.0-1.57","4128585","co39274","norming","","","","","","",""
"25346.389999999665","","","post_mooney1_questions","survey-likert","407","2166779","0.0-6.0-2.57","4128585","co39274","norming","","","{""curiosity"":4,""confidence"":5}","[0,1]","../img/tt/1269tt.jpg","",""
"12309.729999999981","","","recognition","survey-text","408","2179091","0.0-6.0-3.57","4128585","co39274","norming","","","{""guess"":""liggende katachtige""}","","../img/tt/1269tt.jpg","",""
"null","../img/gs/1269gs.jpg","null","reveal","image-keyboard-response","409","2181095","0.0-6.0-4.57","4128585","co39274","norming","","","","","","",""
"null","../img/tt/1269tt.jpg","null","mooney2","image-keyboard-response","410","2183105","0.0-6.0-5.57","4128585","co39274","norming","","","","","","",""
"3423.445000000298","","","post_reveal_questions","survey-likert","411","2186531","0.0-6.0-6.57","4128585","co39274","norming","","","{""aha"":6}","[0]","../img/tt/1269tt.jpg","",""
"null","<div style=""font-size:60px;""> </div>","null","fixation","html-keyboard-response","412","2186734","0.0-6.0-0.58","4128585","co39274","norming","","","","","","",""
"null","../img/tt/1196tt.jpg","null","mooney1","image-keyboard-response","413","2189739","0.0-6.0-1.58","4128585","co39274","norming","","","","","","",""
"10486.114999999758","","","post_mooney1_questions","survey-likert","414","2200227","0.0-6.0-2.58","4128585","co39274","norming","","","{""curiosity"":0,""confidence"":0}","[0,1]","../img/tt/1196tt.jpg","",""
"957.8199999998324","","","recognition","survey-text","415","2201187","0.0-6.0-3.58","4128585","co39274","norming","","","{""guess"":""""}","","../img/tt/1196tt.jpg","",""
"null","../img/gs/1196gs.jpg","null","reveal","image-keyboard-response","416","2203191","0.0-6.0-4.58","4128585","co39274","norming","","","","","","",""
"null","../img/tt/1196tt.jpg","null","mooney2","image-keyboard-response","417","2205195","0.0-6.0-5.58","4128585","co39274","norming","","","","","","",""
"3917.1299999998882","","","post_reveal_questions","survey-likert","418","2209115","0.0-6.0-6.58","4128585","co39274","norming","","","{""aha"":3}","[0]","../img/tt/1196tt.jpg","",""
"null","<div style=""font-size:60px;""> </div>","null","fixation","html-keyboard-response","419","2209318","0.0-6.0-0.59","4128585","co39274","norming","","","","","","",""
"null","../img/tt/046tt.jpg","null","mooney1","image-keyboard-response","420","2212322","0.0-6.0-1.59","4128585","co39274","norming","","","","","","",""
"5494.024999999907","","","post_mooney1_questions","survey-likert","421","2217819","0.0-6.0-2.59","4128585","co39274","norming","","","{""curiosity"":0,""confidence"":0}","[0,1]","../img/tt/046tt.jpg","",""
"5293.9399999994785","","","recognition","survey-text","422","2223115","0.0-6.0-3.59","4128585","co39274","norming","","","{""guess"":""""}","","../img/tt/046tt.jpg","",""
"null","../img/gs/046gs.jpg","null","reveal","image-keyboard-response","423","2225123","0.0-6.0-4.59","4128585","co39274","norming","","","","","","",""
"null","../img/tt/046tt.jpg","null","mooney2","image-keyboard-response","424","2227126","0.0-6.0-5.59","4128585","co39274","norming","","","","","","",""
"2155.0850000004284","","","post_reveal_questions","survey-likert","425","2229283","0.0-6.0-6.59","4128585","co39274","norming","","","{""aha"":1}","[0]","../img/tt/046tt.jpg","",""
"null","<div style=""font-size:60px;""> </div>","null","fixation","html-keyboard-response","426","2229490","0.0-6.0-0.60","4128585","co39274","norming","","","","","","",""
"null","../img/tt/357tt.jpg","null","mooney1","image-keyboard-response","427","2232495","0.0-6.0-1.60","4128585","co39274","norming","","","","","","",""
"20680.900000000373","","","post_mooney1_questions","survey-likert","428","2253180","0.0-6.0-2.60","4128585","co39274","norming","","","{""curiosity"":0,""confidence"":0}","[0,1]","../img/tt/357tt.jpg","",""
"13789.975000000093","","","recognition","survey-text","429","2266971","0.0-6.0-3.60","4128585","co39274","norming","","","{""guess"":""pindanoot""}","","../img/tt/357tt.jpg","",""
"null","../img/gs/357gs.jpg","null","reveal","image-keyboard-response","430","2268977","0.0-6.0-4.60","4128585","co39274","norming","","","","","","",""
"null","../img/tt/357tt.jpg","null","mooney2","image-keyboard-response","431","2270979","0.0-6.0-5.60","4128585","co39274","norming","","","","","","",""
"4789.459999999963","","","post_reveal_questions","survey-likert","432","2275771","0.0-6.0-6.60","4128585","co39274","norming","","","{""aha"":1}","[0]","../img/tt/357tt.jpg","",""
"null","<div style=""font-size:60px;""> </div>","null","fixation","html-keyboard-response","433","2275972","0.0-6.0-0.61","4128585","co39274","norming","","","","","","",""
"null","../img/tt/055tt.jpg","null","mooney1","image-keyboard-response","434","2278981","0.0-6.0-1.61","4128585","co39274","norming","","","","","","",""
"6306.505000000354","","","post_mooney1_questions","survey-likert","435","2285291","0.0-6.0-2.61","4128585","co39274","norming","","","{""curiosity"":4,""confidence"":6}","[0,1]","../img/tt/055tt.jpg","",""
"43150.12499999907","","","recognition","survey-text","436","2328443","0.0-6.0-3.61","4128585","co39274","norming","","","{""guess"":""paardrij zadel""}","","../img/tt/055tt.jpg","",""
"null","../img/gs/055gs.jpg","null","reveal","image-keyboard-response","437","2330450","0.0-6.0-4.61","4128585","co39274","norming","","","","","","",""
"null","../img/tt/055tt.jpg","null","mooney2","image-keyboard-response","438","2332461","0.0-6.0-5.61","4128585","co39274","norming","","","","","","",""
"3882.8549999995157","","","post_reveal_questions","survey-likert","439","2336347","0.0-6.0-6.61","4128585","co39274","norming","","","{""aha"":0}","[0]","../img/tt/055tt.jpg","",""
"null","<div style=""font-size:60px;""> </div>","null","fixation","html-keyboard-response","440","2336549","0.0-6.0-0.62","4128585","co39274","norming","","","","","","",""
"null","../img/tt/044tt.jpg","null","mooney1","image-keyboard-response","441","2339558","0.0-6.0-1.62","4128585","co39274","norming","","","","","","",""
"14689.989999999758","","","post_mooney1_questions","survey-likert","442","2354250","0.0-6.0-2.62","4128585","co39274","norming","","","{""curiosity"":3,""confidence"":4}","[0,1]","../img/tt/044tt.jpg","",""
"4086.2649999996647","","","recognition","survey-text","443","2358338","0.0-6.0-3.62","4128585","co39274","norming","","","{""guess"":""doos""}","","../img/tt/044tt.jpg","",""
"null","../img/gs/044gs.jpg","null","reveal","image-keyboard-response","444","2360349","0.0-6.0-4.62","4128585","co39274","norming","","","","","","",""
"null","../img/tt/044tt.jpg","null","mooney2","image-keyboard-response","445","2362355","0.0-6.0-5.62","4128585","co39274","norming","","","","","","",""
"3316.100000000093","","","post_reveal_questions","survey-likert","446","2365675","0.0-6.0-6.62","4128585","co39274","norming","","","{""aha"":5}","[0]","../img/tt/044tt.jpg","",""
"null","<div style=""font-size:60px;""> </div>","null","fixation","html-keyboard-response","447","2365884","0.0-6.0-0.63","4128585","co39274","norming","","","","","","",""
"null","../img/tt/1186tt.jpg","null","mooney1","image-keyboard-response","448","2368886","0.0-6.0-1.63","4128585","co39274","norming","","","","","","",""
"9545.579999999609","","","post_mooney1_questions","survey-likert","449","2378435","0.0-6.0-2.63","4128585","co39274","norming","","","{""curiosity"":0,""confidence"":4}","[0,1]","../img/tt/1186tt.jpg","",""
"7998.155000000261","","","recognition","survey-text","450","2386434","0.0-6.0-3.63","4128585","co39274","norming","","","{""guess"":""skeeler""}","","../img/tt/1186tt.jpg","",""
"null","../img/gs/1186gs.jpg","null","reveal","image-keyboard-response","451","2388436","0.0-6.0-4.63","4128585","co39274","norming","","","","","","",""
"null","../img/tt/1186tt.jpg","null","mooney2","image-keyboard-response","452","2390437","0.0-6.0-5.63","4128585","co39274","norming","","","","","","",""
"5202.250000000466","","","post_reveal_questions","survey-likert","453","2395642","0.0-6.0-6.63","4128585","co39274","norming","","","{""aha"":6}","[0]","../img/tt/1186tt.jpg","",""
"null","<div style=""font-size:60px;""> </div>","null","fixation","html-keyboard-response","454","2395850","0.0-6.0-0.64","4128585","co39274","norming","","","","","","",""
"null","../img/tt/300tt.jpg","null","mooney1","image-keyboard-response","455","2398854","0.0-6.0-1.64","4128585","co39274","norming","","","","","","",""
"15857.429999999702","","","post_mooney1_questions","survey-likert","456","2414714","0.0-6.0-2.64","4128585","co39274","norming","","","{""curiosity"":4,""confidence"":5}","[0,1]","../img/tt/300tt.jpg","",""
"7093.720000000671","","","recognition","survey-text","457","2421809","0.0-6.0-3.64","4128585","co39274","norming","","","{""guess"":""zittende aap""}","","../img/tt/300tt.jpg","",""
"null","../img/gs/300gs.jpg","null","reveal","image-keyboard-response","458","2423812","0.0-6.0-4.64","4128585","co39274","norming","","","","","","",""
"null","../img/tt/300tt.jpg","null","mooney2","image-keyboard-response","459","2425818","0.0-6.0-5.64","4128585","co39274","norming","","","","","","",""
"4357.079999999609","","","post_reveal_questions","survey-likert","460","2430177","0.0-6.0-6.64","4128585","co39274","norming","","","{""aha"":6}","[0]","../img/tt/300tt.jpg","",""
"null","<div style=""font-size:60px;""> </div>","null","fixation","html-keyboard-response","461","2430378","0.0-6.0-0.65","4128585","co39274","norming","","","","","","",""
"null","../img/tt/078tt.jpg","null","mooney1","image-keyboard-response","462","2433388","0.0-6.0-1.65","4128585","co39274","norming","","","","","","",""
"6930.354999999516","","","post_mooney1_questions","survey-likert","463","2440322","0.0-6.0-2.65","4128585","co39274","norming","","","{""curiosity"":4,""confidence"":6}","[0,1]","../img/tt/078tt.jpg","",""
"5982.050000000745","","","recognition","survey-text","464","2446306","0.0-6.0-3.65","4128585","co39274","norming","","","{""guess"":""druiven""}","","../img/tt/078tt.jpg","",""
"null","../img/gs/078gs.jpg","null","reveal","image-keyboard-response","465","2448311","0.0-6.0-4.65","4128585","co39274","norming","","","","","","",""
"null","../img/tt/078tt.jpg","null","mooney2","image-keyboard-response","466","2450313","0.0-6.0-5.65","4128585","co39274","norming","","","","","","",""
"4029.8849999997765","","","post_reveal_questions","survey-likert","467","2454345","0.0-6.0-6.65","4128585","co39274","norming","","","{""aha"":0}","[0]","../img/tt/078tt.jpg","",""
"null","<div style=""font-size:60px;""> </div>","null","fixation","html-keyboard-response","468","2454549","0.0-6.0-0.66","4128585","co39274","norming","","","","","","",""
"null","../img/tt/1146tt.jpg","null","mooney1","image-keyboard-response","469","2457559","0.0-6.0-1.66","4128585","co39274","norming","","","","","","",""
"13440.760000000242","","","post_mooney1_questions","survey-likert","470","2471001","0.0-6.0-2.66","4128585","co39274","norming","","","{""curiosity"":4,""confidence"":5}","[0,1]","../img/tt/1146tt.jpg","",""
"12646.445000000298","","","recognition","survey-text","471","2483644","0.0-6.0-3.66","4128585","co39274","norming","","","{""guess"":""man zeilboot""}","","../img/tt/1146tt.jpg","",""
"null","../img/gs/1146gs.jpg","null","reveal","image-keyboard-response","472","2485647","0.0-6.0-4.66","4128585","co39274","norming","","","","","","",""
"null","../img/tt/1146tt.jpg","null","mooney2","image-keyboard-response","473","2487658","0.0-6.0-5.66","4128585","co39274","norming","","","","","","",""
"3679.4149999995716","","","post_reveal_questions","survey-likert","474","2491340","0.0-6.0-6.66","4128585","co39274","norming","","","{""aha"":4}","[0]","../img/tt/1146tt.jpg","",""
"null","<div style=""font-size:60px;""> </div>","null","fixation","html-keyboard-response","475","2491547","0.0-6.0-0.67","4128585","co39274","norming","","","","","","",""
"null","../img/tt/118tt.jpg","null","mooney1","image-keyboard-response","476","2494555","0.0-6.0-1.67","4128585","co39274","norming","","","","","","",""
"8216.290000000037","","","post_mooney1_questions","survey-likert","477","2502773","0.0-6.0-2.67","4128585","co39274","norming","","","{""curiosity"":4,""confidence"":4}","[0,1]","../img/tt/118tt.jpg","",""
"3781.620000001043","","","recognition","survey-text","478","2506556","0.0-6.0-3.67","4128585","co39274","norming","","","{""guess"":""boot""}","","../img/tt/118tt.jpg","",""
"null","../img/gs/118gs.jpg","null","reveal","image-keyboard-response","479","2508562","0.0-6.0-4.67","4128585","co39274","norming","","","","","","",""
"null","../img/tt/118tt.jpg","null","mooney2","image-keyboard-response","480","2510565","0.0-6.0-5.67","4128585","co39274","norming","","","","","","",""
"2142.670000000391","","","post_reveal_questions","survey-likert","481","2512708","0.0-6.0-6.67","4128585","co39274","norming","","","{""aha"":5}","[0]","../img/tt/118tt.jpg","",""
"null","<div style=""font-size:60px;""> </div>","null","fixation","html-keyboard-response","482","2512913","0.0-6.0-0.68","4128585","co39274","norming","","","","","","",""
"null","../img/tt/456tt.jpg","null","mooney1","image-keyboard-response","483","2515923","0.0-6.0-1.68","4128585","co39274","norming","","","","","","",""
"14864.714999999851","","","post_mooney1_questions","survey-likert","484","2530789","0.0-6.0-2.68","4128585","co39274","norming","","","{""curiosity"":6,""confidence"":5}","[0,1]","../img/tt/456tt.jpg","",""
"4725.954999999609","","","recognition","survey-text","485","2535526","0.0-6.0-3.68","4128585","co39274","norming","","","{""guess"":""klif""}","","../img/tt/456tt.jpg","",""
"null","../img/gs/456gs.jpg","null","reveal","image-keyboard-response","486","2537536","0.0-6.0-4.68","4128585","co39274","norming","","","","","","",""
"null","../img/tt/456tt.jpg","null","mooney2","image-keyboard-response","487","2539544","0.0-6.0-5.68","4128585","co39274","norming","","","","","","",""
"2042.8899999996647","","","post_reveal_questions","survey-likert","488","2541590","0.0-6.0-6.68","4128585","co39274","norming","","","{""aha"":6}","[0]","../img/tt/456tt.jpg","",""
"null","<div style=""font-size:60px;""> </div>","null","fixation","html-keyboard-response","489","2541793","0.0-6.0-0.69","4128585","co39274","norming","","","","","","",""
"null","../img/tt/163tt.jpg","null","mooney1","image-keyboard-response","490","2544804","0.0-6.0-1.69","4128585","co39274","norming","","","","","","",""
"5998.185000000056","","","post_mooney1_questions","survey-likert","491","2550806","0.0-6.0-2.69","4128585","co39274","norming","","","{""curiosity"":2,""confidence"":3}","[0,1]","../img/tt/163tt.jpg","",""
"8405.840000000317","","","recognition","survey-text","492","2559214","0.0-6.0-3.69","4128585","co39274","norming","","","{""guess"":""zittende man""}","","../img/tt/163tt.jpg","",""
"null","../img/gs/163gs.jpg","null","reveal","image-keyboard-response","493","2561218","0.0-6.0-4.69","4128585","co39274","norming","","","","","","",""
"null","../img/tt/163tt.jpg","null","mooney2","image-keyboard-response","494","2563222","0.0-6.0-5.69","4128585","co39274","norming","","","","","","",""
"3141.6199999991804","","","post_reveal_questions","survey-likert","495","2566366","0.0-6.0-6.69","4128585","co39274","norming","","","{""aha"":4}","[0]","../img/tt/163tt.jpg","",""
"null","<div style=""font-size:60px;""> </div>","null","fixation","html-keyboard-response","496","2566574","0.0-6.0-0.70","4128585","co39274","norming","","","","","","",""
"null","../img/tt/1043tt.jpg","null","mooney1","image-keyboard-response","497","2569579","0.0-6.0-1.70","4128585","co39274","norming","","","","","","",""
"6240.125","","","post_mooney1_questions","survey-likert","498","2575822","0.0-6.0-2.70","4128585","co39274","norming","","","{""curiosity"":0,""confidence"":1}","[0,1]","../img/tt/1043tt.jpg","",""
"4213.850000000093","","","recognition","survey-text","499","2580038","0.0-6.0-3.70","4128585","co39274","norming","","","{""guess"":""mand""}","","../img/tt/1043tt.jpg","",""
"null","../img/gs/1043gs.jpg","null","reveal","image-keyboard-response","500","2582043","0.0-6.0-4.70","4128585","co39274","norming","","","","","","",""
"null","../img/tt/1043tt.jpg","null","mooney2","image-keyboard-response","501","2584046","0.0-6.0-5.70","4128585","co39274","norming","","","","","","",""
"3829.130000000354","","","post_reveal_questions","survey-likert","502","2587878","0.0-6.0-6.70","4128585","co39274","norming","","","{""aha"":4}","[0]","../img/tt/1043tt.jpg","",""
"null","<div style=""font-size:60px;""> </div>","null","fixation","html-keyboard-response","503","2588085","0.0-6.0-0.71","4128585","co39274","norming","","","","","","",""
"null","../img/tt/1268tt.jpg","null","mooney1","image-keyboard-response","504","2591099","0.0-6.0-1.71","4128585","co39274","norming","","","","","","",""
"3966.6850000005215","","","post_mooney1_questions","survey-likert","505","2595070","0.0-6.0-2.71","4128585","co39274","norming","","","{""curiosity"":0,""confidence"":0}","[0,1]","../img/tt/1268tt.jpg","",""
"949.980000000447","","","recognition","survey-text","506","2596022","0.0-6.0-3.71","4128585","co39274","norming","","","{""guess"":""""}","","../img/tt/1268tt.jpg","",""
"null","../img/gs/1268gs.jpg","null","reveal","image-keyboard-response","507","2598024","0.0-6.0-4.71","4128585","co39274","norming","","","","","","",""
"null","../img/tt/1268tt.jpg","null","mooney2","image-keyboard-response","508","2600025","0.0-6.0-5.71","4128585","co39274","norming","","","","","","",""
"2154.355000000447","","","post_reveal_questions","survey-likert","509","2602182","0.0-6.0-6.71","4128585","co39274","norming","","","{""aha"":5}","[0]","../img/tt/1268tt.jpg","",""
"null","<div style=""font-size:60px;""> </div>","null","fixation","html-keyboard-response","510","2602392","0.0-6.0-0.72","4128585","co39274","norming","","","","","","",""
"null","../img/tt/559tt.jpg","null","mooney1","image-keyboard-response","511","2605397","0.0-6.0-1.72","4128585","co39274","norming","","","","","","",""
"9621.834999999963","","","post_mooney1_questions","survey-likert","512","2615022","0.0-6.0-2.72","4128585","co39274","norming","","","{""curiosity"":0,""confidence"":1}","[0,1]","../img/tt/559tt.jpg","",""
"7509.959999999031","","","recognition","survey-text","513","2622534","0.0-6.0-3.72","4128585","co39274","norming","","","{""guess"":""hakmes""}","","../img/tt/559tt.jpg","",""
"null","../img/gs/559gs.jpg","null","reveal","image-keyboard-response","514","2624535","0.0-6.0-4.72","4128585","co39274","norming","","","","","","",""
"null","../img/tt/559tt.jpg","null","mooney2","image-keyboard-response","515","2626538","0.0-6.0-5.72","4128585","co39274","norming","","","","","","",""
"2233.2299999999814","","","post_reveal_questions","survey-likert","516","2628774","0.0-6.0-6.72","4128585","co39274","norming","","","{""aha"":5}","[0]","../img/tt/559tt.jpg","",""
"null","<div style=""font-size:60px;""> </div>","null","fixation","html-keyboard-response","517","2628980","0.0-6.0-0.73","4128585","co39274","norming","","","","","","",""
"null","../img/tt/1228tt.jpg","null","mooney1","image-keyboard-response","518","2631992","0.0-6.0-1.73","4128585","co39274","norming","","","","","","",""
"5994.7249999996275","","","post_mooney1_questions","survey-likert","519","2637990","0.0-6.0-2.73","4128585","co39274","norming","","","{""curiosity"":0,""confidence"":1}","[0,1]","../img/tt/1228tt.jpg","",""
"5014.18499999959","","","recognition","survey-text","520","2643006","0.0-6.0-3.73","4128585","co39274","norming","","","{""guess"":""plant""}","","../img/tt/1228tt.jpg","",""
"null","../img/gs/1228gs.jpg","null","reveal","image-keyboard-response","521","2645017","0.0-6.0-4.73","4128585","co39274","norming","","","","","","",""
"null","../img/tt/1228tt.jpg","null","mooney2","image-keyboard-response","522","2647025","0.0-6.0-5.73","4128585","co39274","norming","","","","","","",""
"4329.495000000112","","","post_reveal_questions","survey-likert","523","2651358","0.0-6.0-6.73","4128585","co39274","norming","","","{""aha"":6}","[0]","../img/tt/1228tt.jpg","",""
"null","<div style=""font-size:60px;""> </div>","null","fixation","html-keyboard-response","524","2651566","0.0-6.0-0.74","4128585","co39274","norming","","","","","","",""
"null","../img/tt/063tt.jpg","null","mooney1","image-keyboard-response","525","2654569","0.0-6.0-1.74","4128585","co39274","norming","","","","","","",""
"10347.910000000615","","","post_mooney1_questions","survey-likert","526","2664919","0.0-6.0-2.74","4128585","co39274","norming","","","{""curiosity"":4,""confidence"":5}","[0,1]","../img/tt/063tt.jpg","",""
"12190.159999999218","","","recognition","survey-text","527","2677111","0.0-6.0-3.74","4128585","co39274","norming","","","{""guess"":""oud typmachine""}","","../img/tt/063tt.jpg","",""
"null","../img/gs/063gs.jpg","null","reveal","image-keyboard-response","528","2679121","0.0-6.0-4.74","4128585","co39274","norming","","","","","","",""
"null","../img/tt/063tt.jpg","null","mooney2","image-keyboard-response","529","2681132","0.0-6.0-5.74","4128585","co39274","norming","","","","","","",""
"4056.665000000503","","","post_reveal_questions","survey-likert","530","2685191","0.0-6.0-6.74","4128585","co39274","norming","","","{""aha"":6}","[0]","../img/tt/063tt.jpg","",""
"null","<div style=""font-size:60px;""> </div>","null","fixation","html-keyboard-response","531","2685392","0.0-6.0-0.75","4128585","co39274","norming","","","","","","",""
"null","../img/tt/1363tt.jpg","null","mooney1","image-keyboard-response","532","2688404","0.0-6.0-1.75","4128585","co39274","norming","","","","","","",""
"9742.464999999385","","","post_mooney1_questions","survey-likert","533","2698152","0.0-6.0-2.75","4128585","co39274","norming","","","{""curiosity"":4,""confidence"":5}","[0,1]","../img/tt/1363tt.jpg","",""
"9453.784999999683","","","recognition","survey-text","534","2707607","0.0-6.0-3.75","4128585","co39274","norming","","","{""guess"":""saus gieten""}","","../img/tt/1363tt.jpg","",""
"null","../img/gs/1363gs.jpg","null","reveal","image-keyboard-response","535","2709614","0.0-6.0-4.75","4128585","co39274","norming","","","","","","",""
"null","../img/tt/1363tt.jpg","null","mooney2","image-keyboard-response","536","2711623","0.0-6.0-5.75","4128585","co39274","norming","","","","","","",""
"3868.845000000205","","","post_reveal_questions","survey-likert","537","2715495","0.0-6.0-6.75","4128585","co39274","norming","","","{""aha"":3}","[0]","../img/tt/1363tt.jpg","",""
"null","<div style=""font-size:60px;""> </div>","null","fixation","html-keyboard-response","538","2715697","0.0-6.0-0.76","4128585","co39274","norming","","","","","","",""
"null","../img/tt/111tt.jpg","null","mooney1","image-keyboard-response","539","2718706","0.0-6.0-1.76","4128585","co39274","norming","","","","","","",""
"11669.264999999665","","","post_mooney1_questions","survey-likert","540","2730376","0.0-6.0-2.76","4128585","co39274","norming","","","{""curiosity"":4,""confidence"":4}","[0,1]","../img/tt/111tt.jpg","",""
"9509.70500000054","","","recognition","survey-text","541","2739888","0.0-6.0-3.76","4128585","co39274","norming","","","{""guess"":""brokken vallen""}","","../img/tt/111tt.jpg","",""
"null","../img/gs/111gs.jpg","null","reveal","image-keyboard-response","542","2741893","0.0-6.0-4.76","4128585","co39274","norming","","","","","","",""
"null","../img/tt/111tt.jpg","null","mooney2","image-keyboard-response","543","2743895","0.0-6.0-5.76","4128585","co39274","norming","","","","","","",""
"1942.339999999851","","","post_reveal_questions","survey-likert","544","2745840","0.0-6.0-6.76","4128585","co39274","norming","","","{""aha"":5}","[0]","../img/tt/111tt.jpg","",""
"null","<div style=""font-size:60px;""> </div>","null","fixation","html-keyboard-response","545","2746044","0.0-6.0-0.77","4128585","co39274","norming","","","","","","",""
"null","../img/tt/1200tt.jpg","null","mooney1","image-keyboard-response","546","2749056","0.0-6.0-1.77","4128585","co39274","norming","","","","","","",""
"5428.504999999888","","","post_mooney1_questions","survey-likert","547","2754488","0.0-6.0-2.77","4128585","co39274","norming","","","{""curiosity"":0,""confidence"":1}","[0,1]","../img/tt/1200tt.jpg","",""
"6198.0449999999255","","","recognition","survey-text","548","2760688","0.0-6.0-3.77","4128585","co39274","norming","","","{""guess"":""op straat""}","","../img/tt/1200tt.jpg","",""
"null","../img/gs/1200gs.jpg","null","reveal","image-keyboard-response","549","2762694","0.0-6.0-4.77","4128585","co39274","norming","","","","","","",""
"null","../img/tt/1200tt.jpg","null","mooney2","image-keyboard-response","550","2764696","0.0-6.0-5.77","4128585","co39274","norming","","","","","","",""
