"rt","stimulus","key_press","test_part","trial_type","trial_index","time_elapsed","internal_node_id","totalTime","subject","experiment_name","button_pressed","success","responses","question_order","currentStim","old","correct"
"9938.3","Welcome to the experiment. This is an online experiment so please don't close the tab/window until we say goodbye.  Press any key to begin.","32","instructions","html-keyboard-response","0","9951","0.0-0.0","3134660","co39343","norming","","","","","","",""
"19222.279999999984","<div style='word-wrap: break-word; width: 900px'><h3>Please consider this information carefully before deciding whether to participate in this research</h3><ul style='text-align: left; font-size: .8em;'><li><b>Purpose of the research</b>: To examine how people process images.</li><li><b>What you will do in this research</b>:  Stimuli (images) will be presented on the computer and you will be asked different questions about them.</li><li><b>Time required</b>: Participation will take between 45 and 60 minutes to complete.</li><li><b>Risks</b>:  There are no anticipated risks associated with participating in this study. The effects of participating should be comparable to those you would experience from viewing a computer monitor for 30 minutes and using a mouse or keyboard.</li><li><b>Benefits</b>:  This study provides no benefits to you individually except for the credit. The study provides important information about the nature of perception and learning.</li><li><b>Confidentiality</b>:  Your participation in this study will remain confidential. No personally identifiable information will be associated with your data. Your de-identified data may be shared with other researchers and used in future projects.</li><li><b>Participation and withdrawal</b>:  Your participation in this study is completely voluntary and you may refuse to participate or you may choose to withdraw at any time without penalty.</li><li><b>How to contact the researchers</b>: If you have questions or concerns about your participation or payment, or want to request a summary of research findings, please contact Sander Van de Cruys (KU Leuven), at sander.vandecruys@kuleuven.be.</li></ul><p>The nature and purpose of this research have been sufficiently explained and I agree to participate in this study.  I understand that I am free to withdraw at any time without incurring any penalty.</p><p>Please consent by clicking the button below to continue. Otherwise, please exit the study at this time.</p></div>","","instructions","html-button-response","1","29174","0.0-1.0","3134660","co39343","norming","0","","","","","",""
"","","","instructions","fullscreen","2","35862","0.0-2.0","3134660","co39343","norming","","true","","","","",""
"39934.975000000006","","","sona","survey-html-form","3","75806","0.0-3.0","3134660","co39343","norming","","","[{""name"":""sonaid"",""value"":""39343""},{""name"":""debrief"",""value"":""yes""},{""name"":""datajoin"",""value"":""yes""}]","","","",""
"92586.615","<div style='word-wrap: break-word; width: 900px'><h3>Instructions</h3><p>This experiment will have 3 parts. In the first part you will see a series of distorted images like the one below on the left. As you can see in the righthand image, the distorted images are derived from actual photographs. In what follows, you will <strong>briefly</strong> be presented with <strong>only</strong> the distorted image.</p> <div style='float: left; margin-right: 20px;'><img src='../img/018tt.jpg' height='250' width='250'></img></div><div style='float: right; margin-left: 20px;'><img src='../img/018gs.jpg' height='250' width='250'></img></div><p>Subsequently you will be asked a few questions about the image: One question on how <strong>curious</strong> you are about the solution and one on how <strong>confident</strong> you are that you know the solution.</p>Next, we ask you to make a guess on what is in the image. Note that it is OK to name just the <strong>basic level category</strong>. For example when you see a parrot in the image, 'parrot' will obviously be a correct answer but also correct is 'bird'. However, 'animal' will <strong>not</strong> be counted as a correct response. For the example above, 'rose' would be correct or 'flower', but not 'plant'. When soccer players are depicted, 'soccer', 'football', 'soccer players' will be correct, but not 'humans', 'outdoors', or 'sports'. You do not need to describe the image in full, just name the main object in it <strong>in one or two words</strong>. All images depict objects from one of the following broad level categories: animals, inanimate objects, plants, sports, vehicles, and food. Recognizing means knowing <strong>more</strong> than these broad labels for a given image. But we always encourage you to <strong>make a guess</strong> if you can. Note that you are allowed to use <strong>Dutch and English</strong> in your answers, whatever comes easiest for you.</p><p>Press any key to continue.</p></div>","39","instructions","html-keyboard-response","4","168389","0.0-4.0","3134660","co39343","norming","","","","","","",""
"28983.319999999978","<div style='word-wrap: break-word; width: 900px'><h3>Instructions</h3> <p>Next, the solution image will be revealed to you and you'll be asked to indicate how strong your <strong>aha-experience</strong> was after seeing the solution. This describes the positive feeling of the 'click' you sometimes experience, when the pieces of the 'puzzle' fall together and you suddenly have 'insight' in the image.</p><img src='aha.jpg' height='188' width='250'></img><p>Note that there are no right or wrong answers. We are interested in what <strong>you</strong> see in the image and how <strong>you</strong> feel about it.</p><p>Press any key to start the experiment.</p></div>","13","instructions","html-keyboard-response","5","197373","0.0-5.0","3134660","co39343","norming","","","","","","",""
"null","<div style=""font-size:60px;""> </div>","null","fixation","html-keyboard-response","6","197576","0.0-6.0-0.0","3134660","co39343","norming","","","","","","",""
"null","../img/tt/358tt.jpg","null","mooney1","image-keyboard-response","7","200583","0.0-6.0-1.0","3134660","co39343","norming","","","","","","",""
"11124.479999999923","","","post_mooney1_questions","survey-likert","8","211709","0.0-6.0-2.0","3134660","co39343","norming","","","{""curiosity"":5,""confidence"":0}","[0,1]","../img/tt/358tt.jpg","",""
"6869.6999999999825","","","recognition","survey-text","9","218581","0.0-6.0-3.0","3134660","co39343","norming","","","{""guess"":""cow""}","","../img/tt/358tt.jpg","",""
"null","../img/gs/358gs.jpg","null","reveal","image-keyboard-response","10","220590","0.0-6.0-4.0","3134660","co39343","norming","","","","","","",""
"null","../img/tt/358tt.jpg","null","mooney2","image-keyboard-response","11","222599","0.0-6.0-5.0","3134660","co39343","norming","","","","","","",""
"5020.624999999971","","","post_reveal_questions","survey-likert","12","227622","0.0-6.0-6.0","3134660","co39343","norming","","","{""aha"":3}","[0]","../img/tt/358tt.jpg","",""
"null","<div style=""font-size:60px;""> </div>","null","fixation","html-keyboard-response","13","227824","0.0-6.0-0.1","3134660","co39343","norming","","","","","","",""
"null","../img/tt/1272tt.jpg","null","mooney1","image-keyboard-response","14","230826","0.0-6.0-1.1","3134660","co39343","norming","","","","","","",""
"8027.195000000007","","","post_mooney1_questions","survey-likert","15","238854","0.0-6.0-2.1","3134660","co39343","norming","","","{""curiosity"":4,""confidence"":4}","[0,1]","../img/tt/1272tt.jpg","",""
"2926.1900000000314","","","recognition","survey-text","16","241782","0.0-6.0-3.1","3134660","co39343","norming","","","{""guess"":""pig""}","","../img/tt/1272tt.jpg","",""
"null","../img/gs/1272gs.jpg","null","reveal","image-keyboard-response","17","243786","0.0-6.0-4.1","3134660","co39343","norming","","","","","","",""
"null","../img/tt/1272tt.jpg","null","mooney2","image-keyboard-response","18","245787","0.0-6.0-5.1","3134660","co39343","norming","","","","","","",""
"6426.4649999999965","","","post_reveal_questions","survey-likert","19","252214","0.0-6.0-6.1","3134660","co39343","norming","","","{""aha"":0}","[0]","../img/tt/1272tt.jpg","",""
"null","<div style=""font-size:60px;""> </div>","null","fixation","html-keyboard-response","20","252417","0.0-6.0-0.2","3134660","co39343","norming","","","","","","",""
"null","../img/tt/010tt.jpg","null","mooney1","image-keyboard-response","21","255418","0.0-6.0-1.2","3134660","co39343","norming","","","","","","",""
"6139.849999999889","","","post_mooney1_questions","survey-likert","22","261559","0.0-6.0-2.2","3134660","co39343","norming","","","{""curiosity"":5,""confidence"":1}","[0,1]","../img/tt/010tt.jpg","",""
"10046.080000000075","","","recognition","survey-text","23","271607","0.0-6.0-3.2","3134660","co39343","norming","","","{""guess"":""naked lady""}","","../img/tt/010tt.jpg","",""
"null","../img/gs/010gs.jpg","null","reveal","image-keyboard-response","24","273616","0.0-6.0-4.2","3134660","co39343","norming","","","","","","",""
"null","../img/tt/010tt.jpg","null","mooney2","image-keyboard-response","25","275626","0.0-6.0-5.2","3134660","co39343","norming","","","","","","",""
"4345.975000000093","","","post_reveal_questions","survey-likert","26","279975","0.0-6.0-6.2","3134660","co39343","norming","","","{""aha"":3}","[0]","../img/tt/010tt.jpg","",""
"null","<div style=""font-size:60px;""> </div>","null","fixation","html-keyboard-response","27","280176","0.0-6.0-0.3","3134660","co39343","norming","","","","","","",""
"null","../img/tt/1290tt.jpg","null","mooney1","image-keyboard-response","28","283188","0.0-6.0-1.3","3134660","co39343","norming","","","","","","",""
"5744.479999999923","","","post_mooney1_questions","survey-likert","29","288929","0.0-6.0-2.3","3134660","co39343","norming","","","{""curiosity"":4,""confidence"":0}","[0,1]","../img/tt/1290tt.jpg","",""
"4341.994999999995","","","recognition","survey-text","30","293272","0.0-6.0-3.3","3134660","co39343","norming","","","{""guess"":""pineapple""}","","../img/tt/1290tt.jpg","",""
"null","../img/gs/1290gs.jpg","null","reveal","image-keyboard-response","31","295279","0.0-6.0-4.3","3134660","co39343","norming","","","","","","",""
"null","../img/tt/1290tt.jpg","null","mooney2","image-keyboard-response","32","297282","0.0-6.0-5.3","3134660","co39343","norming","","","","","","",""
"3278.219999999914","","","post_reveal_questions","survey-likert","33","300561","0.0-6.0-6.3","3134660","co39343","norming","","","{""aha"":3}","[0]","../img/tt/1290tt.jpg","",""
"null","<div style=""font-size:60px;""> </div>","null","fixation","html-keyboard-response","34","300763","0.0-6.0-0.4","3134660","co39343","norming","","","","","","",""
"null","../img/tt/584tt.jpg","null","mooney1","image-keyboard-response","35","303771","0.0-6.0-1.4","3134660","co39343","norming","","","","","","",""
"4778.729999999981","","","post_mooney1_questions","survey-likert","36","308553","0.0-6.0-2.4","3134660","co39343","norming","","","{""curiosity"":4,""confidence"":0}","[0,1]","../img/tt/584tt.jpg","",""
"8461.815000000002","","","recognition","survey-text","37","317016","0.0-6.0-3.4","3134660","co39343","norming","","","{""guess"":""flowers""}","","../img/tt/584tt.jpg","",""
"null","../img/gs/584gs.jpg","null","reveal","image-keyboard-response","38","319017","0.0-6.0-4.4","3134660","co39343","norming","","","","","","",""
"null","../img/tt/584tt.jpg","null","mooney2","image-keyboard-response","39","321028","0.0-6.0-5.4","3134660","co39343","norming","","","","","","",""
"3228.0899999999674","","","post_reveal_questions","survey-likert","40","324257","0.0-6.0-6.4","3134660","co39343","norming","","","{""aha"":3}","[0]","../img/tt/584tt.jpg","",""
"null","<div style=""font-size:60px;""> </div>","null","fixation","html-keyboard-response","41","324463","0.0-6.0-0.5","3134660","co39343","norming","","","","","","",""
"null","../img/tt/007tt.jpg","null","mooney1","image-keyboard-response","42","327472","0.0-6.0-1.5","3134660","co39343","norming","","","","","","",""
"4806.4899999999325","","","post_mooney1_questions","survey-likert","43","332281","0.0-6.0-2.5","3134660","co39343","norming","","","{""curiosity"":4,""confidence"":0}","[0,1]","../img/tt/007tt.jpg","",""
"5398.15499999997","","","recognition","survey-text","44","337681","0.0-6.0-3.5","3134660","co39343","norming","","","{""guess"":""""}","","../img/tt/007tt.jpg","",""
"null","../img/gs/007gs.jpg","null","reveal","image-keyboard-response","45","339683","0.0-6.0-4.5","3134660","co39343","norming","","","","","","",""
"null","../img/tt/007tt.jpg","null","mooney2","image-keyboard-response","46","341693","0.0-6.0-5.5","3134660","co39343","norming","","","","","","",""
"4522.929999999993","","","post_reveal_questions","survey-likert","47","346216","0.0-6.0-6.5","3134660","co39343","norming","","","{""aha"":4}","[0]","../img/tt/007tt.jpg","",""
"null","<div style=""font-size:60px;""> </div>","null","fixation","html-keyboard-response","48","346424","0.0-6.0-0.6","3134660","co39343","norming","","","","","","",""
"null","../img/tt/1055tt.jpg","null","mooney1","image-keyboard-response","49","349440","0.0-6.0-1.6","3134660","co39343","norming","","","","","","",""
"4717.039999999979","","","post_mooney1_questions","survey-likert","50","354160","0.0-6.0-2.6","3134660","co39343","norming","","","{""curiosity"":4,""confidence"":0}","[0,1]","../img/tt/1055tt.jpg","",""
"5214.1350000000675","","","recognition","survey-text","51","359375","0.0-6.0-3.6","3134660","co39343","norming","","","{""guess"":""an egg""}","","../img/tt/1055tt.jpg","",""
"null","../img/gs/1055gs.jpg","null","reveal","image-keyboard-response","52","361383","0.0-6.0-4.6","3134660","co39343","norming","","","","","","",""
"null","../img/tt/1055tt.jpg","null","mooney2","image-keyboard-response","53","363393","0.0-6.0-5.6","3134660","co39343","norming","","","","","","",""
"2356.6300000000047","","","post_reveal_questions","survey-likert","54","365751","0.0-6.0-6.6","3134660","co39343","norming","","","{""aha"":3}","[0]","../img/tt/1055tt.jpg","",""
"null","<div style=""font-size:60px;""> </div>","null","fixation","html-keyboard-response","55","365961","0.0-6.0-0.7","3134660","co39343","norming","","","","","","",""
"null","../img/tt/1143tt.jpg","null","mooney1","image-keyboard-response","56","368970","0.0-6.0-1.7","3134660","co39343","norming","","","","","","",""
"5323.0599999999395","","","post_mooney1_questions","survey-likert","57","374296","0.0-6.0-2.7","3134660","co39343","norming","","","{""curiosity"":4,""confidence"":3}","[0,1]","../img/tt/1143tt.jpg","",""
"13006.27999999997","","","recognition","survey-text","58","387304","0.0-6.0-3.7","3134660","co39343","norming","","","{""guess"":""a man riding a hometrainer""}","","../img/tt/1143tt.jpg","",""
"null","../img/gs/1143gs.jpg","null","reveal","image-keyboard-response","59","389310","0.0-6.0-4.7","3134660","co39343","norming","","","","","","",""
"null","../img/tt/1143tt.jpg","null","mooney2","image-keyboard-response","60","391318","0.0-6.0-5.7","3134660","co39343","norming","","","","","","",""
"4510.635000000126","","","post_reveal_questions","survey-likert","61","395831","0.0-6.0-6.7","3134660","co39343","norming","","","{""aha"":2}","[0]","../img/tt/1143tt.jpg","",""
"null","<div style=""font-size:60px;""> </div>","null","fixation","html-keyboard-response","62","396032","0.0-6.0-0.8","3134660","co39343","norming","","","","","","",""
"null","../img/tt/599tt.jpg","null","mooney1","image-keyboard-response","63","399036","0.0-6.0-1.8","3134660","co39343","norming","","","","","","",""
"4480.64499999996","","","post_mooney1_questions","survey-likert","64","403520","0.0-6.0-2.8","3134660","co39343","norming","","","{""curiosity"":5,""confidence"":1}","[0,1]","../img/tt/599tt.jpg","",""
"18878.40499999991","","","recognition","survey-text","65","422392","0.0-6.0-3.8","3134660","co39343","norming","","","{""guess"":""someone with scarf around the face""}","","../img/tt/599tt.jpg","",""
"null","../img/gs/599gs.jpg","null","reveal","image-keyboard-response","66","424398","0.0-6.0-4.8","3134660","co39343","norming","","","","","","",""
"null","../img/tt/599tt.jpg","null","mooney2","image-keyboard-response","67","426405","0.0-6.0-5.8","3134660","co39343","norming","","","","","","",""
"2200.4000000000233","","","post_reveal_questions","survey-likert","68","428607","0.0-6.0-6.8","3134660","co39343","norming","","","{""aha"":5}","[0]","../img/tt/599tt.jpg","",""
"null","<div style=""font-size:60px;""> </div>","null","fixation","html-keyboard-response","69","428812","0.0-6.0-0.9","3134660","co39343","norming","","","","","","",""
"null","../img/tt/1191tt.jpg","null","mooney1","image-keyboard-response","70","431823","0.0-6.0-1.9","3134660","co39343","norming","","","","","","",""
"4710.09500000003","","","post_mooney1_questions","survey-likert","71","436536","0.0-6.0-2.9","3134660","co39343","norming","","","{""curiosity"":5,""confidence"":1}","[0,1]","../img/tt/1191tt.jpg","",""
"6526.160000000033","","","recognition","survey-text","72","443064","0.0-6.0-3.9","3134660","co39343","norming","","","{""guess"":""two horses""}","","../img/tt/1191tt.jpg","",""
"null","../img/gs/1191gs.jpg","null","reveal","image-keyboard-response","73","445066","0.0-6.0-4.9","3134660","co39343","norming","","","","","","",""
"null","../img/tt/1191tt.jpg","null","mooney2","image-keyboard-response","74","447071","0.0-6.0-5.9","3134660","co39343","norming","","","","","","",""
"2150.2150000000256","","","post_reveal_questions","survey-likert","75","449224","0.0-6.0-6.9","3134660","co39343","norming","","","{""aha"":5}","[0]","../img/tt/1191tt.jpg","",""
"null","<div style=""font-size:60px;""> </div>","null","fixation","html-keyboard-response","76","449434","0.0-6.0-0.10","3134660","co39343","norming","","","","","","",""
"null","../img/tt/418tt.jpg","null","mooney1","image-keyboard-response","77","452444","0.0-6.0-1.10","3134660","co39343","norming","","","","","","",""
"4586.755000000005","","","post_mooney1_questions","survey-likert","78","457032","0.0-6.0-2.10","3134660","co39343","norming","","","{""curiosity"":4,""confidence"":1}","[0,1]","../img/tt/418tt.jpg","",""
"33756.77000000008","","","recognition","survey-text","79","490790","0.0-6.0-3.10","3134660","co39343","norming","","","{""guess"":""bovenaanzicht van iemands hoofd""}","","../img/tt/418tt.jpg","",""
"null","../img/gs/418gs.jpg","null","reveal","image-keyboard-response","80","492790","0.0-6.0-4.10","3134660","co39343","norming","","","","","","",""
"null","../img/tt/418tt.jpg","null","mooney2","image-keyboard-response","81","494799","0.0-6.0-5.10","3134660","co39343","norming","","","","","","",""
"2902.0250000000815","","","post_reveal_questions","survey-likert","82","497702","0.0-6.0-6.10","3134660","co39343","norming","","","{""aha"":5}","[0]","../img/tt/418tt.jpg","",""
"null","<div style=""font-size:60px;""> </div>","null","fixation","html-keyboard-response","83","497913","0.0-6.0-0.11","3134660","co39343","norming","","","","","","",""
"null","../img/tt/1181tt.jpg","null","mooney1","image-keyboard-response","84","500916","0.0-6.0-1.11","3134660","co39343","norming","","","","","","",""
"6721.069999999949","","","post_mooney1_questions","survey-likert","85","507638","0.0-6.0-2.11","3134660","co39343","norming","","","{""curiosity"":5,""confidence"":2}","[0,1]","../img/tt/1181tt.jpg","",""
"15062.170000000042","","","recognition","survey-text","86","522702","0.0-6.0-3.11","3134660","co39343","norming","","","{""guess"":""mensen op een tribune, knuffel""}","","../img/tt/1181tt.jpg","",""
"null","../img/gs/1181gs.jpg","null","reveal","image-keyboard-response","87","524711","0.0-6.0-4.11","3134660","co39343","norming","","","","","","",""
"null","../img/tt/1181tt.jpg","null","mooney2","image-keyboard-response","88","526720","0.0-6.0-5.11","3134660","co39343","norming","","","","","","",""
"2571.090000000084","","","post_reveal_questions","survey-likert","89","529294","0.0-6.0-6.11","3134660","co39343","norming","","","{""aha"":4}","[0]","../img/tt/1181tt.jpg","",""
"null","<div style=""font-size:60px;""> </div>","null","fixation","html-keyboard-response","90","529496","0.0-6.0-0.12","3134660","co39343","norming","","","","","","",""
"null","../img/tt/456tt.jpg","null","mooney1","image-keyboard-response","91","532511","0.0-6.0-1.12","3134660","co39343","norming","","","","","","",""
"3931.5999999999767","","","post_mooney1_questions","survey-likert","92","536445","0.0-6.0-2.12","3134660","co39343","norming","","","{""curiosity"":5,""confidence"":0}","[0,1]","../img/tt/456tt.jpg","",""
"678.140000000014","","","recognition","survey-text","93","537125","0.0-6.0-3.12","3134660","co39343","norming","","","{""guess"":""""}","","../img/tt/456tt.jpg","",""
"null","../img/gs/456gs.jpg","null","reveal","image-keyboard-response","94","539128","0.0-6.0-4.12","3134660","co39343","norming","","","","","","",""
"null","../img/tt/456tt.jpg","null","mooney2","image-keyboard-response","95","541131","0.0-6.0-5.12","3134660","co39343","norming","","","","","","",""
"1935.5299999999115","","","post_reveal_questions","survey-likert","96","543069","0.0-6.0-6.12","3134660","co39343","norming","","","{""aha"":5}","[0]","../img/tt/456tt.jpg","",""
"null","<div style=""font-size:60px;""> </div>","null","fixation","html-keyboard-response","97","543270","0.0-6.0-0.13","3134660","co39343","norming","","","","","","",""
"null","../img/tt/353tt.jpg","null","mooney1","image-keyboard-response","98","546275","0.0-6.0-1.13","3134660","co39343","norming","","","","","","",""
"6879.645000000019","","","post_mooney1_questions","survey-likert","99","553157","0.0-6.0-2.13","3134660","co39343","norming","","","{""curiosity"":5,""confidence"":0}","[0,1]","../img/tt/353tt.jpg","",""
"16485.795000000042","","","recognition","survey-text","100","569645","0.0-6.0-3.13","3134660","co39343","norming","","","{""guess"":""pinguïn""}","","../img/tt/353tt.jpg","",""
"null","../img/gs/353gs.jpg","null","reveal","image-keyboard-response","101","571654","0.0-6.0-4.13","3134660","co39343","norming","","","","","","",""
"null","../img/tt/353tt.jpg","null","mooney2","image-keyboard-response","102","573656","0.0-6.0-5.13","3134660","co39343","norming","","","","","","",""
"8026.344999999972","","","post_reveal_questions","survey-likert","103","581685","0.0-6.0-6.13","3134660","co39343","norming","","","{""aha"":6}","[0]","../img/tt/353tt.jpg","",""
"null","<div style=""font-size:60px;""> </div>","null","fixation","html-keyboard-response","104","581891","0.0-6.0-0.14","3134660","co39343","norming","","","","","","",""
"null","../img/tt/1260tt.jpg","null","mooney1","image-keyboard-response","105","584903","0.0-6.0-1.14","3134660","co39343","norming","","","","","","",""
"4149.20000000007","","","post_mooney1_questions","survey-likert","106","589053","0.0-6.0-2.14","3134660","co39343","norming","","","{""curiosity"":5,""confidence"":0}","[0,1]","../img/tt/1260tt.jpg","",""
"821.6799999999348","","","recognition","survey-text","107","589877","0.0-6.0-3.14","3134660","co39343","norming","","","{""guess"":""""}","","../img/tt/1260tt.jpg","",""
"null","../img/gs/1260gs.jpg","null","reveal","image-keyboard-response","108","591887","0.0-6.0-4.14","3134660","co39343","norming","","","","","","",""
"null","../img/tt/1260tt.jpg","null","mooney2","image-keyboard-response","109","593889","0.0-6.0-5.14","3134660","co39343","norming","","","","","","",""
"6593.640000000014","","","post_reveal_questions","survey-likert","110","600485","0.0-6.0-6.14","3134660","co39343","norming","","","{""aha"":2}","[0]","../img/tt/1260tt.jpg","",""
"null","<div style=""font-size:60px;""> </div>","null","fixation","html-keyboard-response","111","600694","0.0-6.0-0.15","3134660","co39343","norming","","","","","","",""
"null","../img/tt/534tt.jpg","null","mooney1","image-keyboard-response","112","603698","0.0-6.0-1.15","3134660","co39343","norming","","","","","","",""
"4033.034999999916","","","post_mooney1_questions","survey-likert","113","607734","0.0-6.0-2.15","3134660","co39343","norming","","","{""curiosity"":5,""confidence"":1}","[0,1]","../img/tt/534tt.jpg","",""
"4142.140000000014","","","recognition","survey-text","114","611877","0.0-6.0-3.15","3134660","co39343","norming","","","{""guess"":""cactus""}","","../img/tt/534tt.jpg","",""
"null","../img/gs/534gs.jpg","null","reveal","image-keyboard-response","115","613880","0.0-6.0-4.15","3134660","co39343","norming","","","","","","",""
"null","../img/tt/534tt.jpg","null","mooney2","image-keyboard-response","116","615885","0.0-6.0-5.15","3134660","co39343","norming","","","","","","",""
"2550.234999999986","","","post_reveal_questions","survey-likert","117","618437","0.0-6.0-6.15","3134660","co39343","norming","","","{""aha"":5}","[0]","../img/tt/534tt.jpg","",""
"null","<div style=""font-size:60px;""> </div>","null","fixation","html-keyboard-response","118","618645","0.0-6.0-0.16","3134660","co39343","norming","","","","","","",""
"null","../img/tt/1087tt.jpg","null","mooney1","image-keyboard-response","119","621653","0.0-6.0-1.16","3134660","co39343","norming","","","","","","",""
"3917.269999999902","","","post_mooney1_questions","survey-likert","120","625573","0.0-6.0-2.16","3134660","co39343","norming","","","{""curiosity"":4,""confidence"":2}","[0,1]","../img/tt/1087tt.jpg","",""
"9741.919999999925","","","recognition","survey-text","121","635317","0.0-6.0-3.16","3134660","co39343","norming","","","{""guess"":""schapen""}","","../img/tt/1087tt.jpg","",""
"null","../img/gs/1087gs.jpg","null","reveal","image-keyboard-response","122","637318","0.0-6.0-4.16","3134660","co39343","norming","","","","","","",""
"null","../img/tt/1087tt.jpg","null","mooney2","image-keyboard-response","123","639328","0.0-6.0-5.16","3134660","co39343","norming","","","","","","",""
"5714.415000000037","","","post_reveal_questions","survey-likert","124","645045","0.0-6.0-6.16","3134660","co39343","norming","","","{""aha"":1}","[0]","../img/tt/1087tt.jpg","",""
"null","<div style=""font-size:60px;""> </div>","null","fixation","html-keyboard-response","125","645247","0.0-6.0-0.17","3134660","co39343","norming","","","","","","",""
"null","../img/tt/318tt.jpg","null","mooney1","image-keyboard-response","126","648255","0.0-6.0-1.17","3134660","co39343","norming","","","","","","",""
"5333.45000000007","","","post_mooney1_questions","survey-likert","127","653589","0.0-6.0-2.17","3134660","co39343","norming","","","{""curiosity"":5,""confidence"":1}","[0,1]","../img/tt/318tt.jpg","",""
"23262.50500000012","","","recognition","survey-text","128","676851","0.0-6.0-3.17","3134660","co39343","norming","","","{""guess"":""front seat car, dashboard, stuur""}","","../img/tt/318tt.jpg","",""
"null","../img/gs/318gs.jpg","null","reveal","image-keyboard-response","129","678855","0.0-6.0-4.17","3134660","co39343","norming","","","","","","",""
"null","../img/tt/318tt.jpg","null","mooney2","image-keyboard-response","130","680864","0.0-6.0-5.17","3134660","co39343","norming","","","","","","",""
"977.1950000000652","","","post_reveal_questions","survey-likert","131","681842","0.0-6.0-6.17","3134660","co39343","norming","","","{""aha"":3}","[0]","../img/tt/318tt.jpg","",""
"null","<div style=""font-size:60px;""> </div>","null","fixation","html-keyboard-response","132","682046","0.0-6.0-0.18","3134660","co39343","norming","","","","","","",""
"null","../img/tt/515tt.jpg","null","mooney1","image-keyboard-response","133","685056","0.0-6.0-1.18","3134660","co39343","norming","","","","","","",""
"3367.6699999999255","","","post_mooney1_questions","survey-likert","134","688427","0.0-6.0-2.18","3134660","co39343","norming","","","{""curiosity"":5,""confidence"":0}","[0,1]","../img/tt/515tt.jpg","",""
"1134.2449999999953","","","recognition","survey-text","135","689562","0.0-6.0-3.18","3134660","co39343","norming","","","{""guess"":""""}","","../img/tt/515tt.jpg","",""
"null","../img/gs/515gs.jpg","null","reveal","image-keyboard-response","136","691564","0.0-6.0-4.18","3134660","co39343","norming","","","","","","",""
"null","../img/tt/515tt.jpg","null","mooney2","image-keyboard-response","137","693571","0.0-6.0-5.18","3134660","co39343","norming","","","","","","",""
"4149.5650000000605","","","post_reveal_questions","survey-likert","138","697722","0.0-6.0-6.18","3134660","co39343","norming","","","{""aha"":2}","[0]","../img/tt/515tt.jpg","",""
"null","<div style=""font-size:60px;""> </div>","null","fixation","html-keyboard-response","139","697924","0.0-6.0-0.19","3134660","co39343","norming","","","","","","",""
"null","../img/tt/517tt.jpg","null","mooney1","image-keyboard-response","140","700929","0.0-6.0-1.19","3134660","co39343","norming","","","","","","",""
"3879.019999999902","","","post_mooney1_questions","survey-likert","141","704810","0.0-6.0-2.19","3134660","co39343","norming","","","{""curiosity"":5,""confidence"":2}","[0,1]","../img/tt/517tt.jpg","",""
"2614.4649999999674","","","recognition","survey-text","142","707426","0.0-6.0-3.19","3134660","co39343","norming","","","{""guess"":""panda""}","","../img/tt/517tt.jpg","",""
"null","../img/gs/517gs.jpg","null","reveal","image-keyboard-response","143","709427","0.0-6.0-4.19","3134660","co39343","norming","","","","","","",""
"null","../img/tt/517tt.jpg","null","mooney2","image-keyboard-response","144","711431","0.0-6.0-5.19","3134660","co39343","norming","","","","","","",""
"4416.584999999963","","","post_reveal_questions","survey-likert","145","715850","0.0-6.0-6.19","3134660","co39343","norming","","","{""aha"":4}","[0]","../img/tt/517tt.jpg","",""
"null","<div style=""font-size:60px;""> </div>","null","fixation","html-keyboard-response","146","716055","0.0-6.0-0.20","3134660","co39343","norming","","","","","","",""
"null","../img/tt/1148tt.jpg","null","mooney1","image-keyboard-response","147","719058","0.0-6.0-1.20","3134660","co39343","norming","","","","","","",""
"5984.824999999953","","","post_mooney1_questions","survey-likert","148","725045","0.0-6.0-2.20","3134660","co39343","norming","","","{""curiosity"":4,""confidence"":2}","[0,1]","../img/tt/1148tt.jpg","",""
"18350.31500000006","","","recognition","survey-text","149","743397","0.0-6.0-3.20","3134660","co39343","norming","","","{""guess"":""iemand in een go kart""}","","../img/tt/1148tt.jpg","",""
"null","../img/gs/1148gs.jpg","null","reveal","image-keyboard-response","150","745404","0.0-6.0-4.20","3134660","co39343","norming","","","","","","",""
"null","../img/tt/1148tt.jpg","null","mooney2","image-keyboard-response","151","747407","0.0-6.0-5.20","3134660","co39343","norming","","","","","","",""
"3084.319999999949","","","post_reveal_questions","survey-likert","152","750493","0.0-6.0-6.20","3134660","co39343","norming","","","{""aha"":4}","[0]","../img/tt/1148tt.jpg","",""
"null","<div style=""font-size:60px;""> </div>","null","fixation","html-keyboard-response","153","750698","0.0-6.0-0.21","3134660","co39343","norming","","","","","","",""
"null","../img/tt/1024tt.jpg","null","mooney1","image-keyboard-response","154","753711","0.0-6.0-1.21","3134660","co39343","norming","","","","","","",""
"4091.445000000065","","","post_mooney1_questions","survey-likert","155","757805","0.0-6.0-2.21","3134660","co39343","norming","","","{""curiosity"":5,""confidence"":1}","[0,1]","../img/tt/1024tt.jpg","",""
"4062.2500000001164","","","recognition","survey-text","156","761869","0.0-6.0-3.21","3134660","co39343","norming","","","{""guess"":""persoon""}","","../img/tt/1024tt.jpg","",""
"null","../img/gs/1024gs.jpg","null","reveal","image-keyboard-response","157","763877","0.0-6.0-4.21","3134660","co39343","norming","","","","","","",""
"null","../img/tt/1024tt.jpg","null","mooney2","image-keyboard-response","158","765883","0.0-6.0-5.21","3134660","co39343","norming","","","","","","",""
"1887.0899999999674","","","post_reveal_questions","survey-likert","159","767773","0.0-6.0-6.21","3134660","co39343","norming","","","{""aha"":3}","[0]","../img/tt/1024tt.jpg","",""
"null","<div style=""font-size:60px;""> </div>","null","fixation","html-keyboard-response","160","767975","0.0-6.0-0.22","3134660","co39343","norming","","","","","","",""
"null","../img/tt/1211tt.jpg","null","mooney1","image-keyboard-response","161","770981","0.0-6.0-1.22","3134660","co39343","norming","","","","","","",""
"4501.79999999993","","","post_mooney1_questions","survey-likert","162","775485","0.0-6.0-2.22","3134660","co39343","norming","","","{""curiosity"":6,""confidence"":0}","[0,1]","../img/tt/1211tt.jpg","",""
"1845.765000000014","","","recognition","survey-text","163","777324","0.0-6.0-3.22","3134660","co39343","norming","","","{""guess"":""""}","","../img/tt/1211tt.jpg","",""
"null","../img/gs/1211gs.jpg","null","reveal","image-keyboard-response","164","779332","0.0-6.0-4.22","3134660","co39343","norming","","","","","","",""
"null","../img/tt/1211tt.jpg","null","mooney2","image-keyboard-response","165","781335","0.0-6.0-5.22","3134660","co39343","norming","","","","","","",""
"1778.9850000001024","","","post_reveal_questions","survey-likert","166","783116","0.0-6.0-6.22","3134660","co39343","norming","","","{""aha"":2}","[0]","../img/tt/1211tt.jpg","",""
"null","<div style=""font-size:60px;""> </div>","null","fixation","html-keyboard-response","167","783321","0.0-6.0-0.23","3134660","co39343","norming","","","","","","",""
"null","../img/tt/567tt.jpg","null","mooney1","image-keyboard-response","168","786323","0.0-6.0-1.23","3134660","co39343","norming","","","","","","",""
"5341.760000000009","","","post_mooney1_questions","survey-likert","169","791668","0.0-6.0-2.23","3134660","co39343","norming","","","{""curiosity"":3,""confidence"":6}","[0,1]","../img/tt/567tt.jpg","",""
"4054.109999999986","","","recognition","survey-text","170","795724","0.0-6.0-3.23","3134660","co39343","norming","","","{""guess"":""broodrooster""}","","../img/tt/567tt.jpg","",""
"null","../img/gs/567gs.jpg","null","reveal","image-keyboard-response","171","797731","0.0-6.0-4.23","3134660","co39343","norming","","","","","","",""
"null","../img/tt/567tt.jpg","null","mooney2","image-keyboard-response","172","799733","0.0-6.0-5.23","3134660","co39343","norming","","","","","","",""
"4597.179999999935","","","post_reveal_questions","survey-likert","173","804332","0.0-6.0-6.23","3134660","co39343","norming","","","{""aha"":0}","[0]","../img/tt/567tt.jpg","",""
"null","<div style=""font-size:60px;""> </div>","null","fixation","html-keyboard-response","174","804542","0.0-6.0-0.24","3134660","co39343","norming","","","","","","",""
"null","../img/tt/085tt.jpg","null","mooney1","image-keyboard-response","175","807551","0.0-6.0-1.24","3134660","co39343","norming","","","","","","",""
"5746.3450000000885","","","post_mooney1_questions","survey-likert","176","813300","0.0-6.0-2.24","3134660","co39343","norming","","","{""curiosity"":6,""confidence"":1}","[0,1]","../img/tt/085tt.jpg","",""
"6150.0299999999115","","","recognition","survey-text","177","819452","0.0-6.0-3.24","3134660","co39343","norming","","","{""guess"":""bidsprinkhaan""}","","../img/tt/085tt.jpg","",""
"null","../img/gs/085gs.jpg","null","reveal","image-keyboard-response","178","821455","0.0-6.0-4.24","3134660","co39343","norming","","","","","","",""
"null","../img/tt/085tt.jpg","null","mooney2","image-keyboard-response","179","823459","0.0-6.0-5.24","3134660","co39343","norming","","","","","","",""
"4966.890000000014","","","post_reveal_questions","survey-likert","180","828428","0.0-6.0-6.24","3134660","co39343","norming","","","{""aha"":1}","[0]","../img/tt/085tt.jpg","",""
"null","<div style=""font-size:60px;""> </div>","null","fixation","html-keyboard-response","181","828632","0.0-6.0-0.25","3134660","co39343","norming","","","","","","",""
"null","../img/tt/036tt.jpg","null","mooney1","image-keyboard-response","182","831640","0.0-6.0-1.25","3134660","co39343","norming","","","","","","",""
"4712.914999999921","","","post_mooney1_questions","survey-likert","183","836356","0.0-6.0-2.25","3134660","co39343","norming","","","{""curiosity"":6,""confidence"":1}","[0,1]","../img/tt/036tt.jpg","",""
"3933.954999999958","","","recognition","survey-text","184","840301","0.0-6.0-3.25","3134660","co39343","norming","","","{""guess"":""bliksem""}","","../img/tt/036tt.jpg","",""
"null","../img/gs/036gs.jpg","null","reveal","image-keyboard-response","185","842303","0.0-6.0-4.25","3134660","co39343","norming","","","","","","",""
"null","../img/tt/036tt.jpg","null","mooney2","image-keyboard-response","186","844305","0.0-6.0-5.25","3134660","co39343","norming","","","","","","",""
"3033.269999999902","","","post_reveal_questions","survey-likert","187","847341","0.0-6.0-6.25","3134660","co39343","norming","","","{""aha"":3}","[0]","../img/tt/036tt.jpg","",""
"null","<div style=""font-size:60px;""> </div>","null","fixation","html-keyboard-response","188","847550","0.0-6.0-0.26","3134660","co39343","norming","","","","","","",""
"null","../img/tt/1044tt.jpg","null","mooney1","image-keyboard-response","189","850560","0.0-6.0-1.26","3134660","co39343","norming","","","","","","",""
"6450.704999999958","","","post_mooney1_questions","survey-likert","190","857013","0.0-6.0-2.26","3134660","co39343","norming","","","{""curiosity"":6,""confidence"":1}","[0,1]","../img/tt/1044tt.jpg","",""
"1781.5399999999208","","","recognition","survey-text","191","858797","0.0-6.0-3.26","3134660","co39343","norming","","","{""guess"":""koe""}","","../img/tt/1044tt.jpg","",""
"null","../img/gs/1044gs.jpg","null","reveal","image-keyboard-response","192","860798","0.0-6.0-4.26","3134660","co39343","norming","","","","","","",""
"null","../img/tt/1044tt.jpg","null","mooney2","image-keyboard-response","193","862802","0.0-6.0-5.26","3134660","co39343","norming","","","","","","",""
"2761.6500000000233","","","post_reveal_questions","survey-likert","194","865565","0.0-6.0-6.26","3134660","co39343","norming","","","{""aha"":4}","[0]","../img/tt/1044tt.jpg","",""
"null","<div style=""font-size:60px;""> </div>","null","fixation","html-keyboard-response","195","865774","0.0-6.0-0.27","3134660","co39343","norming","","","","","","",""
"null","../img/tt/412tt.jpg","null","mooney1","image-keyboard-response","196","868779","0.0-6.0-1.27","3134660","co39343","norming","","","","","","",""
"4215.5299999999115","","","post_mooney1_questions","survey-likert","197","872997","0.0-6.0-2.27","3134660","co39343","norming","","","{""curiosity"":6,""confidence"":1}","[0,1]","../img/tt/412tt.jpg","",""
"11014.225000000093","","","recognition","survey-text","198","884013","0.0-6.0-3.27","3134660","co39343","norming","","","{""guess"":""flesje parfum""}","","../img/tt/412tt.jpg","",""
"null","../img/gs/412gs.jpg","null","reveal","image-keyboard-response","199","886021","0.0-6.0-4.27","3134660","co39343","norming","","","","","","",""
"null","../img/tt/412tt.jpg","null","mooney2","image-keyboard-response","200","888024","0.0-6.0-5.27","3134660","co39343","norming","","","","","","",""
"2202.4599999999627","","","post_reveal_questions","survey-likert","201","890229","0.0-6.0-6.27","3134660","co39343","norming","","","{""aha"":4}","[0]","../img/tt/412tt.jpg","",""
"null","<div style=""font-size:60px;""> </div>","null","fixation","html-keyboard-response","202","890434","0.0-6.0-0.28","3134660","co39343","norming","","","","","","",""
"null","../img/tt/1128tt.jpg","null","mooney1","image-keyboard-response","203","893440","0.0-6.0-1.28","3134660","co39343","norming","","","","","","",""
"3617.884999999893","","","post_mooney1_questions","survey-likert","204","897061","0.0-6.0-2.28","3134660","co39343","norming","","","{""curiosity"":5,""confidence"":2}","[0,1]","../img/tt/1128tt.jpg","",""
"2845.944999999949","","","recognition","survey-text","205","899909","0.0-6.0-3.28","3134660","co39343","norming","","","{""guess"":""panda""}","","../img/tt/1128tt.jpg","",""
"null","../img/gs/1128gs.jpg","null","reveal","image-keyboard-response","206","901914","0.0-6.0-4.28","3134660","co39343","norming","","","","","","",""
"null","../img/tt/1128tt.jpg","null","mooney2","image-keyboard-response","207","903920","0.0-6.0-5.28","3134660","co39343","norming","","","","","","",""
"2068.0399999998044","","","post_reveal_questions","survey-likert","208","905989","0.0-6.0-6.28","3134660","co39343","norming","","","{""aha"":5}","[0]","../img/tt/1128tt.jpg","",""
"null","<div style=""font-size:60px;""> </div>","null","fixation","html-keyboard-response","209","906190","0.0-6.0-0.29","3134660","co39343","norming","","","","","","",""
"null","../img/tt/435tt.jpg","null","mooney1","image-keyboard-response","210","909198","0.0-6.0-1.29","3134660","co39343","norming","","","","","","",""
"7845.085000000196","","","post_mooney1_questions","survey-likert","211","917045","0.0-6.0-2.29","3134660","co39343","norming","","","{""curiosity"":4,""confidence"":2}","[0,1]","../img/tt/435tt.jpg","",""
"4509.890000000014","","","recognition","survey-text","212","921556","0.0-6.0-3.29","3134660","co39343","norming","","","{""guess"":""pool tafel""}","","../img/tt/435tt.jpg","",""
"null","../img/gs/435gs.jpg","null","reveal","image-keyboard-response","213","923558","0.0-6.0-4.29","3134660","co39343","norming","","","","","","",""
"null","../img/tt/435tt.jpg","null","mooney2","image-keyboard-response","214","925563","0.0-6.0-5.29","3134660","co39343","norming","","","","","","",""
"3760.3799999998882","","","post_reveal_questions","survey-likert","215","929325","0.0-6.0-6.29","3134660","co39343","norming","","","{""aha"":2}","[0]","../img/tt/435tt.jpg","",""
"null","<div style=""font-size:60px;""> </div>","null","fixation","html-keyboard-response","216","929528","0.0-6.0-0.30","3134660","co39343","norming","","","","","","",""
"null","../img/tt/001tt.jpg","null","mooney1","image-keyboard-response","217","932534","0.0-6.0-1.30","3134660","co39343","norming","","","","","","",""
"4285.980000000098","","","post_mooney1_questions","survey-likert","218","936821","0.0-6.0-2.30","3134660","co39343","norming","","","{""curiosity"":6,""confidence"":0}","[0,1]","../img/tt/001tt.jpg","",""
"2310.2200000000885","","","recognition","survey-text","219","939133","0.0-6.0-3.30","3134660","co39343","norming","","","{""guess"":""koe""}","","../img/tt/001tt.jpg","",""
"null","../img/gs/001gs.jpg","null","reveal","image-keyboard-response","220","941143","0.0-6.0-4.30","3134660","co39343","norming","","","","","","",""
"null","../img/tt/001tt.jpg","null","mooney2","image-keyboard-response","221","943144","0.0-6.0-5.30","3134660","co39343","norming","","","","","","",""
"2228.1350000000093","","","post_reveal_questions","survey-likert","222","945373","0.0-6.0-6.30","3134660","co39343","norming","","","{""aha"":2}","[0]","../img/tt/001tt.jpg","",""
"null","<div style=""font-size:60px;""> </div>","null","fixation","html-keyboard-response","223","945574","0.0-6.0-0.31","3134660","co39343","norming","","","","","","",""
"null","../img/tt/1040tt.jpg","null","mooney1","image-keyboard-response","224","948582","0.0-6.0-1.31","3134660","co39343","norming","","","","","","",""
"4389.560000000056","","","post_mooney1_questions","survey-likert","225","952973","0.0-6.0-2.31","3134660","co39343","norming","","","{""curiosity"":6,""confidence"":1}","[0,1]","../img/tt/1040tt.jpg","",""
"3877.954999999958","","","recognition","survey-text","226","956853","0.0-6.0-3.31","3134660","co39343","norming","","","{""guess"":""krokodil""}","","../img/tt/1040tt.jpg","",""
"null","../img/gs/1040gs.jpg","null","reveal","image-keyboard-response","227","958855","0.0-6.0-4.31","3134660","co39343","norming","","","","","","",""
"null","../img/tt/1040tt.jpg","null","mooney2","image-keyboard-response","228","960860","0.0-6.0-5.31","3134660","co39343","norming","","","","","","",""
"2817.17499999993","","","post_reveal_questions","survey-likert","229","963678","0.0-6.0-6.31","3134660","co39343","norming","","","{""aha"":4}","[0]","../img/tt/1040tt.jpg","",""
"null","<div style=""font-size:60px;""> </div>","null","fixation","html-keyboard-response","230","963880","0.0-6.0-0.32","3134660","co39343","norming","","","","","","",""
"null","../img/tt/080tt.jpg","null","mooney1","image-keyboard-response","231","966889","0.0-6.0-1.32","3134660","co39343","norming","","","","","","",""
"5571.445000000065","","","post_mooney1_questions","survey-likert","232","972462","0.0-6.0-2.32","3134660","co39343","norming","","","{""curiosity"":5,""confidence"":3}","[0,1]","../img/tt/080tt.jpg","",""
"7350.234999999986","","","recognition","survey-text","233","979814","0.0-6.0-3.32","3134660","co39343","norming","","","{""guess"":""paddenstoel""}","","../img/tt/080tt.jpg","",""
"null","../img/gs/080gs.jpg","null","reveal","image-keyboard-response","234","981820","0.0-6.0-4.32","3134660","co39343","norming","","","","","","",""
"null","../img/tt/080tt.jpg","null","mooney2","image-keyboard-response","235","983822","0.0-6.0-5.32","3134660","co39343","norming","","","","","","",""
"5069.320000000065","","","post_reveal_questions","survey-likert","236","988894","0.0-6.0-6.32","3134660","co39343","norming","","","{""aha"":3}","[0]","../img/tt/080tt.jpg","",""
"null","<div style=""font-size:60px;""> </div>","null","fixation","html-keyboard-response","237","989100","0.0-6.0-0.33","3134660","co39343","norming","","","","","","",""
"null","../img/tt/1278tt.jpg","null","mooney1","image-keyboard-response","238","992104","0.0-6.0-1.33","3134660","co39343","norming","","","","","","",""
"4333.189999999828","","","post_mooney1_questions","survey-likert","239","996438","0.0-6.0-2.33","3134660","co39343","norming","","","{""curiosity"":5,""confidence"":0}","[0,1]","../img/tt/1278tt.jpg","",""
"3038.0999999999767","","","recognition","survey-text","240","999478","0.0-6.0-3.33","3134660","co39343","norming","","","{""guess"":""bulldog""}","","../img/tt/1278tt.jpg","",""
"null","../img/gs/1278gs.jpg","null","reveal","image-keyboard-response","241","1001484","0.0-6.0-4.33","3134660","co39343","norming","","","","","","",""
"null","../img/tt/1278tt.jpg","null","mooney2","image-keyboard-response","242","1003485","0.0-6.0-5.33","3134660","co39343","norming","","","","","","",""
"3430.32500000007","","","post_reveal_questions","survey-likert","243","1006918","0.0-6.0-6.33","3134660","co39343","norming","","","{""aha"":4}","[0]","../img/tt/1278tt.jpg","",""
"null","<div style=""font-size:60px;""> </div>","null","fixation","html-keyboard-response","244","1007122","0.0-6.0-0.34","3134660","co39343","norming","","","","","","",""
"null","../img/tt/559tt.jpg","null","mooney1","image-keyboard-response","245","1010126","0.0-6.0-1.34","3134660","co39343","norming","","","","","","",""
"6788.54999999993","","","post_mooney1_questions","survey-likert","246","1016918","0.0-6.0-2.34","3134660","co39343","norming","","","{""curiosity"":4,""confidence"":4}","[0,1]","../img/tt/559tt.jpg","",""
"4326.2200000000885","","","recognition","survey-text","247","1021243","0.0-6.0-3.34","3134660","co39343","norming","","","{""guess"":""naaimachine""}","","../img/tt/559tt.jpg","",""
"null","../img/gs/559gs.jpg","null","reveal","image-keyboard-response","248","1023246","0.0-6.0-4.34","3134660","co39343","norming","","","","","","",""
"null","../img/tt/559tt.jpg","null","mooney2","image-keyboard-response","249","1025248","0.0-6.0-5.34","3134660","co39343","norming","","","","","","",""
"4416.860000000102","","","post_reveal_questions","survey-likert","250","1029667","0.0-6.0-6.34","3134660","co39343","norming","","","{""aha"":2}","[0]","../img/tt/559tt.jpg","",""
"null","<div style=""font-size:60px;""> </div>","null","fixation","html-keyboard-response","251","1029878","0.0-6.0-0.35","3134660","co39343","norming","","","","","","",""
"null","../img/tt/1236tt.jpg","null","mooney1","image-keyboard-response","252","1032884","0.0-6.0-1.35","3134660","co39343","norming","","","","","","",""
"6557.97500000021","","","post_mooney1_questions","survey-likert","253","1039443","0.0-6.0-2.35","3134660","co39343","norming","","","{""curiosity"":5,""confidence"":0}","[0,1]","../img/tt/1236tt.jpg","",""
"814.0399999999208","","","recognition","survey-text","254","1040259","0.0-6.0-3.35","3134660","co39343","norming","","","{""guess"":""""}","","../img/tt/1236tt.jpg","",""
"null","../img/gs/1236gs.jpg","null","reveal","image-keyboard-response","255","1042267","0.0-6.0-4.35","3134660","co39343","norming","","","","","","",""
"null","../img/tt/1236tt.jpg","null","mooney2","image-keyboard-response","256","1044268","0.0-6.0-5.35","3134660","co39343","norming","","","","","","",""
"2141.430000000051","","","post_reveal_questions","survey-likert","257","1046411","0.0-6.0-6.35","3134660","co39343","norming","","","{""aha"":2}","[0]","../img/tt/1236tt.jpg","",""
"null","<div style=""font-size:60px;""> </div>","null","fixation","html-keyboard-response","258","1046618","0.0-6.0-0.36","3134660","co39343","norming","","","","","","",""
"null","../img/tt/076tt.jpg","null","mooney1","image-keyboard-response","259","1049622","0.0-6.0-1.36","3134660","co39343","norming","","","","","","",""
"5170.020000000019","","","post_mooney1_questions","survey-likert","260","1054795","0.0-6.0-2.36","3134660","co39343","norming","","","{""curiosity"":5,""confidence"":4}","[0,1]","../img/tt/076tt.jpg","",""
"9550.304999999935","","","recognition","survey-text","261","1064347","0.0-6.0-3.36","3134660","co39343","norming","","","{""guess"":""rolschaatsen""}","","../img/tt/076tt.jpg","",""
"null","../img/gs/076gs.jpg","null","reveal","image-keyboard-response","262","1066349","0.0-6.0-4.36","3134660","co39343","norming","","","","","","",""
"null","../img/tt/076tt.jpg","null","mooney2","image-keyboard-response","263","1068351","0.0-6.0-5.36","3134660","co39343","norming","","","","","","",""
"5113.39000000013","","","post_reveal_questions","survey-likert","264","1073467","0.0-6.0-6.36","3134660","co39343","norming","","","{""aha"":1}","[0]","../img/tt/076tt.jpg","",""
"null","<div style=""font-size:60px;""> </div>","null","fixation","html-keyboard-response","265","1073671","0.0-6.0-0.37","3134660","co39343","norming","","","","","","",""
"null","../img/tt/1262tt.jpg","null","mooney1","image-keyboard-response","266","1076678","0.0-6.0-1.37","3134660","co39343","norming","","","","","","",""
"4745.51500000013","","","post_mooney1_questions","survey-likert","267","1081432","0.0-6.0-2.37","3134660","co39343","norming","","","{""curiosity"":6,""confidence"":0}","[0,1]","../img/tt/1262tt.jpg","",""
"6070.0800000000745","","","recognition","survey-text","268","1087503","0.0-6.0-3.37","3134660","co39343","norming","","","{""guess"":""kreeft""}","","../img/tt/1262tt.jpg","",""
"null","../img/gs/1262gs.jpg","null","reveal","image-keyboard-response","269","1089505","0.0-6.0-4.37","3134660","co39343","norming","","","","","","",""
"null","../img/tt/1262tt.jpg","null","mooney2","image-keyboard-response","270","1091514","0.0-6.0-5.37","3134660","co39343","norming","","","","","","",""
"5386.9199999999255","","","post_reveal_questions","survey-likert","271","1096903","0.0-6.0-6.37","3134660","co39343","norming","","","{""aha"":3}","[0]","../img/tt/1262tt.jpg","",""
"null","<div style=""font-size:60px;""> </div>","null","fixation","html-keyboard-response","272","1097111","0.0-6.0-0.38","3134660","co39343","norming","","","","","","",""
"null","../img/tt/1097tt.jpg","null","mooney1","image-keyboard-response","273","1100117","0.0-6.0-1.38","3134660","co39343","norming","","","","","","",""
"5047.719999999972","","","post_mooney1_questions","survey-likert","274","1105168","0.0-6.0-2.38","3134660","co39343","norming","","","{""curiosity"":5,""confidence"":1}","[0,1]","../img/tt/1097tt.jpg","",""
"11605.754999999655","","","recognition","survey-text","275","1116775","0.0-6.0-3.38","3134660","co39343","norming","","","{""guess"":""persoon met wandelstok""}","","../img/tt/1097tt.jpg","",""
"null","../img/gs/1097gs.jpg","null","reveal","image-keyboard-response","276","1118776","0.0-6.0-4.38","3134660","co39343","norming","","","","","","",""
"null","../img/tt/1097tt.jpg","null","mooney2","image-keyboard-response","277","1120783","0.0-6.0-5.38","3134660","co39343","norming","","","","","","",""
"2725.534999999916","","","post_reveal_questions","survey-likert","278","1123511","0.0-6.0-6.38","3134660","co39343","norming","","","{""aha"":5}","[0]","../img/tt/1097tt.jpg","",""
"null","<div style=""font-size:60px;""> </div>","null","fixation","html-keyboard-response","279","1123717","0.0-6.0-0.39","3134660","co39343","norming","","","","","","",""
"null","../img/tt/094tt.jpg","null","mooney1","image-keyboard-response","280","1126720","0.0-6.0-1.39","3134660","co39343","norming","","","","","","",""
"5268.2949999999255","","","post_mooney1_questions","survey-likert","281","1131992","0.0-6.0-2.39","3134660","co39343","norming","","","{""curiosity"":6,""confidence"":0}","[0,1]","../img/tt/094tt.jpg","",""
"1134.0349999996834","","","recognition","survey-text","282","1133127","0.0-6.0-3.39","3134660","co39343","norming","","","{""guess"":""""}","","../img/tt/094tt.jpg","",""
"null","../img/gs/094gs.jpg","null","reveal","image-keyboard-response","283","1135134","0.0-6.0-4.39","3134660","co39343","norming","","","","","","",""
"null","../img/tt/094tt.jpg","null","mooney2","image-keyboard-response","284","1137136","0.0-6.0-5.39","3134660","co39343","norming","","","","","","",""
"3348.869999999879","","","post_reveal_questions","survey-likert","285","1140492","0.0-6.0-6.39","3134660","co39343","norming","","","{""aha"":3}","[0]","../img/tt/094tt.jpg","",""
"null","<div style=""font-size:60px;""> </div>","null","fixation","html-keyboard-response","286","1140701","0.0-6.0-0.40","3134660","co39343","norming","","","","","","",""
"null","../img/tt/053tt.jpg","null","mooney1","image-keyboard-response","287","1143707","0.0-6.0-1.40","3134660","co39343","norming","","","","","","",""
"4854.270000000019","","","post_mooney1_questions","survey-likert","288","1148564","0.0-6.0-2.40","3134660","co39343","norming","","","{""curiosity"":5,""confidence"":1}","[0,1]","../img/tt/053tt.jpg","",""
"6781.85999999987","","","recognition","survey-text","289","1155348","0.0-6.0-3.40","3134660","co39343","norming","","","{""guess"":""kayak waterval""}","","../img/tt/053tt.jpg","",""
"null","../img/gs/053gs.jpg","null","reveal","image-keyboard-response","290","1157351","0.0-6.0-4.40","3134660","co39343","norming","","","","","","",""
"null","../img/tt/053tt.jpg","null","mooney2","image-keyboard-response","291","1159358","0.0-6.0-5.40","3134660","co39343","norming","","","","","","",""
"4132.720000000205","","","post_reveal_questions","survey-likert","292","1163492","0.0-6.0-6.40","3134660","co39343","norming","","","{""aha"":2}","[0]","../img/tt/053tt.jpg","",""
"null","<div style=""font-size:60px;""> </div>","null","fixation","html-keyboard-response","293","1163700","0.0-6.0-0.41","3134660","co39343","norming","","","","","","",""
"null","../img/tt/1049tt.jpg","null","mooney1","image-keyboard-response","294","1166704","0.0-6.0-1.41","3134660","co39343","norming","","","","","","",""
"4840.39000000013","","","post_mooney1_questions","survey-likert","295","1171548","0.0-6.0-2.41","3134660","co39343","norming","","","{""curiosity"":6,""confidence"":0}","[0,1]","../img/tt/1049tt.jpg","",""
"2646.0749999999534","","","recognition","survey-text","296","1174196","0.0-6.0-3.41","3134660","co39343","norming","","","{""guess"":""""}","","../img/tt/1049tt.jpg","",""
"null","../img/gs/1049gs.jpg","null","reveal","image-keyboard-response","297","1176202","0.0-6.0-4.41","3134660","co39343","norming","","","","","","",""
"null","../img/tt/1049tt.jpg","null","mooney2","image-keyboard-response","298","1178204","0.0-6.0-5.41","3134660","co39343","norming","","","","","","",""
"1524.8850000000093","","","post_reveal_questions","survey-likert","299","1179732","0.0-6.0-6.41","3134660","co39343","norming","","","{""aha"":3}","[0]","../img/tt/1049tt.jpg","",""
"null","<div style=""font-size:60px;""> </div>","null","fixation","html-keyboard-response","300","1179940","0.0-6.0-0.42","3134660","co39343","norming","","","","","","",""
"null","../img/tt/319tt.jpg","null","mooney1","image-keyboard-response","301","1182950","0.0-6.0-1.42","3134660","co39343","norming","","","","","","",""
"7884.139999999898","","","post_mooney1_questions","survey-likert","302","1190836","0.0-6.0-2.42","3134660","co39343","norming","","","{""curiosity"":4,""confidence"":3}","[0,1]","../img/tt/319tt.jpg","",""
"12302.315000000177","","","recognition","survey-text","303","1203138","0.0-6.0-3.42","3134660","co39343","norming","","","{""guess"":""twee paarden of ezels""}","","../img/tt/319tt.jpg","",""
"null","../img/gs/319gs.jpg","null","reveal","image-keyboard-response","304","1205144","0.0-6.0-4.42","3134660","co39343","norming","","","","","","",""
"null","../img/tt/319tt.jpg","null","mooney2","image-keyboard-response","305","1207153","0.0-6.0-5.42","3134660","co39343","norming","","","","","","",""
"2370.464999999851","","","post_reveal_questions","survey-likert","306","1209530","0.0-6.0-6.42","3134660","co39343","norming","","","{""aha"":2}","[0]","../img/tt/319tt.jpg","",""
"null","<div style=""font-size:60px;""> </div>","null","fixation","html-keyboard-response","307","1209733","0.0-6.0-0.43","3134660","co39343","norming","","","","","","",""
"null","../img/tt/1142tt.jpg","null","mooney1","image-keyboard-response","308","1212735","0.0-6.0-1.43","3134660","co39343","norming","","","","","","",""
"6199.074999999953","","","post_mooney1_questions","survey-likert","309","1218938","0.0-6.0-2.43","3134660","co39343","norming","","","{""curiosity"":3,""confidence"":6}","[0,1]","../img/tt/1142tt.jpg","",""
"4894.120000000112","","","recognition","survey-text","310","1223833","0.0-6.0-3.43","3134660","co39343","norming","","","{""guess"":""kogelstoten""}","","../img/tt/1142tt.jpg","",""
"null","../img/gs/1142gs.jpg","null","reveal","image-keyboard-response","311","1225836","0.0-6.0-4.43","3134660","co39343","norming","","","","","","",""
"null","../img/tt/1142tt.jpg","null","mooney2","image-keyboard-response","312","1227847","0.0-6.0-5.43","3134660","co39343","norming","","","","","","",""
"2343.965000000084","","","post_reveal_questions","survey-likert","313","1230193","0.0-6.0-6.43","3134660","co39343","norming","","","{""aha"":5}","[0]","../img/tt/1142tt.jpg","",""
"null","<div style=""font-size:60px;""> </div>","null","fixation","html-keyboard-response","314","1230400","0.0-6.0-0.44","3134660","co39343","norming","","","","","","",""
"null","../img/tt/552tt.jpg","null","mooney1","image-keyboard-response","315","1233406","0.0-6.0-1.44","3134660","co39343","norming","","","","","","",""
"3864.9699999997392","","","post_mooney1_questions","survey-likert","316","1237274","0.0-6.0-2.44","3134660","co39343","norming","","","{""curiosity"":5,""confidence"":0}","[0,1]","../img/tt/552tt.jpg","",""
"2422.185000000056","","","recognition","survey-text","317","1239697","0.0-6.0-3.44","3134660","co39343","norming","","","{""guess"":""wc""}","","../img/tt/552tt.jpg","",""
"null","../img/gs/552gs.jpg","null","reveal","image-keyboard-response","318","1241702","0.0-6.0-4.44","3134660","co39343","norming","","","","","","",""
"null","../img/tt/552tt.jpg","null","mooney2","image-keyboard-response","319","1243705","0.0-6.0-5.44","3134660","co39343","norming","","","","","","",""
"3998.945000000065","","","post_reveal_questions","survey-likert","320","1247705","0.0-6.0-6.44","3134660","co39343","norming","","","{""aha"":3}","[0]","../img/tt/552tt.jpg","",""
"null","<div style=""font-size:60px;""> </div>","null","fixation","html-keyboard-response","321","1247906","0.0-6.0-0.45","3134660","co39343","norming","","","","","","",""
"null","../img/tt/008tt.jpg","null","mooney1","image-keyboard-response","322","1250915","0.0-6.0-1.45","3134660","co39343","norming","","","","","","",""
"4453.84999999986","","","post_mooney1_questions","survey-likert","323","1255370","0.0-6.0-2.45","3134660","co39343","norming","","","{""curiosity"":5,""confidence"":0}","[0,1]","../img/tt/008tt.jpg","",""
"5646.019999999786","","","recognition","survey-text","324","1261022","0.0-6.0-3.45","3134660","co39343","norming","","","{""guess"":""vleugelpiano""}","","../img/tt/008tt.jpg","",""
"null","../img/gs/008gs.jpg","null","reveal","image-keyboard-response","325","1263024","0.0-6.0-4.45","3134660","co39343","norming","","","","","","",""
"null","../img/tt/008tt.jpg","null","mooney2","image-keyboard-response","326","1265028","0.0-6.0-5.45","3134660","co39343","norming","","","","","","",""
"1543.755000000121","","","post_reveal_questions","survey-likert","327","1266574","0.0-6.0-6.45","3134660","co39343","norming","","","{""aha"":3}","[0]","../img/tt/008tt.jpg","",""
"null","<div style=""font-size:60px;""> </div>","null","fixation","html-keyboard-response","328","1266777","0.0-6.0-0.46","3134660","co39343","norming","","","","","","",""
"null","../img/tt/1232tt.jpg","null","mooney1","image-keyboard-response","329","1269780","0.0-6.0-1.46","3134660","co39343","norming","","","","","","",""
"3687.2349999998696","","","post_mooney1_questions","survey-likert","330","1273470","0.0-6.0-2.46","3134660","co39343","norming","","","{""curiosity"":3,""confidence"":3}","[0,1]","../img/tt/1232tt.jpg","",""
"2774.1999999999534","","","recognition","survey-text","331","1276246","0.0-6.0-3.46","3134660","co39343","norming","","","{""guess"":""duif""}","","../img/tt/1232tt.jpg","",""
"null","../img/gs/1232gs.jpg","null","reveal","image-keyboard-response","332","1278248","0.0-6.0-4.46","3134660","co39343","norming","","","","","","",""
"null","../img/tt/1232tt.jpg","null","mooney2","image-keyboard-response","333","1280256","0.0-6.0-5.46","3134660","co39343","norming","","","","","","",""
"3522.905000000028","","","post_reveal_questions","survey-likert","334","1283782","0.0-6.0-6.46","3134660","co39343","norming","","","{""aha"":3}","[0]","../img/tt/1232tt.jpg","",""
"null","<div style=""font-size:60px;""> </div>","null","fixation","html-keyboard-response","335","1283983","0.0-6.0-0.47","3134660","co39343","norming","","","","","","",""
"null","../img/tt/1353tt.jpg","null","mooney1","image-keyboard-response","336","1286993","0.0-6.0-1.47","3134660","co39343","norming","","","","","","",""
"5017.39000000013","","","post_mooney1_questions","survey-likert","337","1292014","0.0-6.0-2.47","3134660","co39343","norming","","","{""curiosity"":5,""confidence"":0}","[0,1]","../img/tt/1353tt.jpg","",""
"3461.840000000084","","","recognition","survey-text","338","1295478","0.0-6.0-3.47","3134660","co39343","norming","","","{""guess"":""geweer""}","","../img/tt/1353tt.jpg","",""
"null","../img/gs/1353gs.jpg","null","reveal","image-keyboard-response","339","1297488","0.0-6.0-4.47","3134660","co39343","norming","","","","","","",""
"null","../img/tt/1353tt.jpg","null","mooney2","image-keyboard-response","340","1299498","0.0-6.0-5.47","3134660","co39343","norming","","","","","","",""
"3073.2350000001024","","","post_reveal_questions","survey-likert","341","1302574","0.0-6.0-6.47","3134660","co39343","norming","","","{""aha"":5}","[0]","../img/tt/1353tt.jpg","",""
"null","<div style=""font-size:60px;""> </div>","null","fixation","html-keyboard-response","342","1302781","0.0-6.0-0.48","3134660","co39343","norming","","","","","","",""
"null","../img/tt/329tt.jpg","null","mooney1","image-keyboard-response","343","1305788","0.0-6.0-1.48","3134660","co39343","norming","","","","","","",""
"3838.9799999999814","","","post_mooney1_questions","survey-likert","344","1309630","0.0-6.0-2.48","3134660","co39343","norming","","","{""curiosity"":5,""confidence"":0}","[0,1]","../img/tt/329tt.jpg","",""
"1221.7900000000373","","","recognition","survey-text","345","1310854","0.0-6.0-3.48","3134660","co39343","norming","","","{""guess"":""""}","","../img/tt/329tt.jpg","",""
"null","../img/gs/329gs.jpg","null","reveal","image-keyboard-response","346","1312855","0.0-6.0-4.48","3134660","co39343","norming","","","","","","",""
"null","../img/tt/329tt.jpg","null","mooney2","image-keyboard-response","347","1314861","0.0-6.0-5.48","3134660","co39343","norming","","","","","","",""
"1568.6799999999348","","","post_reveal_questions","survey-likert","348","1316430","0.0-6.0-6.48","3134660","co39343","norming","","","{""aha"":3}","[0]","../img/tt/329tt.jpg","",""
"null","<div style=""font-size:60px;""> </div>","null","fixation","html-keyboard-response","349","1316632","0.0-6.0-0.49","3134660","co39343","norming","","","","","","",""
"null","../img/tt/590tt.jpg","null","mooney1","image-keyboard-response","350","1319637","0.0-6.0-1.49","3134660","co39343","norming","","","","","","",""
"5406.035000000382","","","post_mooney1_questions","survey-likert","351","1325047","0.0-6.0-2.49","3134660","co39343","norming","","","{""curiosity"":5,""confidence"":0}","[0,1]","../img/tt/590tt.jpg","",""
"646.0850000001956","","","recognition","survey-text","352","1325694","0.0-6.0-3.49","3134660","co39343","norming","","","{""guess"":""""}","","../img/tt/590tt.jpg","",""
"null","../img/gs/590gs.jpg","null","reveal","image-keyboard-response","353","1327697","0.0-6.0-4.49","3134660","co39343","norming","","","","","","",""
"null","../img/tt/590tt.jpg","null","mooney2","image-keyboard-response","354","1329704","0.0-6.0-5.49","3134660","co39343","norming","","","","","","",""
"2260.060000000056","","","post_reveal_questions","survey-likert","355","1331966","0.0-6.0-6.49","3134660","co39343","norming","","","{""aha"":5}","[0]","../img/tt/590tt.jpg","",""
"null","<div style=""font-size:60px;""> </div>","null","fixation","html-keyboard-response","356","1332173","0.0-6.0-0.50","3134660","co39343","norming","","","","","","",""
"null","../img/tt/1102tt.jpg","null","mooney1","image-keyboard-response","357","1335179","0.0-6.0-1.50","3134660","co39343","norming","","","","","","",""
"4448.66500000027","","","post_mooney1_questions","survey-likert","358","1339631","0.0-6.0-2.50","3134660","co39343","norming","","","{""curiosity"":5,""confidence"":1}","[0,1]","../img/tt/1102tt.jpg","",""
"6294.119999999879","","","recognition","survey-text","359","1345926","0.0-6.0-3.50","3134660","co39343","norming","","","{""guess"":""persoon""}","","../img/tt/1102tt.jpg","",""
"null","../img/gs/1102gs.jpg","null","reveal","image-keyboard-response","360","1347932","0.0-6.0-4.50","3134660","co39343","norming","","","","","","",""
"null","../img/tt/1102tt.jpg","null","mooney2","image-keyboard-response","361","1349939","0.0-6.0-5.50","3134660","co39343","norming","","","","","","",""
"2136.3000000000466","","","post_reveal_questions","survey-likert","362","1352078","0.0-6.0-6.50","3134660","co39343","norming","","","{""aha"":5}","[0]","../img/tt/1102tt.jpg","",""
"null","<div style=""font-size:60px;""> </div>","null","fixation","html-keyboard-response","363","1352283","0.0-6.0-0.51","3134660","co39343","norming","","","","","","",""
"null","../img/tt/1279tt.jpg","null","mooney1","image-keyboard-response","364","1355288","0.0-6.0-1.51","3134660","co39343","norming","","","","","","",""
"4907.25","","","post_mooney1_questions","survey-likert","365","1360199","0.0-6.0-2.51","3134660","co39343","norming","","","{""curiosity"":6,""confidence"":0}","[0,1]","../img/tt/1279tt.jpg","",""
"934.0349999999162","","","recognition","survey-text","366","1361134","0.0-6.0-3.51","3134660","co39343","norming","","","{""guess"":""""}","","../img/tt/1279tt.jpg","",""
"null","../img/gs/1279gs.jpg","null","reveal","image-keyboard-response","367","1363145","0.0-6.0-4.51","3134660","co39343","norming","","","","","","",""
"null","../img/tt/1279tt.jpg","null","mooney2","image-keyboard-response","368","1365155","0.0-6.0-5.51","3134660","co39343","norming","","","","","","",""
"2960.6200000001118","","","post_reveal_questions","survey-likert","369","1368118","0.0-6.0-6.51","3134660","co39343","norming","","","{""aha"":2}","[0]","../img/tt/1279tt.jpg","",""
"null","<div style=""font-size:60px;""> </div>","null","fixation","html-keyboard-response","370","1368322","0.0-6.0-0.52","3134660","co39343","norming","","","","","","",""
"null","../img/tt/315tt.jpg","null","mooney1","image-keyboard-response","371","1371334","0.0-6.0-1.52","3134660","co39343","norming","","","","","","",""
"3885.2450000001118","","","post_mooney1_questions","survey-likert","372","1375222","0.0-6.0-2.52","3134660","co39343","norming","","","{""curiosity"":5,""confidence"":2}","[0,1]","../img/tt/315tt.jpg","",""
"5558.334999999963","","","recognition","survey-text","373","1380782","0.0-6.0-3.52","3134660","co39343","norming","","","{""guess"":""roofvogel""}","","../img/tt/315tt.jpg","",""
"null","../img/gs/315gs.jpg","null","reveal","image-keyboard-response","374","1382790","0.0-6.0-4.52","3134660","co39343","norming","","","","","","",""
"null","../img/tt/315tt.jpg","null","mooney2","image-keyboard-response","375","1384793","0.0-6.0-5.52","3134660","co39343","norming","","","","","","",""
"3651.755000000121","","","post_reveal_questions","survey-likert","376","1388447","0.0-6.0-6.52","3134660","co39343","norming","","","{""aha"":5}","[0]","../img/tt/315tt.jpg","",""
"null","<div style=""font-size:60px;""> </div>","null","fixation","html-keyboard-response","377","1388653","0.0-6.0-0.53","3134660","co39343","norming","","","","","","",""
"null","../img/tt/124tt.jpg","null","mooney1","image-keyboard-response","378","1391657","0.0-6.0-1.53","3134660","co39343","norming","","","","","","",""
"5475.195000000065","","","post_mooney1_questions","survey-likert","379","1397135","0.0-6.0-2.53","3134660","co39343","norming","","","{""curiosity"":3,""confidence"":6}","[0,1]","../img/tt/124tt.jpg","",""
"3277.8249999999534","","","recognition","survey-text","380","1400415","0.0-6.0-3.53","3134660","co39343","norming","","","{""guess"":""gorilla""}","","../img/tt/124tt.jpg","",""
"null","../img/gs/124gs.jpg","null","reveal","image-keyboard-response","381","1402416","0.0-6.0-4.53","3134660","co39343","norming","","","","","","",""
"null","../img/tt/124tt.jpg","null","mooney2","image-keyboard-response","382","1404422","0.0-6.0-5.53","3134660","co39343","norming","","","","","","",""
"3494.779999999795","","","post_reveal_questions","survey-likert","383","1407919","0.0-6.0-6.53","3134660","co39343","norming","","","{""aha"":0}","[0]","../img/tt/124tt.jpg","",""
"null","<div style=""font-size:60px;""> </div>","null","fixation","html-keyboard-response","384","1408121","0.0-6.0-0.54","3134660","co39343","norming","","","","","","",""
"null","../img/tt/1307tt.jpg","null","mooney1","image-keyboard-response","385","1411127","0.0-6.0-1.54","3134660","co39343","norming","","","","","","",""
"5037.514999999898","","","post_mooney1_questions","survey-likert","386","1416167","0.0-6.0-2.54","3134660","co39343","norming","","","{""curiosity"":5,""confidence"":0}","[0,1]","../img/tt/1307tt.jpg","",""
"4526.030000000028","","","recognition","survey-text","387","1420695","0.0-6.0-3.54","3134660","co39343","norming","","","{""guess"":""vliegtuig""}","","../img/tt/1307tt.jpg","",""
"null","../img/gs/1307gs.jpg","null","reveal","image-keyboard-response","388","1422701","0.0-6.0-4.54","3134660","co39343","norming","","","","","","",""
"null","../img/tt/1307tt.jpg","null","mooney2","image-keyboard-response","389","1424702","0.0-6.0-5.54","3134660","co39343","norming","","","","","","",""
"4055.7050000000745","","","post_reveal_questions","survey-likert","390","1428759","0.0-6.0-6.54","3134660","co39343","norming","","","{""aha"":4}","[0]","../img/tt/1307tt.jpg","",""
"null","<div style=""font-size:60px;""> </div>","null","fixation","html-keyboard-response","391","1428968","0.0-6.0-0.55","3134660","co39343","norming","","","","","","",""
"null","../img/tt/1366tt.jpg","null","mooney1","image-keyboard-response","392","1431970","0.0-6.0-1.55","3134660","co39343","norming","","","","","","",""
"5722.73499999987","","","post_mooney1_questions","survey-likert","393","1437695","0.0-6.0-2.55","3134660","co39343","norming","","","{""curiosity"":5,""confidence"":0}","[0,1]","../img/tt/1366tt.jpg","",""
"3542.0749999999534","","","recognition","survey-text","394","1441239","0.0-6.0-3.55","3134660","co39343","norming","","","{""guess"":""vogel""}","","../img/tt/1366tt.jpg","",""
"null","../img/gs/1366gs.jpg","null","reveal","image-keyboard-response","395","1443241","0.0-6.0-4.55","3134660","co39343","norming","","","","","","",""
"null","../img/tt/1366tt.jpg","null","mooney2","image-keyboard-response","396","1445247","0.0-6.0-5.55","3134660","co39343","norming","","","","","","",""
"3317.5100000000093","","","post_reveal_questions","survey-likert","397","1448567","0.0-6.0-6.55","3134660","co39343","norming","","","{""aha"":5}","[0]","../img/tt/1366tt.jpg","",""
"null","<div style=""font-size:60px;""> </div>","null","fixation","html-keyboard-response","398","1448772","0.0-6.0-0.56","3134660","co39343","norming","","","","","","",""
"null","../img/tt/1091tt.jpg","null","mooney1","image-keyboard-response","399","1451775","0.0-6.0-1.56","3134660","co39343","norming","","","","","","",""
"4061.445000000065","","","post_mooney1_questions","survey-likert","400","1455840","0.0-6.0-2.56","3134660","co39343","norming","","","{""curiosity"":3,""confidence"":5}","[0,1]","../img/tt/1091tt.jpg","",""
"2597.8149999997113","","","recognition","survey-text","401","1458439","0.0-6.0-3.56","3134660","co39343","norming","","","{""guess"":""paard""}","","../img/tt/1091tt.jpg","",""
"null","../img/gs/1091gs.jpg","null","reveal","image-keyboard-response","402","1460441","0.0-6.0-4.56","3134660","co39343","norming","","","","","","",""
"null","../img/tt/1091tt.jpg","null","mooney2","image-keyboard-response","403","1462448","0.0-6.0-5.56","3134660","co39343","norming","","","","","","",""
"3413.1350000000093","","","post_reveal_questions","survey-likert","404","1465863","0.0-6.0-6.56","3134660","co39343","norming","","","{""aha"":0}","[0]","../img/tt/1091tt.jpg","",""
"null","<div style=""font-size:60px;""> </div>","null","fixation","html-keyboard-response","405","1466069","0.0-6.0-0.57","3134660","co39343","norming","","","","","","",""
"null","../img/tt/1254tt.jpg","null","mooney1","image-keyboard-response","406","1469071","0.0-6.0-1.57","3134660","co39343","norming","","","","","","",""
"2957.1049999999814","","","post_mooney1_questions","survey-likert","407","1472032","0.0-6.0-2.57","3134660","co39343","norming","","","{""curiosity"":5,""confidence"":2}","[0,1]","../img/tt/1254tt.jpg","",""
"3382.2249999998603","","","recognition","survey-text","408","1475415","0.0-6.0-3.57","3134660","co39343","norming","","","{""guess"":""konijn""}","","../img/tt/1254tt.jpg","",""
"null","../img/gs/1254gs.jpg","null","reveal","image-keyboard-response","409","1477417","0.0-6.0-4.57","3134660","co39343","norming","","","","","","",""
"null","../img/tt/1254tt.jpg","null","mooney2","image-keyboard-response","410","1479426","0.0-6.0-5.57","3134660","co39343","norming","","","","","","",""
"3322.1800000001676","","","post_reveal_questions","survey-likert","411","1482751","0.0-6.0-6.57","3134660","co39343","norming","","","{""aha"":1}","[0]","../img/tt/1254tt.jpg","",""
"null","<div style=""font-size:60px;""> </div>","null","fixation","html-keyboard-response","412","1482961","0.0-6.0-0.58","3134660","co39343","norming","","","","","","",""
"null","../img/tt/098tt.jpg","null","mooney1","image-keyboard-response","413","1485962","0.0-6.0-1.58","3134660","co39343","norming","","","","","","",""
"3497.964999999851","","","post_mooney1_questions","survey-likert","414","1489463","0.0-6.0-2.58","3134660","co39343","norming","","","{""curiosity"":6,""confidence"":0}","[0,1]","../img/tt/098tt.jpg","",""
"862.0199999997858","","","recognition","survey-text","415","1490327","0.0-6.0-3.58","3134660","co39343","norming","","","{""guess"":""""}","","../img/tt/098tt.jpg","",""
"null","../img/gs/098gs.jpg","null","reveal","image-keyboard-response","416","1492330","0.0-6.0-4.58","3134660","co39343","norming","","","","","","",""
"null","../img/tt/098tt.jpg","null","mooney2","image-keyboard-response","417","1494341","0.0-6.0-5.58","3134660","co39343","norming","","","","","","",""
"983.6200000001118","","","post_reveal_questions","survey-likert","418","1495327","0.0-6.0-6.58","3134660","co39343","norming","","","{""aha"":3}","[0]","../img/tt/098tt.jpg","",""
"null","<div style=""font-size:60px;""> </div>","null","fixation","html-keyboard-response","419","1495534","0.0-6.0-0.59","3134660","co39343","norming","","","","","","",""
"null","../img/tt/1261tt.jpg","null","mooney1","image-keyboard-response","420","1498539","0.0-6.0-1.59","3134660","co39343","norming","","","","","","",""
"4176.469999999972","","","post_mooney1_questions","survey-likert","421","1502720","0.0-6.0-2.59","3134660","co39343","norming","","","{""curiosity"":6,""confidence"":1}","[0,1]","../img/tt/1261tt.jpg","",""
"4029.6200000001118","","","recognition","survey-text","422","1506750","0.0-6.0-3.59","3134660","co39343","norming","","","{""guess"":""eekhoorn""}","","../img/tt/1261tt.jpg","",""
"null","../img/gs/1261gs.jpg","null","reveal","image-keyboard-response","423","1508753","0.0-6.0-4.59","3134660","co39343","norming","","","","","","",""
"null","../img/tt/1261tt.jpg","null","mooney2","image-keyboard-response","424","1510764","0.0-6.0-5.59","3134660","co39343","norming","","","","","","",""
"2367.6150000002235","","","post_reveal_questions","survey-likert","425","1513134","0.0-6.0-6.59","3134660","co39343","norming","","","{""aha"":3}","[0]","../img/tt/1261tt.jpg","",""
"null","<div style=""font-size:60px;""> </div>","null","fixation","html-keyboard-response","426","1513341","0.0-6.0-0.60","3134660","co39343","norming","","","","","","",""
"null","../img/tt/416tt.jpg","null","mooney1","image-keyboard-response","427","1516344","0.0-6.0-1.60","3134660","co39343","norming","","","","","","",""
"5411.429999999935","","","post_mooney1_questions","survey-likert","428","1521759","0.0-6.0-2.60","3134660","co39343","norming","","","{""curiosity"":3,""confidence"":6}","[0,1]","../img/tt/416tt.jpg","",""
"5773.9900000002235","","","recognition","survey-text","429","1527534","0.0-6.0-3.60","3134660","co39343","norming","","","{""guess"":""struisvogels""}","","../img/tt/416tt.jpg","",""
"null","../img/gs/416gs.jpg","null","reveal","image-keyboard-response","430","1529538","0.0-6.0-4.60","3134660","co39343","norming","","","","","","",""
"null","../img/tt/416tt.jpg","null","mooney2","image-keyboard-response","431","1531539","0.0-6.0-5.60","3134660","co39343","norming","","","","","","",""
"5335.590000000084","","","post_reveal_questions","survey-likert","432","1536878","0.0-6.0-6.60","3134660","co39343","norming","","","{""aha"":0}","[0]","../img/tt/416tt.jpg","",""
"null","<div style=""font-size:60px;""> </div>","null","fixation","html-keyboard-response","433","1537079","0.0-6.0-0.61","3134660","co39343","norming","","","","","","",""
"null","../img/tt/078tt.jpg","null","mooney1","image-keyboard-response","434","1540085","0.0-6.0-1.61","3134660","co39343","norming","","","","","","",""
"4918.185000000056","","","post_mooney1_questions","survey-likert","435","1545007","0.0-6.0-2.61","3134660","co39343","norming","","","{""curiosity"":5,""confidence"":3}","[0,1]","../img/tt/078tt.jpg","",""
"4181.809999999823","","","recognition","survey-text","436","1549190","0.0-6.0-3.61","3134660","co39343","norming","","","{""guess"":""druiven""}","","../img/tt/078tt.jpg","",""
"null","../img/gs/078gs.jpg","null","reveal","image-keyboard-response","437","1551200","0.0-6.0-4.61","3134660","co39343","norming","","","","","","",""
"null","../img/tt/078tt.jpg","null","mooney2","image-keyboard-response","438","1553202","0.0-6.0-5.61","3134660","co39343","norming","","","","","","",""
"2049.5200000000186","","","post_reveal_questions","survey-likert","439","1555254","0.0-6.0-6.61","3134660","co39343","norming","","","{""aha"":0}","[0]","../img/tt/078tt.jpg","",""
"null","<div style=""font-size:60px;""> </div>","null","fixation","html-keyboard-response","440","1555457","0.0-6.0-0.62","3134660","co39343","norming","","","","","","",""
"null","../img/tt/1027tt.jpg","null","mooney1","image-keyboard-response","441","1558467","0.0-6.0-1.62","3134660","co39343","norming","","","","","","",""
"3048.429999999702","","","post_mooney1_questions","survey-likert","442","1561518","0.0-6.0-2.62","3134660","co39343","norming","","","{""curiosity"":5,""confidence"":2}","[0,1]","../img/tt/1027tt.jpg","",""
"2926.0500000000466","","","recognition","survey-text","443","1564444","0.0-6.0-3.62","3134660","co39343","norming","","","{""guess"":""koeien""}","","../img/tt/1027tt.jpg","",""
"null","../img/gs/1027gs.jpg","null","reveal","image-keyboard-response","444","1566453","0.0-6.0-4.62","3134660","co39343","norming","","","","","","",""
"null","../img/tt/1027tt.jpg","null","mooney2","image-keyboard-response","445","1568456","0.0-6.0-5.62","3134660","co39343","norming","","","","","","",""
"3513.965000000084","","","post_reveal_questions","survey-likert","446","1571972","0.0-6.0-6.62","3134660","co39343","norming","","","{""aha"":1}","[0]","../img/tt/1027tt.jpg","",""
"null","<div style=""font-size:60px;""> </div>","null","fixation","html-keyboard-response","447","1572182","0.0-6.0-0.63","3134660","co39343","norming","","","","","","",""
"null","../img/tt/1159tt.jpg","null","mooney1","image-keyboard-response","448","1575188","0.0-6.0-1.63","3134660","co39343","norming","","","","","","",""
"7221.25","","","post_mooney1_questions","survey-likert","449","1582412","0.0-6.0-2.63","3134660","co39343","norming","","","{""curiosity"":5,""confidence"":2}","[0,1]","../img/tt/1159tt.jpg","",""
"7422.304999999935","","","recognition","survey-text","450","1589836","0.0-6.0-3.63","3134660","co39343","norming","","","{""guess"":""iemand op step""}","","../img/tt/1159tt.jpg","",""
"null","../img/gs/1159gs.jpg","null","reveal","image-keyboard-response","451","1591846","0.0-6.0-4.63","3134660","co39343","norming","","","","","","",""
"null","../img/tt/1159tt.jpg","null","mooney2","image-keyboard-response","452","1593848","0.0-6.0-5.63","3134660","co39343","norming","","","","","","",""
"1648.5699999998324","","","post_reveal_questions","survey-likert","453","1595500","0.0-6.0-6.63","3134660","co39343","norming","","","{""aha"":3}","[0]","../img/tt/1159tt.jpg","",""
"null","<div style=""font-size:60px;""> </div>","null","fixation","html-keyboard-response","454","1595711","0.0-6.0-0.64","3134660","co39343","norming","","","","","","",""
"null","../img/tt/440tt.jpg","null","mooney1","image-keyboard-response","455","1598718","0.0-6.0-1.64","3134660","co39343","norming","","","","","","",""
"2986.6450000000186","","","post_mooney1_questions","survey-likert","456","1601709","0.0-6.0-2.64","3134660","co39343","norming","","","{""curiosity"":6,""confidence"":0}","[0,1]","../img/tt/440tt.jpg","",""
"502.1399999996647","","","recognition","survey-text","457","1602212","0.0-6.0-3.64","3134660","co39343","norming","","","{""guess"":""""}","","../img/tt/440tt.jpg","",""
"null","../img/gs/440gs.jpg","null","reveal","image-keyboard-response","458","1604218","0.0-6.0-4.64","3134660","co39343","norming","","","","","","",""
"null","../img/tt/440tt.jpg","null","mooney2","image-keyboard-response","459","1606229","0.0-6.0-5.64","3134660","co39343","norming","","","","","","",""
"2276.70999999973","","","post_reveal_questions","survey-likert","460","1608508","0.0-6.0-6.64","3134660","co39343","norming","","","{""aha"":3}","[0]","../img/tt/440tt.jpg","",""
"null","<div style=""font-size:60px;""> </div>","null","fixation","html-keyboard-response","461","1608716","0.0-6.0-0.65","3134660","co39343","norming","","","","","","",""
"null","../img/tt/1362tt.jpg","null","mooney1","image-keyboard-response","462","1611720","0.0-6.0-1.65","3134660","co39343","norming","","","","","","",""
"4800.909999999916","","","post_mooney1_questions","survey-likert","463","1616525","0.0-6.0-2.65","3134660","co39343","norming","","","{""curiosity"":6,""confidence"":0}","[0,1]","../img/tt/1362tt.jpg","",""
"8150.000000000233","","","recognition","survey-text","464","1624676","0.0-6.0-3.65","3134660","co39343","norming","","","{""guess"":""platendraiier""}","","../img/tt/1362tt.jpg","",""
"null","../img/gs/1362gs.jpg","null","reveal","image-keyboard-response","465","1626682","0.0-6.0-4.65","3134660","co39343","norming","","","","","","",""
"null","../img/tt/1362tt.jpg","null","mooney2","image-keyboard-response","466","1628692","0.0-6.0-5.65","3134660","co39343","norming","","","","","","",""
"2917.355000000214","","","post_reveal_questions","survey-likert","467","1631612","0.0-6.0-6.65","3134660","co39343","norming","","","{""aha"":3}","[0]","../img/tt/1362tt.jpg","",""
"null","<div style=""font-size:60px;""> </div>","null","fixation","html-keyboard-response","468","1631814","0.0-6.0-0.66","3134660","co39343","norming","","","","","","",""
"null","../img/tt/1156tt.jpg","null","mooney1","image-keyboard-response","469","1634825","0.0-6.0-1.66","3134660","co39343","norming","","","","","","",""
"5167.245000000112","","","post_mooney1_questions","survey-likert","470","1639996","0.0-6.0-2.66","3134660","co39343","norming","","","{""curiosity"":5,""confidence"":3}","[0,1]","../img/tt/1156tt.jpg","",""
"5781.989999999991","","","recognition","survey-text","471","1645779","0.0-6.0-3.66","3134660","co39343","norming","","","{""guess"":""vrouw die zont""}","","../img/tt/1156tt.jpg","",""
"null","../img/gs/1156gs.jpg","null","reveal","image-keyboard-response","472","1647781","0.0-6.0-4.66","3134660","co39343","norming","","","","","","",""
"null","../img/tt/1156tt.jpg","null","mooney2","image-keyboard-response","473","1649783","0.0-6.0-5.66","3134660","co39343","norming","","","","","","",""
"2594.3950000000186","","","post_reveal_questions","survey-likert","474","1652380","0.0-6.0-6.66","3134660","co39343","norming","","","{""aha"":3}","[0]","../img/tt/1156tt.jpg","",""
"null","<div style=""font-size:60px;""> </div>","null","fixation","html-keyboard-response","475","1652586","0.0-6.0-0.67","3134660","co39343","norming","","","","","","",""
"null","../img/tt/496tt.jpg","null","mooney1","image-keyboard-response","476","1655589","0.0-6.0-1.67","3134660","co39343","norming","","","","","","",""
"3371.3649999999907","","","post_mooney1_questions","survey-likert","477","1658964","0.0-6.0-2.67","3134660","co39343","norming","","","{""curiosity"":5,""confidence"":2}","[0,1]","../img/tt/496tt.jpg","",""
"2565.8249999999534","","","recognition","survey-text","478","1661531","0.0-6.0-3.67","3134660","co39343","norming","","","{""guess"":""hond""}","","../img/tt/496tt.jpg","",""
"null","../img/gs/496gs.jpg","null","reveal","image-keyboard-response","479","1663534","0.0-6.0-4.67","3134660","co39343","norming","","","","","","",""
"null","../img/tt/496tt.jpg","null","mooney2","image-keyboard-response","480","1665540","0.0-6.0-5.67","3134660","co39343","norming","","","","","","",""
"1188.8500000000931","","","post_reveal_questions","survey-likert","481","1666732","0.0-6.0-6.67","3134660","co39343","norming","","","{""aha"":2}","[0]","../img/tt/496tt.jpg","",""
"null","<div style=""font-size:60px;""> </div>","null","fixation","html-keyboard-response","482","1666941","0.0-6.0-0.68","3134660","co39343","norming","","","","","","",""
"null","../img/tt/1276tt.jpg","null","mooney1","image-keyboard-response","483","1669947","0.0-6.0-1.68","3134660","co39343","norming","","","","","","",""
"6476.845000000205","","","post_mooney1_questions","survey-likert","484","1676428","0.0-6.0-2.68","3134660","co39343","norming","","","{""curiosity"":5,""confidence"":2}","[0,1]","../img/tt/1276tt.jpg","",""
"3358.024999999907","","","recognition","survey-text","485","1679788","0.0-6.0-3.68","3134660","co39343","norming","","","{""guess"":""varken""}","","../img/tt/1276tt.jpg","",""
"null","../img/gs/1276gs.jpg","null","reveal","image-keyboard-response","486","1681794","0.0-6.0-4.68","3134660","co39343","norming","","","","","","",""
"null","../img/tt/1276tt.jpg","null","mooney2","image-keyboard-response","487","1683803","0.0-6.0-5.68","3134660","co39343","norming","","","","","","",""
"3909.2299999999814","","","post_reveal_questions","survey-likert","488","1687713","0.0-6.0-6.68","3134660","co39343","norming","","","{""aha"":2}","[0]","../img/tt/1276tt.jpg","",""
"null","<div style=""font-size:60px;""> </div>","null","fixation","html-keyboard-response","489","1687914","0.0-6.0-0.69","3134660","co39343","norming","","","","","","",""
"null","../img/tt/1061tt.jpg","null","mooney1","image-keyboard-response","490","1690919","0.0-6.0-1.69","3134660","co39343","norming","","","","","","",""
"4113.385000000009","","","post_mooney1_questions","survey-likert","491","1695033","0.0-6.0-2.69","3134660","co39343","norming","","","{""curiosity"":5,""confidence"":1}","[0,1]","../img/tt/1061tt.jpg","",""
"4350.14000000013","","","recognition","survey-text","492","1699385","0.0-6.0-3.69","3134660","co39343","norming","","","{""guess"":""petanque""}","","../img/tt/1061tt.jpg","",""
"null","../img/gs/1061gs.jpg","null","reveal","image-keyboard-response","493","1701387","0.0-6.0-4.69","3134660","co39343","norming","","","","","","",""
"null","../img/tt/1061tt.jpg","null","mooney2","image-keyboard-response","494","1703392","0.0-6.0-5.69","3134660","co39343","norming","","","","","","",""
"2910.7349999998696","","","post_reveal_questions","survey-likert","495","1706306","0.0-6.0-6.69","3134660","co39343","norming","","","{""aha"":4}","[0]","../img/tt/1061tt.jpg","",""
"null","<div style=""font-size:60px;""> </div>","null","fixation","html-keyboard-response","496","1706516","0.0-6.0-0.70","3134660","co39343","norming","","","","","","",""
"null","../img/tt/1116tt.jpg","null","mooney1","image-keyboard-response","497","1709521","0.0-6.0-1.70","3134660","co39343","norming","","","","","","",""
"4047.1049999999814","","","post_mooney1_questions","survey-likert","498","1713569","0.0-6.0-2.70","3134660","co39343","norming","","","{""curiosity"":5,""confidence"":0}","[0,1]","../img/tt/1116tt.jpg","",""
"526.2700000000186","","","recognition","survey-text","499","1714097","0.0-6.0-3.70","3134660","co39343","norming","","","{""guess"":""""}","","../img/tt/1116tt.jpg","",""
"null","../img/gs/1116gs.jpg","null","reveal","image-keyboard-response","500","1716107","0.0-6.0-4.70","3134660","co39343","norming","","","","","","",""
"null","../img/tt/1116tt.jpg","null","mooney2","image-keyboard-response","501","1718116","0.0-6.0-5.70","3134660","co39343","norming","","","","","","",""
"3746.9599999999627","","","post_reveal_questions","survey-likert","502","1721865","0.0-6.0-6.70","3134660","co39343","norming","","","{""aha"":3}","[0]","../img/tt/1116tt.jpg","",""
"null","<div style=""font-size:60px;""> </div>","null","fixation","html-keyboard-response","503","1722072","0.0-6.0-0.71","3134660","co39343","norming","","","","","","",""
"null","../img/tt/477tt.jpg","null","mooney1","image-keyboard-response","504","1725076","0.0-6.0-1.71","3134660","co39343","norming","","","","","","",""
"3881.659999999916","","","post_mooney1_questions","survey-likert","505","1728961","0.0-6.0-2.71","3134660","co39343","norming","","","{""curiosity"":5,""confidence"":4}","[0,1]","../img/tt/477tt.jpg","",""
"4990.119999999879","","","recognition","survey-text","506","1733953","0.0-6.0-3.71","3134660","co39343","norming","","","{""guess"":""vis in bokaal""}","","../img/tt/477tt.jpg","",""
"null","../img/gs/477gs.jpg","null","reveal","image-keyboard-response","507","1735954","0.0-6.0-4.71","3134660","co39343","norming","","","","","","",""
"null","../img/tt/477tt.jpg","null","mooney2","image-keyboard-response","508","1737957","0.0-6.0-5.71","3134660","co39343","norming","","","","","","",""
"2865.5999999998603","","","post_reveal_questions","survey-likert","509","1740825","0.0-6.0-6.71","3134660","co39343","norming","","","{""aha"":0}","[0]","../img/tt/477tt.jpg","",""
"null","<div style=""font-size:60px;""> </div>","null","fixation","html-keyboard-response","510","1741033","0.0-6.0-0.72","3134660","co39343","norming","","","","","","",""
"null","../img/tt/163tt.jpg","null","mooney1","image-keyboard-response","511","1744036","0.0-6.0-1.72","3134660","co39343","norming","","","","","","",""
"4850.655000000028","","","post_mooney1_questions","survey-likert","512","1748895","0.0-6.0-2.72","3134660","co39343","norming","","","{""curiosity"":5,""confidence"":2}","[0,1]","../img/tt/163tt.jpg","",""
"6638.280000000261","","","recognition","survey-text","513","1755535","0.0-6.0-3.72","3134660","co39343","norming","","","{""guess"":""dalmatiër""}","","../img/tt/163tt.jpg","",""
"null","../img/gs/163gs.jpg","null","reveal","image-keyboard-response","514","1757537","0.0-6.0-4.72","3134660","co39343","norming","","","","","","",""
"null","../img/tt/163tt.jpg","null","mooney2","image-keyboard-response","515","1759544","0.0-6.0-5.72","3134660","co39343","norming","","","","","","",""
"3147.940000000177","","","post_reveal_questions","survey-likert","516","1762695","0.0-6.0-6.72","3134660","co39343","norming","","","{""aha"":4}","[0]","../img/tt/163tt.jpg","",""
"null","<div style=""font-size:60px;""> </div>","null","fixation","html-keyboard-response","517","1762900","0.0-6.0-0.73","3134660","co39343","norming","","","","","","",""
"null","../img/tt/1270tt.jpg","null","mooney1","image-keyboard-response","518","1765901","0.0-6.0-1.73","3134660","co39343","norming","","","","","","",""
"2877.9199999999255","","","post_mooney1_questions","survey-likert","519","1768783","0.0-6.0-2.73","3134660","co39343","norming","","","{""curiosity"":5,""confidence"":0}","[0,1]","../img/tt/1270tt.jpg","",""
"862.4799999999814","","","recognition","survey-text","520","1769647","0.0-6.0-3.73","3134660","co39343","norming","","","{""guess"":""""}","","../img/tt/1270tt.jpg","",""
"null","../img/gs/1270gs.jpg","null","reveal","image-keyboard-response","521","1771650","0.0-6.0-4.73","3134660","co39343","norming","","","","","","",""
"null","../img/tt/1270tt.jpg","null","mooney2","image-keyboard-response","522","1773655","0.0-6.0-5.73","3134660","co39343","norming","","","","","","",""
"3830.5499999998137","","","post_reveal_questions","survey-likert","523","1777487","0.0-6.0-6.73","3134660","co39343","norming","","","{""aha"":3}","[0]","../img/tt/1270tt.jpg","",""
"null","<div style=""font-size:60px;""> </div>","null","fixation","html-keyboard-response","524","1777691","0.0-6.0-0.74","3134660","co39343","norming","","","","","","",""
"null","../img/tt/1199tt.jpg","null","mooney1","image-keyboard-response","525","1780698","0.0-6.0-1.74","3134660","co39343","norming","","","","","","",""
"4993.530000000028","","","post_mooney1_questions","survey-likert","526","1785696","0.0-6.0-2.74","3134660","co39343","norming","","","{""curiosity"":6,""confidence"":0}","[0,1]","../img/tt/1199tt.jpg","",""
"764.8049999999348","","","recognition","survey-text","527","1786463","0.0-6.0-3.74","3134660","co39343","norming","","","{""guess"":""""}","","../img/tt/1199tt.jpg","",""
"null","../img/gs/1199gs.jpg","null","reveal","image-keyboard-response","528","1788471","0.0-6.0-4.74","3134660","co39343","norming","","","","","","",""
"null","../img/tt/1199tt.jpg","null","mooney2","image-keyboard-response","529","1790474","0.0-6.0-5.74","3134660","co39343","norming","","","","","","",""
"2001.2100000001956","","","post_reveal_questions","survey-likert","530","1792479","0.0-6.0-6.74","3134660","co39343","norming","","","{""aha"":5}","[0]","../img/tt/1199tt.jpg","",""
"null","<div style=""font-size:60px;""> </div>","null","fixation","html-keyboard-response","531","1792680","0.0-6.0-0.75","3134660","co39343","norming","","","","","","",""
"null","../img/tt/1084tt.jpg","null","mooney1","image-keyboard-response","532","1795690","0.0-6.0-1.75","3134660","co39343","norming","","","","","","",""
"4961.149999999907","","","post_mooney1_questions","survey-likert","533","1800654","0.0-6.0-2.75","3134660","co39343","norming","","","{""curiosity"":5,""confidence"":0}","[0,1]","../img/tt/1084tt.jpg","",""
"4046.1800000001676","","","recognition","survey-text","534","1804703","0.0-6.0-3.75","3134660","co39343","norming","","","{""guess"":""theekopje""}","","../img/tt/1084tt.jpg","",""
"null","../img/gs/1084gs.jpg","null","reveal","image-keyboard-response","535","1806706","0.0-6.0-4.75","3134660","co39343","norming","","","","","","",""
"null","../img/tt/1084tt.jpg","null","mooney2","image-keyboard-response","536","1808709","0.0-6.0-5.75","3134660","co39343","norming","","","","","","",""
"3311.340000000084","","","post_reveal_questions","survey-likert","537","1812023","0.0-6.0-6.75","3134660","co39343","norming","","","{""aha"":3}","[0]","../img/tt/1084tt.jpg","",""
"null","<div style=""font-size:60px;""> </div>","null","fixation","html-keyboard-response","538","1812226","0.0-6.0-0.76","3134660","co39343","norming","","","","","","",""
"null","../img/tt/1070tt.jpg","null","mooney1","image-keyboard-response","539","1815231","0.0-6.0-1.76","3134660","co39343","norming","","","","","","",""
"3635.3950000000186","","","post_mooney1_questions","survey-likert","540","1818871","0.0-6.0-2.76","3134660","co39343","norming","","","{""curiosity"":5,""confidence"":1}","[0,1]","../img/tt/1070tt.jpg","",""
"3710.4549999998417","","","recognition","survey-text","541","1822583","0.0-6.0-3.76","3134660","co39343","norming","","","{""guess"":""taart""}","","../img/tt/1070tt.jpg","",""
"null","../img/gs/1070gs.jpg","null","reveal","image-keyboard-response","542","1824590","0.0-6.0-4.76","3134660","co39343","norming","","","","","","",""
"null","../img/tt/1070tt.jpg","null","mooney2","image-keyboard-response","543","1826592","0.0-6.0-5.76","3134660","co39343","norming","","","","","","",""
"1443.619999999879","","","post_reveal_questions","survey-likert","544","1828039","0.0-6.0-6.76","3134660","co39343","norming","","","{""aha"":1}","[0]","../img/tt/1070tt.jpg","",""
"null","<div style=""font-size:60px;""> </div>","null","fixation","html-keyboard-response","545","1828240","0.0-6.0-0.77","3134660","co39343","norming","","","","","","",""
"null","../img/tt/1255tt.jpg","null","mooney1","image-keyboard-response","546","1831242","0.0-6.0-1.77","3134660","co39343","norming","","","","","","",""
"6889.284999999916","","","post_mooney1_questions","survey-likert","547","1838135","0.0-6.0-2.77","3134660","co39343","norming","","","{""curiosity"":5,""confidence"":1}","[0,1]","../img/tt/1255tt.jpg","",""
"2013.8349999999627","","","recognition","survey-text","548","1840151","0.0-6.0-3.77","3134660","co39343","norming","","","{""guess"":""boom""}","","../img/tt/1255tt.jpg","",""
"null","../img/gs/1255gs.jpg","null","reveal","image-keyboard-response","549","1842153","0.0-6.0-4.77","3134660","co39343","norming","","","","","","",""
"null","../img/tt/1255tt.jpg","null","mooney2","image-keyboard-response","550","1844154","0.0-6.0-5.77","3134660","co39343","norming","","","","","","",""
