"rt","stimulus","key_press","test_part","trial_type","trial_index","time_elapsed","internal_node_id","totalTime","subject","experiment_name","button_pressed","success","responses","question_order","currentStim","old","correct"
"949","Welcome to the experiment. This is an online experiment so please don't close the tab/window until we say goodbye.  Press any key to begin.","32","instructions","html-keyboard-response","0","965","0.0-0.0","3527971","co39361","norming","","","","","","",""
"271958","<div style='word-wrap: break-word; width: 900px'><h3>Please consider this information carefully before deciding whether to participate in this research</h3><ul style='text-align: left; font-size: .8em;'><li><b>Purpose of the research</b>: To examine how people process images.</li><li><b>What you will do in this research</b>:  Stimuli (images) will be presented on the computer and you will be asked different questions about them.</li><li><b>Time required</b>: Participation will take between 45 and 60 minutes to complete.</li><li><b>Risks</b>:  There are no anticipated risks associated with participating in this study. The effects of participating should be comparable to those you would experience from viewing a computer monitor for 30 minutes and using a mouse or keyboard.</li><li><b>Benefits</b>:  This study provides no benefits to you individually except for the credit. The study provides important information about the nature of perception and learning.</li><li><b>Confidentiality</b>:  Your participation in this study will remain confidential. No personally identifiable information will be associated with your data. Your de-identified data may be shared with other researchers and used in future projects.</li><li><b>Participation and withdrawal</b>:  Your participation in this study is completely voluntary and you may refuse to participate or you may choose to withdraw at any time without penalty.</li><li><b>How to contact the researchers</b>: If you have questions or concerns about your participation or payment, or want to request a summary of research findings, please contact Sander Van de Cruys (KU Leuven), at sander.vandecruys@kuleuven.be.</li></ul><p>The nature and purpose of this research have been sufficiently explained and I agree to participate in this study.  I understand that I am free to withdraw at any time without incurring any penalty.</p><p>Please consent by clicking the button below to continue. Otherwise, please exit the study at this time.</p></div>","","instructions","html-button-response","1","272926","0.0-1.0","3527971","co39361","norming","0","","","","","",""
"","","","instructions","fullscreen","2","277892","0.0-2.0","3527971","co39361","norming","","true","","","","",""
"48489","","","sona","survey-html-form","3","326390","0.0-3.0","3527971","co39361","norming","","","[{""name"":""sonaid"",""value"":""39361""},{""name"":""debrief"",""value"":""yes""},{""name"":""datajoin"",""value"":""yes""}]","","","",""
"129444","<div style='word-wrap: break-word; width: 900px'><h3>Instructions</h3><p>This experiment will have 3 parts. In the first part you will see a series of distorted images like the one below on the left. As you can see in the righthand image, the distorted images are derived from actual photographs. In what follows, you will <strong>briefly</strong> be presented with <strong>only</strong> the distorted image.</p> <div style='float: left; margin-right: 20px;'><img src='../img/018tt.jpg' height='250' width='250'></img></div><div style='float: right; margin-left: 20px;'><img src='../img/018gs.jpg' height='250' width='250'></img></div><p>Subsequently you will be asked a few questions about the image: One question on how <strong>curious</strong> you are about the solution and one on how <strong>confident</strong> you are that you know the solution.</p>Next, we ask you to make a guess on what is in the image. Note that it is OK to name just the <strong>basic level category</strong>. For example when you see a parrot in the image, 'parrot' will obviously be a correct answer but also correct is 'bird'. However, 'animal' will <strong>not</strong> be counted as a correct response. For the example above, 'rose' would be correct or 'flower', but not 'plant'. When soccer players are depicted, 'soccer', 'football', 'soccer players' will be correct, but not 'humans', 'outdoors', or 'sports'. You do not need to describe the image in full, just name the main object in it <strong>in one or two words</strong>. All images depict objects from one of the following broad level categories: animals, inanimate objects, plants, sports, vehicles, and food. Recognizing means knowing <strong>more</strong> than these broad labels for a given image. But we always encourage you to <strong>make a guess</strong> if you can. Note that you are allowed to use <strong>Dutch and English</strong> in your answers, whatever comes easiest for you.</p><p>Press any key to continue.</p></div>","32","instructions","html-keyboard-response","4","455836","0.0-4.0","3527971","co39361","norming","","","","","","",""
"92859.00000000006","<div style='word-wrap: break-word; width: 900px'><h3>Instructions</h3> <p>Next, the solution image will be revealed to you and you'll be asked to indicate how strong your <strong>aha-experience</strong> was after seeing the solution. This describes the positive feeling of the 'click' you sometimes experience, when the pieces of the 'puzzle' fall together and you suddenly have 'insight' in the image.</p><img src='aha.jpg' height='188' width='250'></img><p>Note that there are no right or wrong answers. We are interested in what <strong>you</strong> see in the image and how <strong>you</strong> feel about it.</p><p>Press any key to start the experiment.</p></div>","32","instructions","html-keyboard-response","5","548695","0.0-5.0","3527971","co39361","norming","","","","","","",""
"null","<div style=""font-size:60px;""> </div>","null","fixation","html-keyboard-response","6","548897","0.0-6.0-0.0","3527971","co39361","norming","","","","","","",""
"null","../img/tt/1279tt.jpg","null","mooney1","image-keyboard-response","7","551906","0.0-6.0-1.0","3527971","co39361","norming","","","","","","",""
"5807","","","post_mooney1_questions","survey-likert","8","557715","0.0-6.0-2.0","3527971","co39361","norming","","","{""curiosity"":6,""confidence"":1}","[0,1]","../img/tt/1279tt.jpg","",""
"5294.999999999884","","","recognition","survey-text","9","563014","0.0-6.0-3.0","3527971","co39361","norming","","","{""guess"":""landscape""}","","../img/tt/1279tt.jpg","",""
"null","../img/gs/1279gs.jpg","null","reveal","image-keyboard-response","10","565017","0.0-6.0-4.0","3527971","co39361","norming","","","","","","",""
"null","../img/tt/1279tt.jpg","null","mooney2","image-keyboard-response","11","567019","0.0-6.0-5.0","3527971","co39361","norming","","","","","","",""
"3666","","","post_reveal_questions","survey-likert","12","570685","0.0-6.0-6.0","3527971","co39361","norming","","","{""aha"":4}","[0]","../img/tt/1279tt.jpg","",""
"null","<div style=""font-size:60px;""> </div>","null","fixation","html-keyboard-response","13","570888","0.0-6.0-0.1","3527971","co39361","norming","","","","","","",""
"null","../img/tt/194tt.jpg","null","mooney1","image-keyboard-response","14","573889","0.0-6.0-1.1","3527971","co39361","norming","","","","","","",""
"5936","","","post_mooney1_questions","survey-likert","15","579826","0.0-6.0-2.1","3527971","co39361","norming","","","{""curiosity"":1,""confidence"":5}","[0,1]","../img/tt/194tt.jpg","",""
"4351","","","recognition","survey-text","16","584183","0.0-6.0-3.1","3527971","co39361","norming","","","{""guess"":""vrouw op bank""}","","../img/tt/194tt.jpg","",""
"null","../img/gs/194gs.jpg","null","reveal","image-keyboard-response","17","586185","0.0-6.0-4.1","3527971","co39361","norming","","","","","","",""
"null","../img/tt/194tt.jpg","null","mooney2","image-keyboard-response","18","588186","0.0-6.0-5.1","3527971","co39361","norming","","","","","","",""
"4616","","","post_reveal_questions","survey-likert","19","592804","0.0-6.0-6.1","3527971","co39361","norming","","","{""aha"":2}","[0]","../img/tt/194tt.jpg","",""
"null","<div style=""font-size:60px;""> </div>","null","fixation","html-keyboard-response","20","593007","0.0-6.0-0.2","3527971","co39361","norming","","","","","","",""
"null","../img/tt/094tt.jpg","null","mooney1","image-keyboard-response","21","596009","0.0-6.0-1.2","3527971","co39361","norming","","","","","","",""
"5364","","","post_mooney1_questions","survey-likert","22","601375","0.0-6.0-2.2","3527971","co39361","norming","","","{""curiosity"":5,""confidence"":3}","[0,1]","../img/tt/094tt.jpg","",""
"2456","","","recognition","survey-text","23","603836","0.0-6.0-3.2","3527971","co39361","norming","","","{""guess"":""hond""}","","../img/tt/094tt.jpg","",""
"null","../img/gs/094gs.jpg","null","reveal","image-keyboard-response","24","605838","0.0-6.0-4.2","3527971","co39361","norming","","","","","","",""
"null","../img/tt/094tt.jpg","null","mooney2","image-keyboard-response","25","607840","0.0-6.0-5.2","3527971","co39361","norming","","","","","","",""
"3726","","","post_reveal_questions","survey-likert","26","611568","0.0-6.0-6.2","3527971","co39361","norming","","","{""aha"":3}","[0]","../img/tt/094tt.jpg","",""
"null","<div style=""font-size:60px;""> </div>","null","fixation","html-keyboard-response","27","611771","0.0-6.0-0.3","3527971","co39361","norming","","","","","","",""
"null","../img/tt/007tt.jpg","null","mooney1","image-keyboard-response","28","614773","0.0-6.0-1.3","3527971","co39361","norming","","","","","","",""
"5366","","","post_mooney1_questions","survey-likert","29","620140","0.0-6.0-2.3","3527971","co39361","norming","","","{""curiosity"":5,""confidence"":3}","[0,1]","../img/tt/007tt.jpg","",""
"7577","","","recognition","survey-text","30","627722","0.0-6.0-3.3","3527971","co39361","norming","","","{""guess"":""dier met lange oren""}","","../img/tt/007tt.jpg","",""
"null","../img/gs/007gs.jpg","null","reveal","image-keyboard-response","31","629724","0.0-6.0-4.3","3527971","co39361","norming","","","","","","",""
"null","../img/tt/007tt.jpg","null","mooney2","image-keyboard-response","32","631726","0.0-6.0-5.3","3527971","co39361","norming","","","","","","",""
"3286","","","post_reveal_questions","survey-likert","33","635013","0.0-6.0-6.3","3527971","co39361","norming","","","{""aha"":4}","[0]","../img/tt/007tt.jpg","",""
"null","<div style=""font-size:60px;""> </div>","null","fixation","html-keyboard-response","34","635215","0.0-6.0-0.4","3527971","co39361","norming","","","","","","",""
"null","../img/tt/1148tt.jpg","null","mooney1","image-keyboard-response","35","638217","0.0-6.0-1.4","3527971","co39361","norming","","","","","","",""
"6026.000000000116","","","post_mooney1_questions","survey-likert","36","644244","0.0-6.0-2.4","3527971","co39361","norming","","","{""curiosity"":6,""confidence"":1}","[0,1]","../img/tt/1148tt.jpg","",""
"6678.999999999884","","","recognition","survey-text","37","650928","0.0-6.0-3.4","3527971","co39361","norming","","","{""guess"":""festival""}","","../img/tt/1148tt.jpg","",""
"null","../img/gs/1148gs.jpg","null","reveal","image-keyboard-response","38","652930","0.0-6.0-4.4","3527971","co39361","norming","","","","","","",""
"null","../img/tt/1148tt.jpg","null","mooney2","image-keyboard-response","39","654932","0.0-6.0-5.4","3527971","co39361","norming","","","","","","",""
"3541","","","post_reveal_questions","survey-likert","40","658474","0.0-6.0-6.4","3527971","co39361","norming","","","{""aha"":1}","[0]","../img/tt/1148tt.jpg","",""
"null","<div style=""font-size:60px;""> </div>","null","fixation","html-keyboard-response","41","658676","0.0-6.0-0.5","3527971","co39361","norming","","","","","","",""
"null","../img/tt/084tt.jpg","null","mooney1","image-keyboard-response","42","661678","0.0-6.0-1.5","3527971","co39361","norming","","","","","","",""
"6309","","","post_mooney1_questions","survey-likert","43","667989","0.0-6.0-2.5","3527971","co39361","norming","","","{""curiosity"":6,""confidence"":0}","[0,1]","../img/tt/084tt.jpg","",""
"6325.999999999884","","","recognition","survey-text","44","674320","0.0-6.0-3.5","3527971","co39361","norming","","","{""guess"":""""}","","../img/tt/084tt.jpg","",""
"null","../img/gs/084gs.jpg","null","reveal","image-keyboard-response","45","676322","0.0-6.0-4.5","3527971","co39361","norming","","","","","","",""
"null","../img/tt/084tt.jpg","null","mooney2","image-keyboard-response","46","678324","0.0-6.0-5.5","3527971","co39361","norming","","","","","","",""
"2678","","","post_reveal_questions","survey-likert","47","681004","0.0-6.0-6.5","3527971","co39361","norming","","","{""aha"":5}","[0]","../img/tt/084tt.jpg","",""
"null","<div style=""font-size:60px;""> </div>","null","fixation","html-keyboard-response","48","681206","0.0-6.0-0.6","3527971","co39361","norming","","","","","","",""
"null","../img/tt/405tt.jpg","null","mooney1","image-keyboard-response","49","684208","0.0-6.0-1.6","3527971","co39361","norming","","","","","","",""
"5524","","","post_mooney1_questions","survey-likert","50","689733","0.0-6.0-2.6","3527971","co39361","norming","","","{""curiosity"":6,""confidence"":0}","[0,1]","../img/tt/405tt.jpg","",""
"1216","","","recognition","survey-text","51","690954","0.0-6.0-3.6","3527971","co39361","norming","","","{""guess"":""""}","","../img/tt/405tt.jpg","",""
"null","../img/gs/405gs.jpg","null","reveal","image-keyboard-response","52","692956","0.0-6.0-4.6","3527971","co39361","norming","","","","","","",""
"null","../img/tt/405tt.jpg","null","mooney2","image-keyboard-response","53","694959","0.0-6.0-5.6","3527971","co39361","norming","","","","","","",""
"3555","","","post_reveal_questions","survey-likert","54","698515","0.0-6.0-6.6","3527971","co39361","norming","","","{""aha"":5}","[0]","../img/tt/405tt.jpg","",""
"null","<div style=""font-size:60px;""> </div>","null","fixation","html-keyboard-response","55","698717","0.0-6.0-0.7","3527971","co39361","norming","","","","","","",""
"null","../img/tt/1232tt.jpg","null","mooney1","image-keyboard-response","56","701719","0.0-6.0-1.7","3527971","co39361","norming","","","","","","",""
"3841.9999999998836","","","post_mooney1_questions","survey-likert","57","705562","0.0-6.0-2.7","3527971","co39361","norming","","","{""curiosity"":6,""confidence"":0}","[0,1]","../img/tt/1232tt.jpg","",""
"1083","","","recognition","survey-text","58","706651","0.0-6.0-3.7","3527971","co39361","norming","","","{""guess"":""""}","","../img/tt/1232tt.jpg","",""
"null","../img/gs/1232gs.jpg","null","reveal","image-keyboard-response","59","708653","0.0-6.0-4.7","3527971","co39361","norming","","","","","","",""
"null","../img/tt/1232tt.jpg","null","mooney2","image-keyboard-response","60","710655","0.0-6.0-5.7","3527971","co39361","norming","","","","","","",""
"3666","","","post_reveal_questions","survey-likert","61","714323","0.0-6.0-6.7","3527971","co39361","norming","","","{""aha"":6}","[0]","../img/tt/1232tt.jpg","",""
"null","<div style=""font-size:60px;""> </div>","null","fixation","html-keyboard-response","62","714526","0.0-6.0-0.8","3527971","co39361","norming","","","","","","",""
"null","../img/tt/412tt.jpg","null","mooney1","image-keyboard-response","63","717528","0.0-6.0-1.8","3527971","co39361","norming","","","","","","",""
"5587","","","post_mooney1_questions","survey-likert","64","723117","0.0-6.0-2.8","3527971","co39361","norming","","","{""curiosity"":4,""confidence"":2}","[0,1]","../img/tt/412tt.jpg","",""
"3611","","","recognition","survey-text","65","726734","0.0-6.0-3.8","3527971","co39361","norming","","","{""guess"":""man op bank""}","","../img/tt/412tt.jpg","",""
"null","../img/gs/412gs.jpg","null","reveal","image-keyboard-response","66","728735","0.0-6.0-4.8","3527971","co39361","norming","","","","","","",""
"null","../img/tt/412tt.jpg","null","mooney2","image-keyboard-response","67","730737","0.0-6.0-5.8","3527971","co39361","norming","","","","","","",""
"3496","","","post_reveal_questions","survey-likert","68","734235","0.0-6.0-6.8","3527971","co39361","norming","","","{""aha"":0}","[0]","../img/tt/412tt.jpg","",""
"null","<div style=""font-size:60px;""> </div>","null","fixation","html-keyboard-response","69","734437","0.0-6.0-0.9","3527971","co39361","norming","","","","","","",""
"null","../img/tt/1154tt.jpg","null","mooney1","image-keyboard-response","70","737439","0.0-6.0-1.9","3527971","co39361","norming","","","","","","",""
"4313","","","post_mooney1_questions","survey-likert","71","741754","0.0-6.0-2.9","3527971","co39361","norming","","","{""curiosity"":5,""confidence"":1}","[0,1]","../img/tt/1154tt.jpg","",""
"2568.0000000001164","","","recognition","survey-text","72","744326","0.0-6.0-3.9","3527971","co39361","norming","","","{""guess"":""paard""}","","../img/tt/1154tt.jpg","",""
"null","../img/gs/1154gs.jpg","null","reveal","image-keyboard-response","73","746328","0.0-6.0-4.9","3527971","co39361","norming","","","","","","",""
"null","../img/tt/1154tt.jpg","null","mooney2","image-keyboard-response","74","748331","0.0-6.0-5.9","3527971","co39361","norming","","","","","","",""
"3776","","","post_reveal_questions","survey-likert","75","752108","0.0-6.0-6.9","3527971","co39361","norming","","","{""aha"":5}","[0]","../img/tt/1154tt.jpg","",""
"null","<div style=""font-size:60px;""> </div>","null","fixation","html-keyboard-response","76","752310","0.0-6.0-0.10","3527971","co39361","norming","","","","","","",""
"null","../img/tt/1307tt.jpg","null","mooney1","image-keyboard-response","77","755313","0.0-6.0-1.10","3527971","co39361","norming","","","","","","",""
"4640","","","post_mooney1_questions","survey-likert","78","759953","0.0-6.0-2.10","3527971","co39361","norming","","","{""curiosity"":5,""confidence"":2}","[0,1]","../img/tt/1307tt.jpg","",""
"6550","","","recognition","survey-text","79","766508","0.0-6.0-3.10","3527971","co39361","norming","","","{""guess"":""draaiend rat""}","","../img/tt/1307tt.jpg","",""
"null","../img/gs/1307gs.jpg","null","reveal","image-keyboard-response","80","768510","0.0-6.0-4.10","3527971","co39361","norming","","","","","","",""
"null","../img/tt/1307tt.jpg","null","mooney2","image-keyboard-response","81","770513","0.0-6.0-5.10","3527971","co39361","norming","","","","","","",""
"4058.0000000001164","","","post_reveal_questions","survey-likert","82","774572","0.0-6.0-6.10","3527971","co39361","norming","","","{""aha"":0}","[0]","../img/tt/1307tt.jpg","",""
"null","<div style=""font-size:60px;""> </div>","null","fixation","html-keyboard-response","83","774775","0.0-6.0-0.11","3527971","co39361","norming","","","","","","",""
"null","../img/tt/273tt.jpg","null","mooney1","image-keyboard-response","84","777777","0.0-6.0-1.11","3527971","co39361","norming","","","","","","",""
"4472.000000000116","","","post_mooney1_questions","survey-likert","85","782250","0.0-6.0-2.11","3527971","co39361","norming","","","{""curiosity"":6,""confidence"":1}","[0,1]","../img/tt/273tt.jpg","",""
"1068.9999999998836","","","recognition","survey-text","86","783324","0.0-6.0-3.11","3527971","co39361","norming","","","{""guess"":""""}","","../img/tt/273tt.jpg","",""
"null","../img/gs/273gs.jpg","null","reveal","image-keyboard-response","87","785326","0.0-6.0-4.11","3527971","co39361","norming","","","","","","",""
"null","../img/tt/273tt.jpg","null","mooney2","image-keyboard-response","88","787328","0.0-6.0-5.11","3527971","co39361","norming","","","","","","",""
"2619","","","post_reveal_questions","survey-likert","89","789948","0.0-6.0-6.11","3527971","co39361","norming","","","{""aha"":6}","[0]","../img/tt/273tt.jpg","",""
"null","<div style=""font-size:60px;""> </div>","null","fixation","html-keyboard-response","90","790150","0.0-6.0-0.12","3527971","co39361","norming","","","","","","",""
"null","../img/tt/121tt.jpg","null","mooney1","image-keyboard-response","91","793153","0.0-6.0-1.12","3527971","co39361","norming","","","","","","",""
"9842.999999999884","","","post_mooney1_questions","survey-likert","92","802997","0.0-6.0-2.12","3527971","co39361","norming","","","{""curiosity"":5,""confidence"":1}","[0,1]","../img/tt/121tt.jpg","",""
"5979.000000000116","","","recognition","survey-text","93","808981","0.0-6.0-3.12","3527971","co39361","norming","","","{""guess"":""watersport""}","","../img/tt/121tt.jpg","",""
"null","../img/gs/121gs.jpg","null","reveal","image-keyboard-response","94","810983","0.0-6.0-4.12","3527971","co39361","norming","","","","","","",""
"null","../img/tt/121tt.jpg","null","mooney2","image-keyboard-response","95","812985","0.0-6.0-5.12","3527971","co39361","norming","","","","","","",""
"4494","","","post_reveal_questions","survey-likert","96","817480","0.0-6.0-6.12","3527971","co39361","norming","","","{""aha"":5}","[0]","../img/tt/121tt.jpg","",""
"null","<div style=""font-size:60px;""> </div>","null","fixation","html-keyboard-response","97","817682","0.0-6.0-0.13","3527971","co39361","norming","","","","","","",""
"null","../img/tt/1227tt.jpg","null","mooney1","image-keyboard-response","98","820685","0.0-6.0-1.13","3527971","co39361","norming","","","","","","",""
"6274","","","post_mooney1_questions","survey-likert","99","826960","0.0-6.0-2.13","3527971","co39361","norming","","","{""curiosity"":6,""confidence"":0}","[0,1]","../img/tt/1227tt.jpg","",""
"1173","","","recognition","survey-text","100","828137","0.0-6.0-3.13","3527971","co39361","norming","","","{""guess"":""""}","","../img/tt/1227tt.jpg","",""
"null","../img/gs/1227gs.jpg","null","reveal","image-keyboard-response","101","830139","0.0-6.0-4.13","3527971","co39361","norming","","","","","","",""
"null","../img/tt/1227tt.jpg","null","mooney2","image-keyboard-response","102","832141","0.0-6.0-5.13","3527971","co39361","norming","","","","","","",""
"2255","","","post_reveal_questions","survey-likert","103","834397","0.0-6.0-6.13","3527971","co39361","norming","","","{""aha"":4}","[0]","../img/tt/1227tt.jpg","",""
"null","<div style=""font-size:60px;""> </div>","null","fixation","html-keyboard-response","104","834599","0.0-6.0-0.14","3527971","co39361","norming","","","","","","",""
"null","../img/tt/085tt.jpg","null","mooney1","image-keyboard-response","105","837601","0.0-6.0-1.14","3527971","co39361","norming","","","","","","",""
"4468","","","post_mooney1_questions","survey-likert","106","842070","0.0-6.0-2.14","3527971","co39361","norming","","","{""curiosity"":4,""confidence"":2}","[0,1]","../img/tt/085tt.jpg","",""
"4104.000000000116","","","recognition","survey-text","107","846179","0.0-6.0-3.14","3527971","co39361","norming","","","{""guess"":""sprinkhaan""}","","../img/tt/085tt.jpg","",""
"null","../img/gs/085gs.jpg","null","reveal","image-keyboard-response","108","848181","0.0-6.0-4.14","3527971","co39361","norming","","","","","","",""
"null","../img/tt/085tt.jpg","null","mooney2","image-keyboard-response","109","850183","0.0-6.0-5.14","3527971","co39361","norming","","","","","","",""
"3373","","","post_reveal_questions","survey-likert","110","853556","0.0-6.0-6.14","3527971","co39361","norming","","","{""aha"":4}","[0]","../img/tt/085tt.jpg","",""
"null","<div style=""font-size:60px;""> </div>","null","fixation","html-keyboard-response","111","853758","0.0-6.0-0.15","3527971","co39361","norming","","","","","","",""
"null","../img/tt/1226tt.jpg","null","mooney1","image-keyboard-response","112","856760","0.0-6.0-1.15","3527971","co39361","norming","","","","","","",""
"4932","","","post_mooney1_questions","survey-likert","113","861693","0.0-6.0-2.15","3527971","co39361","norming","","","{""curiosity"":3,""confidence"":4}","[0,1]","../img/tt/1226tt.jpg","",""
"3250.9999999998836","","","recognition","survey-text","114","864949","0.0-6.0-3.15","3527971","co39361","norming","","","{""guess"":""kip""}","","../img/tt/1226tt.jpg","",""
"null","../img/gs/1226gs.jpg","null","reveal","image-keyboard-response","115","866951","0.0-6.0-4.15","3527971","co39361","norming","","","","","","",""
"null","../img/tt/1226tt.jpg","null","mooney2","image-keyboard-response","116","868953","0.0-6.0-5.15","3527971","co39361","norming","","","","","","",""
"2841","","","post_reveal_questions","survey-likert","117","871795","0.0-6.0-6.15","3527971","co39361","norming","","","{""aha"":1}","[0]","../img/tt/1226tt.jpg","",""
"null","<div style=""font-size:60px;""> </div>","null","fixation","html-keyboard-response","118","871997","0.0-6.0-0.16","3527971","co39361","norming","","","","","","",""
"null","../img/tt/1089tt.jpg","null","mooney1","image-keyboard-response","119","874999","0.0-6.0-1.16","3527971","co39361","norming","","","","","","",""
"8588.999999999884","","","post_mooney1_questions","survey-likert","120","883590","0.0-6.0-2.16","3527971","co39361","norming","","","{""curiosity"":3,""confidence"":4}","[0,1]","../img/tt/1089tt.jpg","",""
"2424","","","recognition","survey-text","121","886019","0.0-6.0-3.16","3527971","co39361","norming","","","{""guess"":""olifanten""}","","../img/tt/1089tt.jpg","",""
"null","../img/gs/1089gs.jpg","null","reveal","image-keyboard-response","122","888021","0.0-6.0-4.16","3527971","co39361","norming","","","","","","",""
"null","../img/tt/1089tt.jpg","null","mooney2","image-keyboard-response","123","890023","0.0-6.0-5.16","3527971","co39361","norming","","","","","","",""
"2856","","","post_reveal_questions","survey-likert","124","892881","0.0-6.0-6.16","3527971","co39361","norming","","","{""aha"":1}","[0]","../img/tt/1089tt.jpg","",""
"null","<div style=""font-size:60px;""> </div>","null","fixation","html-keyboard-response","125","893083","0.0-6.0-0.17","3527971","co39361","norming","","","","","","",""
"null","../img/tt/1250tt.jpg","null","mooney1","image-keyboard-response","126","896085","0.0-6.0-1.17","3527971","co39361","norming","","","","","","",""
"3227","","","post_mooney1_questions","survey-likert","127","899313","0.0-6.0-2.17","3527971","co39361","norming","","","{""curiosity"":6,""confidence"":0}","[0,1]","../img/tt/1250tt.jpg","",""
"810.9999999998836","","","recognition","survey-text","128","900129","0.0-6.0-3.17","3527971","co39361","norming","","","{""guess"":""""}","","../img/tt/1250tt.jpg","",""
"null","../img/gs/1250gs.jpg","null","reveal","image-keyboard-response","129","902131","0.0-6.0-4.17","3527971","co39361","norming","","","","","","",""
"null","../img/tt/1250tt.jpg","null","mooney2","image-keyboard-response","130","904133","0.0-6.0-5.17","3527971","co39361","norming","","","","","","",""
"3254","","","post_reveal_questions","survey-likert","131","907388","0.0-6.0-6.17","3527971","co39361","norming","","","{""aha"":0}","[0]","../img/tt/1250tt.jpg","",""
"null","<div style=""font-size:60px;""> </div>","null","fixation","html-keyboard-response","132","907590","0.0-6.0-0.18","3527971","co39361","norming","","","","","","",""
"null","../img/tt/1202tt.jpg","null","mooney1","image-keyboard-response","133","910592","0.0-6.0-1.18","3527971","co39361","norming","","","","","","",""
"5518","","","post_mooney1_questions","survey-likert","134","916112","0.0-6.0-2.18","3527971","co39361","norming","","","{""curiosity"":6,""confidence"":1}","[0,1]","../img/tt/1202tt.jpg","",""
"807.0000000001164","","","recognition","survey-text","135","916924","0.0-6.0-3.18","3527971","co39361","norming","","","{""guess"":""""}","","../img/tt/1202tt.jpg","",""
"null","../img/gs/1202gs.jpg","null","reveal","image-keyboard-response","136","918926","0.0-6.0-4.18","3527971","co39361","norming","","","","","","",""
"null","../img/tt/1202tt.jpg","null","mooney2","image-keyboard-response","137","920928","0.0-6.0-5.18","3527971","co39361","norming","","","","","","",""
"3288.9999999998836","","","post_reveal_questions","survey-likert","138","924218","0.0-6.0-6.18","3527971","co39361","norming","","","{""aha"":5}","[0]","../img/tt/1202tt.jpg","",""
"null","<div style=""font-size:60px;""> </div>","null","fixation","html-keyboard-response","139","924421","0.0-6.0-0.19","3527971","co39361","norming","","","","","","",""
"null","../img/tt/1096tt.jpg","null","mooney1","image-keyboard-response","140","927423","0.0-6.0-1.19","3527971","co39361","norming","","","","","","",""
"4947","","","post_mooney1_questions","survey-likert","141","932372","0.0-6.0-2.19","3527971","co39361","norming","","","{""curiosity"":3,""confidence"":3}","[0,1]","../img/tt/1096tt.jpg","",""
"1327","","","recognition","survey-text","142","933704","0.0-6.0-3.19","3527971","co39361","norming","","","{""guess"":""koe""}","","../img/tt/1096tt.jpg","",""
"null","../img/gs/1096gs.jpg","null","reveal","image-keyboard-response","143","935706","0.0-6.0-4.19","3527971","co39361","norming","","","","","","",""
"null","../img/tt/1096tt.jpg","null","mooney2","image-keyboard-response","144","937708","0.0-6.0-5.19","3527971","co39361","norming","","","","","","",""
"2206","","","post_reveal_questions","survey-likert","145","939915","0.0-6.0-6.19","3527971","co39361","norming","","","{""aha"":6}","[0]","../img/tt/1096tt.jpg","",""
"null","<div style=""font-size:60px;""> </div>","null","fixation","html-keyboard-response","146","940118","0.0-6.0-0.20","3527971","co39361","norming","","","","","","",""
"null","../img/tt/1024tt.jpg","null","mooney1","image-keyboard-response","147","943120","0.0-6.0-1.20","3527971","co39361","norming","","","","","","",""
"3797.0000000001164","","","post_mooney1_questions","survey-likert","148","946919","0.0-6.0-2.20","3527971","co39361","norming","","","{""curiosity"":5,""confidence"":2}","[0,1]","../img/tt/1024tt.jpg","",""
"7718.999999999884","","","recognition","survey-text","149","954643","0.0-6.0-3.20","3527971","co39361","norming","","","{""guess"":""sportende man""}","","../img/tt/1024tt.jpg","",""
"null","../img/gs/1024gs.jpg","null","reveal","image-keyboard-response","150","956645","0.0-6.0-4.20","3527971","co39361","norming","","","","","","",""
"null","../img/tt/1024tt.jpg","null","mooney2","image-keyboard-response","151","958647","0.0-6.0-5.20","3527971","co39361","norming","","","","","","",""
"3687","","","post_reveal_questions","survey-likert","152","962335","0.0-6.0-6.20","3527971","co39361","norming","","","{""aha"":3}","[0]","../img/tt/1024tt.jpg","",""
"null","<div style=""font-size:60px;""> </div>","null","fixation","html-keyboard-response","153","962538","0.0-6.0-0.21","3527971","co39361","norming","","","","","","",""
"null","../img/tt/105tt.jpg","null","mooney1","image-keyboard-response","154","965540","0.0-6.0-1.21","3527971","co39361","norming","","","","","","",""
"3821","","","post_mooney1_questions","survey-likert","155","969362","0.0-6.0-2.21","3527971","co39361","norming","","","{""curiosity"":4,""confidence"":2}","[0,1]","../img/tt/105tt.jpg","",""
"5386","","","recognition","survey-text","156","974753","0.0-6.0-3.21","3527971","co39361","norming","","","{""guess"":""struik""}","","../img/tt/105tt.jpg","",""
"null","../img/gs/105gs.jpg","null","reveal","image-keyboard-response","157","976754","0.0-6.0-4.21","3527971","co39361","norming","","","","","","",""
"null","../img/tt/105tt.jpg","null","mooney2","image-keyboard-response","158","978757","0.0-6.0-5.21","3527971","co39361","norming","","","","","","",""
"3149","","","post_reveal_questions","survey-likert","159","981907","0.0-6.0-6.21","3527971","co39361","norming","","","{""aha"":6}","[0]","../img/tt/105tt.jpg","",""
"null","<div style=""font-size:60px;""> </div>","null","fixation","html-keyboard-response","160","982109","0.0-6.0-0.22","3527971","co39361","norming","","","","","","",""
"null","../img/tt/515tt.jpg","null","mooney1","image-keyboard-response","161","985112","0.0-6.0-1.22","3527971","co39361","norming","","","","","","",""
"3977","","","post_mooney1_questions","survey-likert","162","989090","0.0-6.0-2.22","3527971","co39361","norming","","","{""curiosity"":1,""confidence"":5}","[0,1]","../img/tt/515tt.jpg","",""
"3249","","","recognition","survey-text","163","992343","0.0-6.0-3.22","3527971","co39361","norming","","","{""guess"":""vogels""}","","../img/tt/515tt.jpg","",""
"null","../img/gs/515gs.jpg","null","reveal","image-keyboard-response","164","994345","0.0-6.0-4.22","3527971","co39361","norming","","","","","","",""
"null","../img/tt/515tt.jpg","null","mooney2","image-keyboard-response","165","996347","0.0-6.0-5.22","3527971","co39361","norming","","","","","","",""
"4078","","","post_reveal_questions","survey-likert","166","1000426","0.0-6.0-6.22","3527971","co39361","norming","","","{""aha"":5}","[0]","../img/tt/515tt.jpg","",""
"null","<div style=""font-size:60px;""> </div>","null","fixation","html-keyboard-response","167","1000628","0.0-6.0-0.23","3527971","co39361","norming","","","","","","",""
"null","../img/tt/1086tt.jpg","null","mooney1","image-keyboard-response","168","1003630","0.0-6.0-1.23","3527971","co39361","norming","","","","","","",""
"9996","","","post_mooney1_questions","survey-likert","169","1013628","0.0-6.0-2.23","3527971","co39361","norming","","","{""curiosity"":6,""confidence"":1}","[0,1]","../img/tt/1086tt.jpg","",""
"963","","","recognition","survey-text","170","1014597","0.0-6.0-3.23","3527971","co39361","norming","","","{""guess"":""""}","","../img/tt/1086tt.jpg","",""
"null","../img/gs/1086gs.jpg","null","reveal","image-keyboard-response","171","1016598","0.0-6.0-4.23","3527971","co39361","norming","","","","","","",""
"null","../img/tt/1086tt.jpg","null","mooney2","image-keyboard-response","172","1018601","0.0-6.0-5.23","3527971","co39361","norming","","","","","","",""
"3363.9999999998836","","","post_reveal_questions","survey-likert","173","1021966","0.0-6.0-6.23","3527971","co39361","norming","","","{""aha"":5}","[0]","../img/tt/1086tt.jpg","",""
"null","<div style=""font-size:60px;""> </div>","null","fixation","html-keyboard-response","174","1022168","0.0-6.0-0.24","3527971","co39361","norming","","","","","","",""
"null","../img/tt/1309tt.jpg","null","mooney1","image-keyboard-response","175","1025170","0.0-6.0-1.24","3527971","co39361","norming","","","","","","",""
"3864","","","post_mooney1_questions","survey-likert","176","1029035","0.0-6.0-2.24","3527971","co39361","norming","","","{""curiosity"":1,""confidence"":5}","[0,1]","../img/tt/1309tt.jpg","",""
"3488.0000000001164","","","recognition","survey-text","177","1032528","0.0-6.0-3.24","3527971","co39361","norming","","","{""guess"":""auto""}","","../img/tt/1309tt.jpg","",""
"null","../img/gs/1309gs.jpg","null","reveal","image-keyboard-response","178","1034529","0.0-6.0-4.24","3527971","co39361","norming","","","","","","",""
"null","../img/tt/1309tt.jpg","null","mooney2","image-keyboard-response","179","1036531","0.0-6.0-5.24","3527971","co39361","norming","","","","","","",""
"4382.999999999767","","","post_reveal_questions","survey-likert","180","1040916","0.0-6.0-6.24","3527971","co39361","norming","","","{""aha"":4}","[0]","../img/tt/1309tt.jpg","",""
"null","<div style=""font-size:60px;""> </div>","null","fixation","html-keyboard-response","181","1041117","0.0-6.0-0.25","3527971","co39361","norming","","","","","","",""
"null","../img/tt/053tt.jpg","null","mooney1","image-keyboard-response","182","1044120","0.0-6.0-1.25","3527971","co39361","norming","","","","","","",""
"5399.999999999884","","","post_mooney1_questions","survey-likert","183","1049522","0.0-6.0-2.25","3527971","co39361","norming","","","{""curiosity"":5,""confidence"":2}","[0,1]","../img/tt/053tt.jpg","",""
"3377","","","recognition","survey-text","184","1052903","0.0-6.0-3.25","3527971","co39361","norming","","","{""guess"":""waterval""}","","../img/tt/053tt.jpg","",""
"null","../img/gs/053gs.jpg","null","reveal","image-keyboard-response","185","1054905","0.0-6.0-4.25","3527971","co39361","norming","","","","","","",""
"null","../img/tt/053tt.jpg","null","mooney2","image-keyboard-response","186","1056907","0.0-6.0-5.25","3527971","co39361","norming","","","","","","",""
"3313","","","post_reveal_questions","survey-likert","187","1060222","0.0-6.0-6.25","3527971","co39361","norming","","","{""aha"":4}","[0]","../img/tt/053tt.jpg","",""
"null","<div style=""font-size:60px;""> </div>","null","fixation","html-keyboard-response","188","1060424","0.0-6.0-0.26","3527971","co39361","norming","","","","","","",""
"null","../img/tt/064tt.jpg","null","mooney1","image-keyboard-response","189","1063425","0.0-6.0-1.26","3527971","co39361","norming","","","","","","",""
"4116.999999999767","","","post_mooney1_questions","survey-likert","190","1067543","0.0-6.0-2.26","3527971","co39361","norming","","","{""curiosity"":1,""confidence"":6}","[0,1]","../img/tt/064tt.jpg","",""
"3146","","","recognition","survey-text","191","1070695","0.0-6.0-3.26","3527971","co39361","norming","","","{""guess"":""schildpad""}","","../img/tt/064tt.jpg","",""
"null","../img/gs/064gs.jpg","null","reveal","image-keyboard-response","192","1072697","0.0-6.0-4.26","3527971","co39361","norming","","","","","","",""
"null","../img/tt/064tt.jpg","null","mooney2","image-keyboard-response","193","1074698","0.0-6.0-5.26","3527971","co39361","norming","","","","","","",""
"1567","","","post_reveal_questions","survey-likert","194","1076265","0.0-6.0-6.26","3527971","co39361","norming","","","{""aha"":0}","[0]","../img/tt/064tt.jpg","",""
"null","<div style=""font-size:60px;""> </div>","null","fixation","html-keyboard-response","195","1076467","0.0-6.0-0.27","3527971","co39361","norming","","","","","","",""
"null","../img/tt/1012tt.jpg","null","mooney1","image-keyboard-response","196","1079470","0.0-6.0-1.27","3527971","co39361","norming","","","","","","",""
"3800","","","post_mooney1_questions","survey-likert","197","1083271","0.0-6.0-2.27","3527971","co39361","norming","","","{""curiosity"":3,""confidence"":3}","[0,1]","../img/tt/1012tt.jpg","",""
"2142.000000000233","","","recognition","survey-text","198","1085418","0.0-6.0-3.27","3527971","co39361","norming","","","{""guess"":""slang""}","","../img/tt/1012tt.jpg","",""
"null","../img/gs/1012gs.jpg","null","reveal","image-keyboard-response","199","1087420","0.0-6.0-4.27","3527971","co39361","norming","","","","","","",""
"null","../img/tt/1012tt.jpg","null","mooney2","image-keyboard-response","200","1089422","0.0-6.0-5.27","3527971","co39361","norming","","","","","","",""
"2854","","","post_reveal_questions","survey-likert","201","1092277","0.0-6.0-6.27","3527971","co39361","norming","","","{""aha"":6}","[0]","../img/tt/1012tt.jpg","",""
"null","<div style=""font-size:60px;""> </div>","null","fixation","html-keyboard-response","202","1092479","0.0-6.0-0.28","3527971","co39361","norming","","","","","","",""
"null","../img/tt/524tt.jpg","null","mooney1","image-keyboard-response","203","1095481","0.0-6.0-1.28","3527971","co39361","norming","","","","","","",""
"4370","","","post_mooney1_questions","survey-likert","204","1099851","0.0-6.0-2.28","3527971","co39361","norming","","","{""curiosity"":5,""confidence"":2}","[0,1]","../img/tt/524tt.jpg","",""
"4295","","","recognition","survey-text","205","1104150","0.0-6.0-3.28","3527971","co39361","norming","","","{""guess"":""paardenhoofd""}","","../img/tt/524tt.jpg","",""
"null","../img/gs/524gs.jpg","null","reveal","image-keyboard-response","206","1106152","0.0-6.0-4.28","3527971","co39361","norming","","","","","","",""
"null","../img/tt/524tt.jpg","null","mooney2","image-keyboard-response","207","1108154","0.0-6.0-5.28","3527971","co39361","norming","","","","","","",""
"4022.000000000233","","","post_reveal_questions","survey-likert","208","1112177","0.0-6.0-6.28","3527971","co39361","norming","","","{""aha"":3}","[0]","../img/tt/524tt.jpg","",""
"null","<div style=""font-size:60px;""> </div>","null","fixation","html-keyboard-response","209","1112379","0.0-6.0-0.29","3527971","co39361","norming","","","","","","",""
"null","../img/tt/1043tt.jpg","null","mooney1","image-keyboard-response","210","1115381","0.0-6.0-1.29","3527971","co39361","norming","","","","","","",""
"7090","","","post_mooney1_questions","survey-likert","211","1122473","0.0-6.0-2.29","3527971","co39361","norming","","","{""curiosity"":6,""confidence"":1}","[0,1]","../img/tt/1043tt.jpg","",""
"1165","","","recognition","survey-text","212","1123642","0.0-6.0-3.29","3527971","co39361","norming","","","{""guess"":""""}","","../img/tt/1043tt.jpg","",""
"null","../img/gs/1043gs.jpg","null","reveal","image-keyboard-response","213","1125644","0.0-6.0-4.29","3527971","co39361","norming","","","","","","",""
"null","../img/tt/1043tt.jpg","null","mooney2","image-keyboard-response","214","1127645","0.0-6.0-5.29","3527971","co39361","norming","","","","","","",""
"10354","","","post_reveal_questions","survey-likert","215","1138001","0.0-6.0-6.29","3527971","co39361","norming","","","{""aha"":6}","[0]","../img/tt/1043tt.jpg","",""
"null","<div style=""font-size:60px;""> </div>","null","fixation","html-keyboard-response","216","1138203","0.0-6.0-0.30","3527971","co39361","norming","","","","","","",""
"null","../img/tt/1278tt.jpg","null","mooney1","image-keyboard-response","217","1141206","0.0-6.0-1.30","3527971","co39361","norming","","","","","","",""
"3815","","","post_mooney1_questions","survey-likert","218","1145022","0.0-6.0-2.30","3527971","co39361","norming","","","{""curiosity"":3,""confidence"":3}","[0,1]","../img/tt/1278tt.jpg","",""
"2447","","","recognition","survey-text","219","1147474","0.0-6.0-3.30","3527971","co39361","norming","","","{""guess"":""acrobaat""}","","../img/tt/1278tt.jpg","",""
"null","../img/gs/1278gs.jpg","null","reveal","image-keyboard-response","220","1149476","0.0-6.0-4.30","3527971","co39361","norming","","","","","","",""
"null","../img/tt/1278tt.jpg","null","mooney2","image-keyboard-response","221","1151479","0.0-6.0-5.30","3527971","co39361","norming","","","","","","",""
"3803.000000000233","","","post_reveal_questions","survey-likert","222","1155283","0.0-6.0-6.30","3527971","co39361","norming","","","{""aha"":1}","[0]","../img/tt/1278tt.jpg","",""
"null","<div style=""font-size:60px;""> </div>","null","fixation","html-keyboard-response","223","1155485","0.0-6.0-0.31","3527971","co39361","norming","","","","","","",""
"null","../img/tt/1040tt.jpg","null","mooney1","image-keyboard-response","224","1158487","0.0-6.0-1.31","3527971","co39361","norming","","","","","","",""
"3175","","","post_mooney1_questions","survey-likert","225","1161664","0.0-6.0-2.31","3527971","co39361","norming","","","{""curiosity"":6,""confidence"":0}","[0,1]","../img/tt/1040tt.jpg","",""
"715","","","recognition","survey-text","226","1162384","0.0-6.0-3.31","3527971","co39361","norming","","","{""guess"":""""}","","../img/tt/1040tt.jpg","",""
"null","../img/gs/1040gs.jpg","null","reveal","image-keyboard-response","227","1164386","0.0-6.0-4.31","3527971","co39361","norming","","","","","","",""
"null","../img/tt/1040tt.jpg","null","mooney2","image-keyboard-response","228","1166388","0.0-6.0-5.31","3527971","co39361","norming","","","","","","",""
"2840.999999999767","","","post_reveal_questions","survey-likert","229","1169230","0.0-6.0-6.31","3527971","co39361","norming","","","{""aha"":6}","[0]","../img/tt/1040tt.jpg","",""
"null","<div style=""font-size:60px;""> </div>","null","fixation","html-keyboard-response","230","1169432","0.0-6.0-0.32","3527971","co39361","norming","","","","","","",""
"null","../img/tt/1270tt.jpg","null","mooney1","image-keyboard-response","231","1172434","0.0-6.0-1.32","3527971","co39361","norming","","","","","","",""
"4821","","","post_mooney1_questions","survey-likert","232","1177256","0.0-6.0-2.32","3527971","co39361","norming","","","{""curiosity"":6,""confidence"":0}","[0,1]","../img/tt/1270tt.jpg","",""
"1996","","","recognition","survey-text","233","1179257","0.0-6.0-3.32","3527971","co39361","norming","","","{""guess"":""""}","","../img/tt/1270tt.jpg","",""
"null","../img/gs/1270gs.jpg","null","reveal","image-keyboard-response","234","1181259","0.0-6.0-4.32","3527971","co39361","norming","","","","","","",""
"null","../img/tt/1270tt.jpg","null","mooney2","image-keyboard-response","235","1183261","0.0-6.0-5.32","3527971","co39361","norming","","","","","","",""
"2844","","","post_reveal_questions","survey-likert","236","1186106","0.0-6.0-6.32","3527971","co39361","norming","","","{""aha"":5}","[0]","../img/tt/1270tt.jpg","",""
"null","<div style=""font-size:60px;""> </div>","null","fixation","html-keyboard-response","237","1186308","0.0-6.0-0.33","3527971","co39361","norming","","","","","","",""
"null","../img/tt/1353tt.jpg","null","mooney1","image-keyboard-response","238","1189311","0.0-6.0-1.33","3527971","co39361","norming","","","","","","",""
"4384.999999999767","","","post_mooney1_questions","survey-likert","239","1193697","0.0-6.0-2.33","3527971","co39361","norming","","","{""curiosity"":3,""confidence"":3}","[0,1]","../img/tt/1353tt.jpg","",""
"990","","","recognition","survey-text","240","1194693","0.0-6.0-3.33","3527971","co39361","norming","","","{""guess"":""dino""}","","../img/tt/1353tt.jpg","",""
"null","../img/gs/1353gs.jpg","null","reveal","image-keyboard-response","241","1196695","0.0-6.0-4.33","3527971","co39361","norming","","","","","","",""
"null","../img/tt/1353tt.jpg","null","mooney2","image-keyboard-response","242","1198697","0.0-6.0-5.33","3527971","co39361","norming","","","","","","",""
"2532","","","post_reveal_questions","survey-likert","243","1201230","0.0-6.0-6.33","3527971","co39361","norming","","","{""aha"":1}","[0]","../img/tt/1353tt.jpg","",""
"null","<div style=""font-size:60px;""> </div>","null","fixation","html-keyboard-response","244","1201433","0.0-6.0-0.34","3527971","co39361","norming","","","","","","",""
"null","../img/tt/296tt.jpg","null","mooney1","image-keyboard-response","245","1204435","0.0-6.0-1.34","3527971","co39361","norming","","","","","","",""
"3561","","","post_mooney1_questions","survey-likert","246","1207997","0.0-6.0-2.34","3527971","co39361","norming","","","{""curiosity"":3,""confidence"":3}","[0,1]","../img/tt/296tt.jpg","",""
"4083","","","recognition","survey-text","247","1212086","0.0-6.0-3.34","3527971","co39361","norming","","","{""guess"":""skatebord""}","","../img/tt/296tt.jpg","",""
"null","../img/gs/296gs.jpg","null","reveal","image-keyboard-response","248","1214088","0.0-6.0-4.34","3527971","co39361","norming","","","","","","",""
"null","../img/tt/296tt.jpg","null","mooney2","image-keyboard-response","249","1216090","0.0-6.0-5.34","3527971","co39361","norming","","","","","","",""
"2698.999999999767","","","post_reveal_questions","survey-likert","250","1218790","0.0-6.0-6.34","3527971","co39361","norming","","","{""aha"":6}","[0]","../img/tt/296tt.jpg","",""
"null","<div style=""font-size:60px;""> </div>","null","fixation","html-keyboard-response","251","1218993","0.0-6.0-0.35","3527971","co39361","norming","","","","","","",""
"null","../img/tt/1048tt.jpg","null","mooney1","image-keyboard-response","252","1221994","0.0-6.0-1.35","3527971","co39361","norming","","","","","","",""
"5717","","","post_mooney1_questions","survey-likert","253","1227712","0.0-6.0-2.35","3527971","co39361","norming","","","{""curiosity"":3,""confidence"":6}","[0,1]","../img/tt/1048tt.jpg","",""
"2021.9999999997672","","","recognition","survey-text","254","1229738","0.0-6.0-3.35","3527971","co39361","norming","","","{""guess"":""stal""}","","../img/tt/1048tt.jpg","",""
"null","../img/gs/1048gs.jpg","null","reveal","image-keyboard-response","255","1231740","0.0-6.0-4.35","3527971","co39361","norming","","","","","","",""
"null","../img/tt/1048tt.jpg","null","mooney2","image-keyboard-response","256","1233742","0.0-6.0-5.35","3527971","co39361","norming","","","","","","",""
"4383","","","post_reveal_questions","survey-likert","257","1238127","0.0-6.0-6.35","3527971","co39361","norming","","","{""aha"":5}","[0]","../img/tt/1048tt.jpg","",""
"null","<div style=""font-size:60px;""> </div>","null","fixation","html-keyboard-response","258","1238329","0.0-6.0-0.36","3527971","co39361","norming","","","","","","",""
"null","../img/tt/063tt.jpg","null","mooney1","image-keyboard-response","259","1241332","0.0-6.0-1.36","3527971","co39361","norming","","","","","","",""
"5003","","","post_mooney1_questions","survey-likert","260","1246335","0.0-6.0-2.36","3527971","co39361","norming","","","{""curiosity"":6,""confidence"":2}","[0,1]","../img/tt/063tt.jpg","",""
"5219","","","recognition","survey-text","261","1251558","0.0-6.0-3.36","3527971","co39361","norming","","","{""guess"":""cd verzameling""}","","../img/tt/063tt.jpg","",""
"null","../img/gs/063gs.jpg","null","reveal","image-keyboard-response","262","1253560","0.0-6.0-4.36","3527971","co39361","norming","","","","","","",""
"null","../img/tt/063tt.jpg","null","mooney2","image-keyboard-response","263","1255562","0.0-6.0-5.36","3527971","co39361","norming","","","","","","",""
"3253","","","post_reveal_questions","survey-likert","264","1258817","0.0-6.0-6.36","3527971","co39361","norming","","","{""aha"":5}","[0]","../img/tt/063tt.jpg","",""
"null","<div style=""font-size:60px;""> </div>","null","fixation","html-keyboard-response","265","1259019","0.0-6.0-0.37","3527971","co39361","norming","","","","","","",""
"null","../img/tt/1247tt.jpg","null","mooney1","image-keyboard-response","266","1262021","0.0-6.0-1.37","3527971","co39361","norming","","","","","","",""
"3599","","","post_mooney1_questions","survey-likert","267","1265621","0.0-6.0-2.37","3527971","co39361","norming","","","{""curiosity"":6,""confidence"":0}","[0,1]","../img/tt/1247tt.jpg","",""
"712","","","recognition","survey-text","268","1266337","0.0-6.0-3.37","3527971","co39361","norming","","","{""guess"":""""}","","../img/tt/1247tt.jpg","",""
"null","../img/gs/1247gs.jpg","null","reveal","image-keyboard-response","269","1268339","0.0-6.0-4.37","3527971","co39361","norming","","","","","","",""
"null","../img/tt/1247tt.jpg","null","mooney2","image-keyboard-response","270","1270342","0.0-6.0-5.37","3527971","co39361","norming","","","","","","",""
"3114.000000000233","","","post_reveal_questions","survey-likert","271","1273456","0.0-6.0-6.37","3527971","co39361","norming","","","{""aha"":6}","[0]","../img/tt/1247tt.jpg","",""
"null","<div style=""font-size:60px;""> </div>","null","fixation","html-keyboard-response","272","1273659","0.0-6.0-0.38","3527971","co39361","norming","","","","","","",""
"null","../img/tt/055tt.jpg","null","mooney1","image-keyboard-response","273","1276661","0.0-6.0-1.38","3527971","co39361","norming","","","","","","",""
"3108","","","post_mooney1_questions","survey-likert","274","1279770","0.0-6.0-2.38","3527971","co39361","norming","","","{""curiosity"":6,""confidence"":0}","[0,1]","../img/tt/055tt.jpg","",""
"595.0000000002328","","","recognition","survey-text","275","1280370","0.0-6.0-3.38","3527971","co39361","norming","","","{""guess"":""""}","","../img/tt/055tt.jpg","",""
"null","../img/gs/055gs.jpg","null","reveal","image-keyboard-response","276","1282372","0.0-6.0-4.38","3527971","co39361","norming","","","","","","",""
"null","../img/tt/055tt.jpg","null","mooney2","image-keyboard-response","277","1284374","0.0-6.0-5.38","3527971","co39361","norming","","","","","","",""
"1629.0000000002328","","","post_reveal_questions","survey-likert","278","1286005","0.0-6.0-6.38","3527971","co39361","norming","","","{""aha"":5}","[0]","../img/tt/055tt.jpg","",""
"null","<div style=""font-size:60px;""> </div>","null","fixation","html-keyboard-response","279","1286206","0.0-6.0-0.39","3527971","co39361","norming","","","","","","",""
"null","../img/tt/1151tt.jpg","null","mooney1","image-keyboard-response","280","1289209","0.0-6.0-1.39","3527971","co39361","norming","","","","","","",""
"3611","","","post_mooney1_questions","survey-likert","281","1292820","0.0-6.0-2.39","3527971","co39361","norming","","","{""curiosity"":6,""confidence"":0}","[0,1]","../img/tt/1151tt.jpg","",""
"1572","","","recognition","survey-text","282","1294397","0.0-6.0-3.39","3527971","co39361","norming","","","{""guess"":""""}","","../img/tt/1151tt.jpg","",""
"null","../img/gs/1151gs.jpg","null","reveal","image-keyboard-response","283","1296399","0.0-6.0-4.39","3527971","co39361","norming","","","","","","",""
"null","../img/tt/1151tt.jpg","null","mooney2","image-keyboard-response","284","1298401","0.0-6.0-5.39","3527971","co39361","norming","","","","","","",""
"1621","","","post_reveal_questions","survey-likert","285","1300023","0.0-6.0-6.39","3527971","co39361","norming","","","{""aha"":6}","[0]","../img/tt/1151tt.jpg","",""
"null","<div style=""font-size:60px;""> </div>","null","fixation","html-keyboard-response","286","1300226","0.0-6.0-0.40","3527971","co39361","norming","","","","","","",""
"null","../img/tt/279tt.jpg","null","mooney1","image-keyboard-response","287","1303228","0.0-6.0-1.40","3527971","co39361","norming","","","","","","",""
"3379","","","post_mooney1_questions","survey-likert","288","1306608","0.0-6.0-2.40","3527971","co39361","norming","","","{""curiosity"":3,""confidence"":3}","[0,1]","../img/tt/279tt.jpg","",""
"1321","","","recognition","survey-text","289","1307934","0.0-6.0-3.40","3527971","co39361","norming","","","{""guess"":""panda""}","","../img/tt/279tt.jpg","",""
"null","../img/gs/279gs.jpg","null","reveal","image-keyboard-response","290","1309936","0.0-6.0-4.40","3527971","co39361","norming","","","","","","",""
"null","../img/tt/279tt.jpg","null","mooney2","image-keyboard-response","291","1311938","0.0-6.0-5.40","3527971","co39361","norming","","","","","","",""
"3282","","","post_reveal_questions","survey-likert","292","1315222","0.0-6.0-6.40","3527971","co39361","norming","","","{""aha"":5}","[0]","../img/tt/279tt.jpg","",""
"null","<div style=""font-size:60px;""> </div>","null","fixation","html-keyboard-response","293","1315424","0.0-6.0-0.41","3527971","co39361","norming","","","","","","",""
"null","../img/tt/1363tt.jpg","null","mooney1","image-keyboard-response","294","1318426","0.0-6.0-1.41","3527971","co39361","norming","","","","","","",""
"4231.999999999767","","","post_mooney1_questions","survey-likert","295","1322660","0.0-6.0-2.41","3527971","co39361","norming","","","{""curiosity"":6,""confidence"":0}","[0,1]","../img/tt/1363tt.jpg","",""
"1009","","","recognition","survey-text","296","1323673","0.0-6.0-3.41","3527971","co39361","norming","","","{""guess"":""""}","","../img/tt/1363tt.jpg","",""
"null","../img/gs/1363gs.jpg","null","reveal","image-keyboard-response","297","1325675","0.0-6.0-4.41","3527971","co39361","norming","","","","","","",""
"null","../img/tt/1363tt.jpg","null","mooney2","image-keyboard-response","298","1327677","0.0-6.0-5.41","3527971","co39361","norming","","","","","","",""
"7174.999999999767","","","post_reveal_questions","survey-likert","299","1334853","0.0-6.0-6.41","3527971","co39361","norming","","","{""aha"":5}","[0]","../img/tt/1363tt.jpg","",""
"null","<div style=""font-size:60px;""> </div>","null","fixation","html-keyboard-response","300","1335056","0.0-6.0-0.42","3527971","co39361","norming","","","","","","",""
"null","../img/tt/567tt.jpg","null","mooney1","image-keyboard-response","301","1338058","0.0-6.0-1.42","3527971","co39361","norming","","","","","","",""
"5124","","","post_mooney1_questions","survey-likert","302","1343184","0.0-6.0-2.42","3527971","co39361","norming","","","{""curiosity"":1,""confidence"":6}","[0,1]","../img/tt/567tt.jpg","",""
"4282.999999999767","","","recognition","survey-text","303","1347471","0.0-6.0-3.42","3527971","co39361","norming","","","{""guess"":""broodrooster""}","","../img/tt/567tt.jpg","",""
"null","../img/gs/567gs.jpg","null","reveal","image-keyboard-response","304","1349473","0.0-6.0-4.42","3527971","co39361","norming","","","","","","",""
"null","../img/tt/567tt.jpg","null","mooney2","image-keyboard-response","305","1351475","0.0-6.0-5.42","3527971","co39361","norming","","","","","","",""
"3097.999999999767","","","post_reveal_questions","survey-likert","306","1354574","0.0-6.0-6.42","3527971","co39361","norming","","","{""aha"":4}","[0]","../img/tt/567tt.jpg","",""
"null","<div style=""font-size:60px;""> </div>","null","fixation","html-keyboard-response","307","1354777","0.0-6.0-0.43","3527971","co39361","norming","","","","","","",""
"null","../img/tt/1101tt.jpg","null","mooney1","image-keyboard-response","308","1357779","0.0-6.0-1.43","3527971","co39361","norming","","","","","","",""
"7981","","","post_mooney1_questions","survey-likert","309","1365762","0.0-6.0-2.43","3527971","co39361","norming","","","{""curiosity"":4,""confidence"":4}","[0,1]","../img/tt/1101tt.jpg","",""
"4189","","","recognition","survey-text","310","1369956","0.0-6.0-3.43","3527971","co39361","norming","","","{""guess"":""voetballer""}","","../img/tt/1101tt.jpg","",""
"null","../img/gs/1101gs.jpg","null","reveal","image-keyboard-response","311","1371958","0.0-6.0-4.43","3527971","co39361","norming","","","","","","",""
"null","../img/tt/1101tt.jpg","null","mooney2","image-keyboard-response","312","1373960","0.0-6.0-5.43","3527971","co39361","norming","","","","","","",""
"2590","","","post_reveal_questions","survey-likert","313","1376551","0.0-6.0-6.43","3527971","co39361","norming","","","{""aha"":4}","[0]","../img/tt/1101tt.jpg","",""
"null","<div style=""font-size:60px;""> </div>","null","fixation","html-keyboard-response","314","1376754","0.0-6.0-0.44","3527971","co39361","norming","","","","","","",""
"null","../img/tt/080tt.jpg","null","mooney1","image-keyboard-response","315","1379756","0.0-6.0-1.44","3527971","co39361","norming","","","","","","",""
"4241","","","post_mooney1_questions","survey-likert","316","1383998","0.0-6.0-2.44","3527971","co39361","norming","","","{""curiosity"":6,""confidence"":0}","[0,1]","../img/tt/080tt.jpg","",""
"723","","","recognition","survey-text","317","1384726","0.0-6.0-3.44","3527971","co39361","norming","","","{""guess"":""""}","","../img/tt/080tt.jpg","",""
"null","../img/gs/080gs.jpg","null","reveal","image-keyboard-response","318","1386727","0.0-6.0-4.44","3527971","co39361","norming","","","","","","",""
"null","../img/tt/080tt.jpg","null","mooney2","image-keyboard-response","319","1388730","0.0-6.0-5.44","3527971","co39361","norming","","","","","","",""
"2371","","","post_reveal_questions","survey-likert","320","1391102","0.0-6.0-6.44","3527971","co39361","norming","","","{""aha"":5}","[0]","../img/tt/080tt.jpg","",""
"null","<div style=""font-size:60px;""> </div>","null","fixation","html-keyboard-response","321","1391305","0.0-6.0-0.45","3527971","co39361","norming","","","","","","",""
"null","../img/tt/118tt.jpg","null","mooney1","image-keyboard-response","322","1394307","0.0-6.0-1.45","3527971","co39361","norming","","","","","","",""
"4379","","","post_mooney1_questions","survey-likert","323","1398687","0.0-6.0-2.45","3527971","co39361","norming","","","{""curiosity"":3,""confidence"":3}","[0,1]","../img/tt/118tt.jpg","",""
"2401.000000000233","","","recognition","survey-text","324","1401092","0.0-6.0-3.45","3527971","co39361","norming","","","{""guess"":""trap""}","","../img/tt/118tt.jpg","",""
"null","../img/gs/118gs.jpg","null","reveal","image-keyboard-response","325","1403094","0.0-6.0-4.45","3527971","co39361","norming","","","","","","",""
"null","../img/tt/118tt.jpg","null","mooney2","image-keyboard-response","326","1405095","0.0-6.0-5.45","3527971","co39361","norming","","","","","","",""
"2776","","","post_reveal_questions","survey-likert","327","1407872","0.0-6.0-6.45","3527971","co39361","norming","","","{""aha"":6}","[0]","../img/tt/118tt.jpg","",""
"null","<div style=""font-size:60px;""> </div>","null","fixation","html-keyboard-response","328","1408075","0.0-6.0-0.46","3527971","co39361","norming","","","","","","",""
"null","../img/tt/189tt.jpg","null","mooney1","image-keyboard-response","329","1411077","0.0-6.0-1.46","3527971","co39361","norming","","","","","","",""
"11267","","","post_mooney1_questions","survey-likert","330","1422345","0.0-6.0-2.46","3527971","co39361","norming","","","{""curiosity"":3,""confidence"":3}","[0,1]","../img/tt/189tt.jpg","",""
"2081","","","recognition","survey-text","331","1424430","0.0-6.0-3.46","3527971","co39361","norming","","","{""guess"":""vogel""}","","../img/tt/189tt.jpg","",""
"null","../img/gs/189gs.jpg","null","reveal","image-keyboard-response","332","1426432","0.0-6.0-4.46","3527971","co39361","norming","","","","","","",""
"null","../img/tt/189tt.jpg","null","mooney2","image-keyboard-response","333","1428434","0.0-6.0-5.46","3527971","co39361","norming","","","","","","",""
"1606","","","post_reveal_questions","survey-likert","334","1430041","0.0-6.0-6.46","3527971","co39361","norming","","","{""aha"":6}","[0]","../img/tt/189tt.jpg","",""
"null","<div style=""font-size:60px;""> </div>","null","fixation","html-keyboard-response","335","1430244","0.0-6.0-0.47","3527971","co39361","norming","","","","","","",""
"null","../img/tt/1027tt.jpg","null","mooney1","image-keyboard-response","336","1433246","0.0-6.0-1.47","3527971","co39361","norming","","","","","","",""
"4683","","","post_mooney1_questions","survey-likert","337","1437930","0.0-6.0-2.47","3527971","co39361","norming","","","{""curiosity"":3,""confidence"":6}","[0,1]","../img/tt/1027tt.jpg","",""
"1779","","","recognition","survey-text","338","1439715","0.0-6.0-3.47","3527971","co39361","norming","","","{""guess"":""koe""}","","../img/tt/1027tt.jpg","",""
"null","../img/gs/1027gs.jpg","null","reveal","image-keyboard-response","339","1441717","0.0-6.0-4.47","3527971","co39361","norming","","","","","","",""
"null","../img/tt/1027tt.jpg","null","mooney2","image-keyboard-response","340","1443719","0.0-6.0-5.47","3527971","co39361","norming","","","","","","",""
"1428","","","post_reveal_questions","survey-likert","341","1445147","0.0-6.0-6.47","3527971","co39361","norming","","","{""aha"":1}","[0]","../img/tt/1027tt.jpg","",""
"null","<div style=""font-size:60px;""> </div>","null","fixation","html-keyboard-response","342","1445350","0.0-6.0-0.48","3527971","co39361","norming","","","","","","",""
"null","../img/tt/580tt.jpg","null","mooney1","image-keyboard-response","343","1448352","0.0-6.0-1.48","3527971","co39361","norming","","","","","","",""
"5147","","","post_mooney1_questions","survey-likert","344","1453501","0.0-6.0-2.48","3527971","co39361","norming","","","{""curiosity"":6,""confidence"":2}","[0,1]","../img/tt/580tt.jpg","",""
"4117","","","recognition","survey-text","345","1457622","0.0-6.0-3.48","3527971","co39361","norming","","","{""guess"":""tijger""}","","../img/tt/580tt.jpg","",""
"null","../img/gs/580gs.jpg","null","reveal","image-keyboard-response","346","1459624","0.0-6.0-4.48","3527971","co39361","norming","","","","","","",""
"null","../img/tt/580tt.jpg","null","mooney2","image-keyboard-response","347","1461626","0.0-6.0-5.48","3527971","co39361","norming","","","","","","",""
"2676","","","post_reveal_questions","survey-likert","348","1464303","0.0-6.0-6.48","3527971","co39361","norming","","","{""aha"":6}","[0]","../img/tt/580tt.jpg","",""
"null","<div style=""font-size:60px;""> </div>","null","fixation","html-keyboard-response","349","1464505","0.0-6.0-0.49","3527971","co39361","norming","","","","","","",""
"null","../img/tt/1127tt.jpg","null","mooney1","image-keyboard-response","350","1467506","0.0-6.0-1.49","3527971","co39361","norming","","","","","","",""
"4730","","","post_mooney1_questions","survey-likert","351","1472238","0.0-6.0-2.49","3527971","co39361","norming","","","{""curiosity"":4,""confidence"":6}","[0,1]","../img/tt/1127tt.jpg","",""
"4483","","","recognition","survey-text","352","1476724","0.0-6.0-3.49","3527971","co39361","norming","","","{""guess"":""cafe""}","","../img/tt/1127tt.jpg","",""
"null","../img/gs/1127gs.jpg","null","reveal","image-keyboard-response","353","1478726","0.0-6.0-4.49","3527971","co39361","norming","","","","","","",""
"null","../img/tt/1127tt.jpg","null","mooney2","image-keyboard-response","354","1480728","0.0-6.0-5.49","3527971","co39361","norming","","","","","","",""
"5007","","","post_reveal_questions","survey-likert","355","1485736","0.0-6.0-6.49","3527971","co39361","norming","","","{""aha"":4}","[0]","../img/tt/1127tt.jpg","",""
"null","<div style=""font-size:60px;""> </div>","null","fixation","html-keyboard-response","356","1485938","0.0-6.0-0.50","3527971","co39361","norming","","","","","","",""
"null","../img/tt/1080tt.jpg","null","mooney1","image-keyboard-response","357","1488941","0.0-6.0-1.50","3527971","co39361","norming","","","","","","",""
"7248","","","post_mooney1_questions","survey-likert","358","1496190","0.0-6.0-2.50","3527971","co39361","norming","","","{""curiosity"":6,""confidence"":0}","[0,1]","../img/tt/1080tt.jpg","",""
"2132","","","recognition","survey-text","359","1498326","0.0-6.0-3.50","3527971","co39361","norming","","","{""guess"":""""}","","../img/tt/1080tt.jpg","",""
"null","../img/gs/1080gs.jpg","null","reveal","image-keyboard-response","360","1500327","0.0-6.0-4.50","3527971","co39361","norming","","","","","","",""
"null","../img/tt/1080tt.jpg","null","mooney2","image-keyboard-response","361","1502328","0.0-6.0-5.50","3527971","co39361","norming","","","","","","",""
"3266","","","post_reveal_questions","survey-likert","362","1505596","0.0-6.0-6.50","3527971","co39361","norming","","","{""aha"":5}","[0]","../img/tt/1080tt.jpg","",""
"null","<div style=""font-size:60px;""> </div>","null","fixation","html-keyboard-response","363","1505799","0.0-6.0-0.51","3527971","co39361","norming","","","","","","",""
"null","../img/tt/060tt.jpg","null","mooney1","image-keyboard-response","364","1508801","0.0-6.0-1.51","3527971","co39361","norming","","","","","","",""
"3519","","","post_mooney1_questions","survey-likert","365","1512321","0.0-6.0-2.51","3527971","co39361","norming","","","{""curiosity"":3,""confidence"":3}","[0,1]","../img/tt/060tt.jpg","",""
"3418","","","recognition","survey-text","366","1515744","0.0-6.0-3.51","3527971","co39361","norming","","","{""guess"":""broodje""}","","../img/tt/060tt.jpg","",""
"null","../img/gs/060gs.jpg","null","reveal","image-keyboard-response","367","1517746","0.0-6.0-4.51","3527971","co39361","norming","","","","","","",""
"null","../img/tt/060tt.jpg","null","mooney2","image-keyboard-response","368","1519747","0.0-6.0-5.51","3527971","co39361","norming","","","","","","",""
"2205","","","post_reveal_questions","survey-likert","369","1521954","0.0-6.0-6.51","3527971","co39361","norming","","","{""aha"":5}","[0]","../img/tt/060tt.jpg","",""
"null","<div style=""font-size:60px;""> </div>","null","fixation","html-keyboard-response","370","1522157","0.0-6.0-0.52","3527971","co39361","norming","","","","","","",""
"null","../img/tt/1254tt.jpg","null","mooney1","image-keyboard-response","371","1525159","0.0-6.0-1.52","3527971","co39361","norming","","","","","","",""
"3621.999999999767","","","post_mooney1_questions","survey-likert","372","1528783","0.0-6.0-2.52","3527971","co39361","norming","","","{""curiosity"":6,""confidence"":1}","[0,1]","../img/tt/1254tt.jpg","",""
"6900","","","recognition","survey-text","373","1535687","0.0-6.0-3.52","3527971","co39361","norming","","","{""guess"":""pratende mensen""}","","../img/tt/1254tt.jpg","",""
"null","../img/gs/1254gs.jpg","null","reveal","image-keyboard-response","374","1537689","0.0-6.0-4.52","3527971","co39361","norming","","","","","","",""
"null","../img/tt/1254tt.jpg","null","mooney2","image-keyboard-response","375","1539691","0.0-6.0-5.52","3527971","co39361","norming","","","","","","",""
"2906","","","post_reveal_questions","survey-likert","376","1542598","0.0-6.0-6.52","3527971","co39361","norming","","","{""aha"":4}","[0]","../img/tt/1254tt.jpg","",""
"null","<div style=""font-size:60px;""> </div>","null","fixation","html-keyboard-response","377","1542801","0.0-6.0-0.53","3527971","co39361","norming","","","","","","",""
"null","../img/tt/456tt.jpg","null","mooney1","image-keyboard-response","378","1545803","0.0-6.0-1.53","3527971","co39361","norming","","","","","","",""
"3333.999999999767","","","post_mooney1_questions","survey-likert","379","1549139","0.0-6.0-2.53","3527971","co39361","norming","","","{""curiosity"":3,""confidence"":3}","[0,1]","../img/tt/456tt.jpg","",""
"2369","","","recognition","survey-text","380","1551512","0.0-6.0-3.53","3527971","co39361","norming","","","{""guess"":""hond""}","","../img/tt/456tt.jpg","",""
"null","../img/gs/456gs.jpg","null","reveal","image-keyboard-response","381","1553514","0.0-6.0-4.53","3527971","co39361","norming","","","","","","",""
"null","../img/tt/456tt.jpg","null","mooney2","image-keyboard-response","382","1555516","0.0-6.0-5.53","3527971","co39361","norming","","","","","","",""
"1676","","","post_reveal_questions","survey-likert","383","1557193","0.0-6.0-6.53","3527971","co39361","norming","","","{""aha"":6}","[0]","../img/tt/456tt.jpg","",""
"null","<div style=""font-size:60px;""> </div>","null","fixation","html-keyboard-response","384","1557396","0.0-6.0-0.54","3527971","co39361","norming","","","","","","",""
"null","../img/tt/1211tt.jpg","null","mooney1","image-keyboard-response","385","1560398","0.0-6.0-1.54","3527971","co39361","norming","","","","","","",""
"3831","","","post_mooney1_questions","survey-likert","386","1564230","0.0-6.0-2.54","3527971","co39361","norming","","","{""curiosity"":6,""confidence"":0}","[0,1]","../img/tt/1211tt.jpg","",""
"891","","","recognition","survey-text","387","1565125","0.0-6.0-3.54","3527971","co39361","norming","","","{""guess"":""""}","","../img/tt/1211tt.jpg","",""
"null","../img/gs/1211gs.jpg","null","reveal","image-keyboard-response","388","1567127","0.0-6.0-4.54","3527971","co39361","norming","","","","","","",""
"null","../img/tt/1211tt.jpg","null","mooney2","image-keyboard-response","389","1569130","0.0-6.0-5.54","3527971","co39361","norming","","","","","","",""
"2743","","","post_reveal_questions","survey-likert","390","1571873","0.0-6.0-6.54","3527971","co39361","norming","","","{""aha"":5}","[0]","../img/tt/1211tt.jpg","",""
"null","<div style=""font-size:60px;""> </div>","null","fixation","html-keyboard-response","391","1572075","0.0-6.0-0.55","3527971","co39361","norming","","","","","","",""
"null","../img/tt/078tt.jpg","null","mooney1","image-keyboard-response","392","1575076","0.0-6.0-1.55","3527971","co39361","norming","","","","","","",""
"3551","","","post_mooney1_questions","survey-likert","393","1578629","0.0-6.0-2.55","3527971","co39361","norming","","","{""curiosity"":6,""confidence"":0}","[0,1]","../img/tt/078tt.jpg","",""
"763","","","recognition","survey-text","394","1579397","0.0-6.0-3.55","3527971","co39361","norming","","","{""guess"":""""}","","../img/tt/078tt.jpg","",""
"null","../img/gs/078gs.jpg","null","reveal","image-keyboard-response","395","1581398","0.0-6.0-4.55","3527971","co39361","norming","","","","","","",""
"null","../img/tt/078tt.jpg","null","mooney2","image-keyboard-response","396","1583399","0.0-6.0-5.55","3527971","co39361","norming","","","","","","",""
"2241.999999999767","","","post_reveal_questions","survey-likert","397","1585642","0.0-6.0-6.55","3527971","co39361","norming","","","{""aha"":6}","[0]","../img/tt/078tt.jpg","",""
"null","<div style=""font-size:60px;""> </div>","null","fixation","html-keyboard-response","398","1585845","0.0-6.0-0.56","3527971","co39361","norming","","","","","","",""
"null","../img/tt/1272tt.jpg","null","mooney1","image-keyboard-response","399","1588847","0.0-6.0-1.56","3527971","co39361","norming","","","","","","",""
"5712","","","post_mooney1_questions","survey-likert","400","1594561","0.0-6.0-2.56","3527971","co39361","norming","","","{""curiosity"":6,""confidence"":1}","[0,1]","../img/tt/1272tt.jpg","",""
"1409.9999999997672","","","recognition","survey-text","401","1595975","0.0-6.0-3.56","3527971","co39361","norming","","","{""guess"":""sneeuw""}","","../img/tt/1272tt.jpg","",""
"null","../img/gs/1272gs.jpg","null","reveal","image-keyboard-response","402","1597977","0.0-6.0-4.56","3527971","co39361","norming","","","","","","",""
"null","../img/tt/1272tt.jpg","null","mooney2","image-keyboard-response","403","1599977","0.0-6.0-5.56","3527971","co39361","norming","","","","","","",""
"46183","","","post_reveal_questions","survey-likert","404","1646161","0.0-6.0-6.56","3527971","co39361","norming","","","{""aha"":5}","[0]","../img/tt/1272tt.jpg","",""
"null","<div style=""font-size:60px;""> </div>","null","fixation","html-keyboard-response","405","1646364","0.0-6.0-0.57","3527971","co39361","norming","","","","","","",""
"null","../img/tt/552tt.jpg","null","mooney1","image-keyboard-response","406","1649366","0.0-6.0-1.57","3527971","co39361","norming","","","","","","",""
"7764.000000000233","","","post_mooney1_questions","survey-likert","407","1657132","0.0-6.0-2.57","3527971","co39361","norming","","","{""curiosity"":6,""confidence"":1}","[0,1]","../img/tt/552tt.jpg","",""
"2909.000000000233","","","recognition","survey-text","408","1660046","0.0-6.0-3.57","3527971","co39361","norming","","","{""guess"":""dier""}","","../img/tt/552tt.jpg","",""
"null","../img/gs/552gs.jpg","null","reveal","image-keyboard-response","409","1662047","0.0-6.0-4.57","3527971","co39361","norming","","","","","","",""
"null","../img/tt/552tt.jpg","null","mooney2","image-keyboard-response","410","1664048","0.0-6.0-5.57","3527971","co39361","norming","","","","","","",""
"136395","","","post_reveal_questions","survey-likert","411","1800446","0.0-6.0-6.57","3527971","co39361","norming","","","{""aha"":4}","[0]","../img/tt/552tt.jpg","",""
"null","<div style=""font-size:60px;""> </div>","null","fixation","html-keyboard-response","412","1800648","0.0-6.0-0.58","3527971","co39361","norming","","","","","","",""
"null","../img/tt/1362tt.jpg","null","mooney1","image-keyboard-response","413","1803650","0.0-6.0-1.58","3527971","co39361","norming","","","","","","",""
"4433","","","post_mooney1_questions","survey-likert","414","1808085","0.0-6.0-2.58","3527971","co39361","norming","","","{""curiosity"":5,""confidence"":3}","[0,1]","../img/tt/1362tt.jpg","",""
"1834","","","recognition","survey-text","415","1809923","0.0-6.0-3.58","3527971","co39361","norming","","","{""guess"":""keuken""}","","../img/tt/1362tt.jpg","",""
"null","../img/gs/1362gs.jpg","null","reveal","image-keyboard-response","416","1811925","0.0-6.0-4.58","3527971","co39361","norming","","","","","","",""
"null","../img/tt/1362tt.jpg","null","mooney2","image-keyboard-response","417","1813927","0.0-6.0-5.58","3527971","co39361","norming","","","","","","",""
"2857.000000000233","","","post_reveal_questions","survey-likert","418","1816786","0.0-6.0-6.58","3527971","co39361","norming","","","{""aha"":6}","[0]","../img/tt/1362tt.jpg","",""
"null","<div style=""font-size:60px;""> </div>","null","fixation","html-keyboard-response","419","1816988","0.0-6.0-0.59","3527971","co39361","norming","","","","","","",""
"null","../img/tt/517tt.jpg","null","mooney1","image-keyboard-response","420","1819989","0.0-6.0-1.59","3527971","co39361","norming","","","","","","",""
"4554","","","post_mooney1_questions","survey-likert","421","1824545","0.0-6.0-2.59","3527971","co39361","norming","","","{""curiosity"":4,""confidence"":4}","[0,1]","../img/tt/517tt.jpg","",""
"3000","","","recognition","survey-text","422","1827550","0.0-6.0-3.59","3527971","co39361","norming","","","{""guess"":""panda""}","","../img/tt/517tt.jpg","",""
"null","../img/gs/517gs.jpg","null","reveal","image-keyboard-response","423","1829552","0.0-6.0-4.59","3527971","co39361","norming","","","","","","",""
"null","../img/tt/517tt.jpg","null","mooney2","image-keyboard-response","424","1831554","0.0-6.0-5.59","3527971","co39361","norming","","","","","","",""
"75037","","","post_reveal_questions","survey-likert","425","1906593","0.0-6.0-6.59","3527971","co39361","norming","","","{""aha"":5}","[0]","../img/tt/517tt.jpg","",""
"null","<div style=""font-size:60px;""> </div>","null","fixation","html-keyboard-response","426","1906794","0.0-6.0-0.60","3527971","co39361","norming","","","","","","",""
"null","../img/tt/416tt.jpg","null","mooney1","image-keyboard-response","427","1909796","0.0-6.0-1.60","3527971","co39361","norming","","","","","","",""
"3487.999999999767","","","post_mooney1_questions","survey-likert","428","1913285","0.0-6.0-2.60","3527971","co39361","norming","","","{""curiosity"":6,""confidence"":0}","[0,1]","../img/tt/416tt.jpg","",""
"627","","","recognition","survey-text","429","1913917","0.0-6.0-3.60","3527971","co39361","norming","","","{""guess"":""""}","","../img/tt/416tt.jpg","",""
"null","../img/gs/416gs.jpg","null","reveal","image-keyboard-response","430","1915918","0.0-6.0-4.60","3527971","co39361","norming","","","","","","",""
"null","../img/tt/416tt.jpg","null","mooney2","image-keyboard-response","431","1917920","0.0-6.0-5.60","3527971","co39361","norming","","","","","","",""
"3681","","","post_reveal_questions","survey-likert","432","1921601","0.0-6.0-6.60","3527971","co39361","norming","","","{""aha"":3}","[0]","../img/tt/416tt.jpg","",""
"null","<div style=""font-size:60px;""> </div>","null","fixation","html-keyboard-response","433","1921804","0.0-6.0-0.61","3527971","co39361","norming","","","","","","",""
"null","../img/tt/380tt.jpg","null","mooney1","image-keyboard-response","434","1924806","0.0-6.0-1.61","3527971","co39361","norming","","","","","","",""
"9082","","","post_mooney1_questions","survey-likert","435","1933890","0.0-6.0-2.61","3527971","co39361","norming","","","{""curiosity"":5,""confidence"":3}","[0,1]","../img/tt/380tt.jpg","",""
"5548","","","recognition","survey-text","436","1939442","0.0-6.0-3.61","3527971","co39361","norming","","","{""guess"":""struisvogel""}","","../img/tt/380tt.jpg","",""
"null","../img/gs/380gs.jpg","null","reveal","image-keyboard-response","437","1941444","0.0-6.0-4.61","3527971","co39361","norming","","","","","","",""
"null","../img/tt/380tt.jpg","null","mooney2","image-keyboard-response","438","1943446","0.0-6.0-5.61","3527971","co39361","norming","","","","","","",""
"2710","","","post_reveal_questions","survey-likert","439","1946157","0.0-6.0-6.61","3527971","co39361","norming","","","{""aha"":1}","[0]","../img/tt/380tt.jpg","",""
"null","<div style=""font-size:60px;""> </div>","null","fixation","html-keyboard-response","440","1946359","0.0-6.0-0.62","3527971","co39361","norming","","","","","","",""
"null","../img/tt/1130tt.jpg","null","mooney1","image-keyboard-response","441","1949361","0.0-6.0-1.62","3527971","co39361","norming","","","","","","",""
"3263","","","post_mooney1_questions","survey-likert","442","1952626","0.0-6.0-2.62","3527971","co39361","norming","","","{""curiosity"":6,""confidence"":0}","[0,1]","../img/tt/1130tt.jpg","",""
"660","","","recognition","survey-text","443","1953290","0.0-6.0-3.62","3527971","co39361","norming","","","{""guess"":""""}","","../img/tt/1130tt.jpg","",""
"null","../img/gs/1130gs.jpg","null","reveal","image-keyboard-response","444","1955292","0.0-6.0-4.62","3527971","co39361","norming","","","","","","",""
"null","../img/tt/1130tt.jpg","null","mooney2","image-keyboard-response","445","1957294","0.0-6.0-5.62","3527971","co39361","norming","","","","","","",""
"2917","","","post_reveal_questions","survey-likert","446","1960213","0.0-6.0-6.62","3527971","co39361","norming","","","{""aha"":4}","[0]","../img/tt/1130tt.jpg","",""
"null","<div style=""font-size:60px;""> </div>","null","fixation","html-keyboard-response","447","1960415","0.0-6.0-0.63","3527971","co39361","norming","","","","","","",""
"null","../img/tt/1190tt.jpg","null","mooney1","image-keyboard-response","448","1963418","0.0-6.0-1.63","3527971","co39361","norming","","","","","","",""
"4839.000000000233","","","post_mooney1_questions","survey-likert","449","1968257","0.0-6.0-2.63","3527971","co39361","norming","","","{""curiosity"":6,""confidence"":0}","[0,1]","../img/tt/1190tt.jpg","",""
"1605","","","recognition","survey-text","450","1969867","0.0-6.0-3.63","3527971","co39361","norming","","","{""guess"":""""}","","../img/tt/1190tt.jpg","",""
"null","../img/gs/1190gs.jpg","null","reveal","image-keyboard-response","451","1971868","0.0-6.0-4.63","3527971","co39361","norming","","","","","","",""
"null","../img/tt/1190tt.jpg","null","mooney2","image-keyboard-response","452","1973871","0.0-6.0-5.63","3527971","co39361","norming","","","","","","",""
"2182","","","post_reveal_questions","survey-likert","453","1976053","0.0-6.0-6.63","3527971","co39361","norming","","","{""aha"":1}","[0]","../img/tt/1190tt.jpg","",""
"null","<div style=""font-size:60px;""> </div>","null","fixation","html-keyboard-response","454","1976256","0.0-6.0-0.64","3527971","co39361","norming","","","","","","",""
"null","../img/tt/584tt.jpg","null","mooney1","image-keyboard-response","455","1979258","0.0-6.0-1.64","3527971","co39361","norming","","","","","","",""
"4267","","","post_mooney1_questions","survey-likert","456","1983527","0.0-6.0-2.64","3527971","co39361","norming","","","{""curiosity"":4,""confidence"":4}","[0,1]","../img/tt/584tt.jpg","",""
"2509","","","recognition","survey-text","457","1986041","0.0-6.0-3.64","3527971","co39361","norming","","","{""guess"":""gereedschap""}","","../img/tt/584tt.jpg","",""
"null","../img/gs/584gs.jpg","null","reveal","image-keyboard-response","458","1988042","0.0-6.0-4.64","3527971","co39361","norming","","","","","","",""
"null","../img/tt/584tt.jpg","null","mooney2","image-keyboard-response","459","1990043","0.0-6.0-5.64","3527971","co39361","norming","","","","","","",""
"1850","","","post_reveal_questions","survey-likert","460","1991895","0.0-6.0-6.64","3527971","co39361","norming","","","{""aha"":2}","[0]","../img/tt/584tt.jpg","",""
"null","<div style=""font-size:60px;""> </div>","null","fixation","html-keyboard-response","461","1992097","0.0-6.0-0.65","3527971","co39361","norming","","","","","","",""
"null","../img/tt/1078tt.jpg","null","mooney1","image-keyboard-response","462","1995099","0.0-6.0-1.65","3527971","co39361","norming","","","","","","",""
"4176","","","post_mooney1_questions","survey-likert","463","1999276","0.0-6.0-2.65","3527971","co39361","norming","","","{""curiosity"":5,""confidence"":3}","[0,1]","../img/tt/1078tt.jpg","",""
"2873","","","recognition","survey-text","464","2002154","0.0-6.0-3.65","3527971","co39361","norming","","","{""guess"":""danscafe""}","","../img/tt/1078tt.jpg","",""
"null","../img/gs/1078gs.jpg","null","reveal","image-keyboard-response","465","2004156","0.0-6.0-4.65","3527971","co39361","norming","","","","","","",""
"null","../img/tt/1078tt.jpg","null","mooney2","image-keyboard-response","466","2006158","0.0-6.0-5.65","3527971","co39361","norming","","","","","","",""
"2117","","","post_reveal_questions","survey-likert","467","2008276","0.0-6.0-6.65","3527971","co39361","norming","","","{""aha"":4}","[0]","../img/tt/1078tt.jpg","",""
"null","<div style=""font-size:60px;""> </div>","null","fixation","html-keyboard-response","468","2008478","0.0-6.0-0.66","3527971","co39361","norming","","","","","","",""
"null","../img/tt/306tt.jpg","null","mooney1","image-keyboard-response","469","2011481","0.0-6.0-1.66","3527971","co39361","norming","","","","","","",""
"4526.000000000233","","","post_mooney1_questions","survey-likert","470","2016008","0.0-6.0-2.66","3527971","co39361","norming","","","{""curiosity"":3,""confidence"":4}","[0,1]","../img/tt/306tt.jpg","",""
"1593","","","recognition","survey-text","471","2017606","0.0-6.0-3.66","3527971","co39361","norming","","","{""guess"":""kikkefr""}","","../img/tt/306tt.jpg","",""
"null","../img/gs/306gs.jpg","null","reveal","image-keyboard-response","472","2019608","0.0-6.0-4.66","3527971","co39361","norming","","","","","","",""
"null","../img/tt/306tt.jpg","null","mooney2","image-keyboard-response","473","2021609","0.0-6.0-5.66","3527971","co39361","norming","","","","","","",""
"2713","","","post_reveal_questions","survey-likert","474","2024324","0.0-6.0-6.66","3527971","co39361","norming","","","{""aha"":2}","[0]","../img/tt/306tt.jpg","",""
"null","<div style=""font-size:60px;""> </div>","null","fixation","html-keyboard-response","475","2024526","0.0-6.0-0.67","3527971","co39361","norming","","","","","","",""
"null","../img/tt/126tt.jpg","null","mooney1","image-keyboard-response","476","2027528","0.0-6.0-1.67","3527971","co39361","norming","","","","","","",""
"5341","","","post_mooney1_questions","survey-likert","477","2032871","0.0-6.0-2.67","3527971","co39361","norming","","","{""curiosity"":6,""confidence"":0}","[0,1]","../img/tt/126tt.jpg","",""
"1124","","","recognition","survey-text","478","2034000","0.0-6.0-3.67","3527971","co39361","norming","","","{""guess"":""""}","","../img/tt/126tt.jpg","",""
"null","../img/gs/126gs.jpg","null","reveal","image-keyboard-response","479","2036002","0.0-6.0-4.67","3527971","co39361","norming","","","","","","",""
"null","../img/tt/126tt.jpg","null","mooney2","image-keyboard-response","480","2038003","0.0-6.0-5.67","3527971","co39361","norming","","","","","","",""
"2253","","","post_reveal_questions","survey-likert","481","2040257","0.0-6.0-6.67","3527971","co39361","norming","","","{""aha"":1}","[0]","../img/tt/126tt.jpg","",""
"null","<div style=""font-size:60px;""> </div>","null","fixation","html-keyboard-response","482","2040460","0.0-6.0-0.68","3527971","co39361","norming","","","","","","",""
"null","../img/tt/1044tt.jpg","null","mooney1","image-keyboard-response","483","2043462","0.0-6.0-1.68","3527971","co39361","norming","","","","","","",""
"5046.999999999767","","","post_mooney1_questions","survey-likert","484","2048510","0.0-6.0-2.68","3527971","co39361","norming","","","{""curiosity"":6,""confidence"":1}","[0,1]","../img/tt/1044tt.jpg","",""
"6413.999999999767","","","recognition","survey-text","485","2054928","0.0-6.0-3.68","3527971","co39361","norming","","","{""guess"":""soort hond""}","","../img/tt/1044tt.jpg","",""
"null","../img/gs/1044gs.jpg","null","reveal","image-keyboard-response","486","2056930","0.0-6.0-4.68","3527971","co39361","norming","","","","","","",""
"null","../img/tt/1044tt.jpg","null","mooney2","image-keyboard-response","487","2058932","0.0-6.0-5.68","3527971","co39361","norming","","","","","","",""
"1776.0000000004657","","","post_reveal_questions","survey-likert","488","2060710","0.0-6.0-6.68","3527971","co39361","norming","","","{""aha"":3}","[0]","../img/tt/1044tt.jpg","",""
"null","<div style=""font-size:60px;""> </div>","null","fixation","html-keyboard-response","489","2060913","0.0-6.0-0.69","3527971","co39361","norming","","","","","","",""
"null","../img/tt/507tt.jpg","null","mooney1","image-keyboard-response","490","2063915","0.0-6.0-1.69","3527971","co39361","norming","","","","","","",""
"4144.000000000233","","","post_mooney1_questions","survey-likert","491","2068060","0.0-6.0-2.69","3527971","co39361","norming","","","{""curiosity"":6,""confidence"":0}","[0,1]","../img/tt/507tt.jpg","",""
"1871.9999999997672","","","recognition","survey-text","492","2069937","0.0-6.0-3.69","3527971","co39361","norming","","","{""guess"":""""}","","../img/tt/507tt.jpg","",""
"null","../img/gs/507gs.jpg","null","reveal","image-keyboard-response","493","2071939","0.0-6.0-4.69","3527971","co39361","norming","","","","","","",""
"null","../img/tt/507tt.jpg","null","mooney2","image-keyboard-response","494","2073941","0.0-6.0-5.69","3527971","co39361","norming","","","","","","",""
"2184.999999999767","","","post_reveal_questions","survey-likert","495","2076127","0.0-6.0-6.69","3527971","co39361","norming","","","{""aha"":5}","[0]","../img/tt/507tt.jpg","",""
"null","<div style=""font-size:60px;""> </div>","null","fixation","html-keyboard-response","496","2076330","0.0-6.0-0.70","3527971","co39361","norming","","","","","","",""
"null","../img/tt/1283tt.jpg","null","mooney1","image-keyboard-response","497","2079332","0.0-6.0-1.70","3527971","co39361","norming","","","","","","",""
"2956.999999999767","","","post_mooney1_questions","survey-likert","498","2082290","0.0-6.0-2.70","3527971","co39361","norming","","","{""curiosity"":6,""confidence"":0}","[0,1]","../img/tt/1283tt.jpg","",""
"1124.0000000002328","","","recognition","survey-text","499","2083418","0.0-6.0-3.70","3527971","co39361","norming","","","{""guess"":""""}","","../img/tt/1283tt.jpg","",""
"null","../img/gs/1283gs.jpg","null","reveal","image-keyboard-response","500","2085420","0.0-6.0-4.70","3527971","co39361","norming","","","","","","",""
"null","../img/tt/1283tt.jpg","null","mooney2","image-keyboard-response","501","2087422","0.0-6.0-5.70","3527971","co39361","norming","","","","","","",""
"26846","","","post_reveal_questions","survey-likert","502","2114269","0.0-6.0-6.70","3527971","co39361","norming","","","{""aha"":1}","[0]","../img/tt/1283tt.jpg","",""
"null","<div style=""font-size:60px;""> </div>","null","fixation","html-keyboard-response","503","2114472","0.0-6.0-0.71","3527971","co39361","norming","","","","","","",""
"null","../img/tt/032tt.jpg","null","mooney1","image-keyboard-response","504","2117475","0.0-6.0-1.71","3527971","co39361","norming","","","","","","",""
"3127","","","post_mooney1_questions","survey-likert","505","2120603","0.0-6.0-2.71","3527971","co39361","norming","","","{""curiosity"":6,""confidence"":2}","[0,1]","../img/tt/032tt.jpg","",""
"2568","","","recognition","survey-text","506","2123175","0.0-6.0-3.71","3527971","co39361","norming","","","{""guess"":""natuur""}","","../img/tt/032tt.jpg","",""
"null","../img/gs/032gs.jpg","null","reveal","image-keyboard-response","507","2125177","0.0-6.0-4.71","3527971","co39361","norming","","","","","","",""
"null","../img/tt/032tt.jpg","null","mooney2","image-keyboard-response","508","2127179","0.0-6.0-5.71","3527971","co39361","norming","","","","","","",""
"4079","","","post_reveal_questions","survey-likert","509","2131260","0.0-6.0-6.71","3527971","co39361","norming","","","{""aha"":1}","[0]","../img/tt/032tt.jpg","",""
"null","<div style=""font-size:60px;""> </div>","null","fixation","html-keyboard-response","510","2131462","0.0-6.0-0.72","3527971","co39361","norming","","","","","","",""
"null","../img/tt/1156tt.jpg","null","mooney1","image-keyboard-response","511","2134464","0.0-6.0-1.72","3527971","co39361","norming","","","","","","",""
"6389.999999999534","","","post_mooney1_questions","survey-likert","512","2140855","0.0-6.0-2.72","3527971","co39361","norming","","","{""curiosity"":6,""confidence"":0}","[0,1]","../img/tt/1156tt.jpg","",""
"644","","","recognition","survey-text","513","2141504","0.0-6.0-3.72","3527971","co39361","norming","","","{""guess"":""""}","","../img/tt/1156tt.jpg","",""
"null","../img/gs/1156gs.jpg","null","reveal","image-keyboard-response","514","2143506","0.0-6.0-4.72","3527971","co39361","norming","","","","","","",""
"null","../img/tt/1156tt.jpg","null","mooney2","image-keyboard-response","515","2145508","0.0-6.0-5.72","3527971","co39361","norming","","","","","","",""
"3496","","","post_reveal_questions","survey-likert","516","2149005","0.0-6.0-6.72","3527971","co39361","norming","","","{""aha"":5}","[0]","../img/tt/1156tt.jpg","",""
"null","<div style=""font-size:60px;""> </div>","null","fixation","html-keyboard-response","517","2149208","0.0-6.0-0.73","3527971","co39361","norming","","","","","","",""
"null","../img/tt/036tt.jpg","null","mooney1","image-keyboard-response","518","2152210","0.0-6.0-1.73","3527971","co39361","norming","","","","","","",""
"6321.000000000466","","","post_mooney1_questions","survey-likert","519","2158533","0.0-6.0-2.73","3527971","co39361","norming","","","{""curiosity"":6,""confidence"":0}","[0,1]","../img/tt/036tt.jpg","",""
"996","","","recognition","survey-text","520","2159534","0.0-6.0-3.73","3527971","co39361","norming","","","{""guess"":""""}","","../img/tt/036tt.jpg","",""
"null","../img/gs/036gs.jpg","null","reveal","image-keyboard-response","521","2161535","0.0-6.0-4.73","3527971","co39361","norming","","","","","","",""
"null","../img/tt/036tt.jpg","null","mooney2","image-keyboard-response","522","2163537","0.0-6.0-5.73","3527971","co39361","norming","","","","","","",""
"1906","","","post_reveal_questions","survey-likert","523","2165444","0.0-6.0-6.73","3527971","co39361","norming","","","{""aha"":5}","[0]","../img/tt/036tt.jpg","",""
"null","<div style=""font-size:60px;""> </div>","null","fixation","html-keyboard-response","524","2165647","0.0-6.0-0.74","3527971","co39361","norming","","","","","","",""
"null","../img/tt/1004tt.jpg","null","mooney1","image-keyboard-response","525","2168649","0.0-6.0-1.74","3527971","co39361","norming","","","","","","",""
"9087","","","post_mooney1_questions","survey-likert","526","2177738","0.0-6.0-2.74","3527971","co39361","norming","","","{""curiosity"":6,""confidence"":0}","[0,1]","../img/tt/1004tt.jpg","",""
"797","","","recognition","survey-text","527","2178539","0.0-6.0-3.74","3527971","co39361","norming","","","{""guess"":""""}","","../img/tt/1004tt.jpg","",""
"null","../img/gs/1004gs.jpg","null","reveal","image-keyboard-response","528","2180541","0.0-6.0-4.74","3527971","co39361","norming","","","","","","",""
"null","../img/tt/1004tt.jpg","null","mooney2","image-keyboard-response","529","2182543","0.0-6.0-5.74","3527971","co39361","norming","","","","","","",""
"1862.9999999995343","","","post_reveal_questions","survey-likert","530","2184406","0.0-6.0-6.74","3527971","co39361","norming","","","{""aha"":0}","[0]","../img/tt/1004tt.jpg","",""
"null","<div style=""font-size:60px;""> </div>","null","fixation","html-keyboard-response","531","2184609","0.0-6.0-0.75","3527971","co39361","norming","","","","","","",""
"null","../img/tt/1037tt.jpg","null","mooney1","image-keyboard-response","532","2187611","0.0-6.0-1.75","3527971","co39361","norming","","","","","","",""
"4115","","","post_mooney1_questions","survey-likert","533","2191728","0.0-6.0-2.75","3527971","co39361","norming","","","{""curiosity"":6,""confidence"":0}","[0,1]","../img/tt/1037tt.jpg","",""
"1356","","","recognition","survey-text","534","2193089","0.0-6.0-3.75","3527971","co39361","norming","","","{""guess"":""""}","","../img/tt/1037tt.jpg","",""
"null","../img/gs/1037gs.jpg","null","reveal","image-keyboard-response","535","2195090","0.0-6.0-4.75","3527971","co39361","norming","","","","","","",""
"null","../img/tt/1037tt.jpg","null","mooney2","image-keyboard-response","536","2197092","0.0-6.0-5.75","3527971","co39361","norming","","","","","","",""
"1867","","","post_reveal_questions","survey-likert","537","2198960","0.0-6.0-6.75","3527971","co39361","norming","","","{""aha"":0}","[0]","../img/tt/1037tt.jpg","",""
"null","<div style=""font-size:60px;""> </div>","null","fixation","html-keyboard-response","538","2199162","0.0-6.0-0.76","3527971","co39361","norming","","","","","","",""
"null","../img/tt/001tt.jpg","null","mooney1","image-keyboard-response","539","2202164","0.0-6.0-1.76","3527971","co39361","norming","","","","","","",""
"3473","","","post_mooney1_questions","survey-likert","540","2205639","0.0-6.0-2.76","3527971","co39361","norming","","","{""curiosity"":5,""confidence"":3}","[0,1]","../img/tt/001tt.jpg","",""
"1535.0000000004657","","","recognition","survey-text","541","2207178","0.0-6.0-3.76","3527971","co39361","norming","","","{""guess"":""koe""}","","../img/tt/001tt.jpg","",""
"null","../img/gs/001gs.jpg","null","reveal","image-keyboard-response","542","2209180","0.0-6.0-4.76","3527971","co39361","norming","","","","","","",""
"null","../img/tt/001tt.jpg","null","mooney2","image-keyboard-response","543","2211182","0.0-6.0-5.76","3527971","co39361","norming","","","","","","",""
"3125","","","post_reveal_questions","survey-likert","544","2214309","0.0-6.0-6.76","3527971","co39361","norming","","","{""aha"":1}","[0]","../img/tt/001tt.jpg","",""
"null","<div style=""font-size:60px;""> </div>","null","fixation","html-keyboard-response","545","2214511","0.0-6.0-0.77","3527971","co39361","norming","","","","","","",""
"null","../img/tt/559tt.jpg","null","mooney1","image-keyboard-response","546","2217513","0.0-6.0-1.77","3527971","co39361","norming","","","","","","",""
"8042.999999999534","","","post_mooney1_questions","survey-likert","547","2225558","0.0-6.0-2.77","3527971","co39361","norming","","","{""curiosity"":6,""confidence"":0}","[0,1]","../img/tt/559tt.jpg","",""
"764.9999999995343","","","recognition","survey-text","548","2226327","0.0-6.0-3.77","3527971","co39361","norming","","","{""guess"":""""}","","../img/tt/559tt.jpg","",""
"null","../img/gs/559gs.jpg","null","reveal","image-keyboard-response","549","2228329","0.0-6.0-4.77","3527971","co39361","norming","","","","","","",""
"null","../img/tt/559tt.jpg","null","mooney2","image-keyboard-response","550","2230331","0.0-6.0-5.77","3527971","co39361","norming","","","","","","",""
"2606.9999999995343","","","post_reveal_questions","survey-likert","551","2232939","0.0-6.0-6.77","3527971","co39361","norming","","","{""aha"":3}","[0]","../img/tt/559tt.jpg","",""
"null","<div style=""font-size:60px;""> </div>","null","fixation","html-keyboard-response","552","2233141","0.0-6.0-0.78","3527971","co39361","norming","","","","","","",""
"null","../img/tt/1055tt.jpg","null","mooney1","image-keyboard-response","553","2236144","0.0-6.0-1.78","3527971","co39361","norming","","","","","","",""
"17699","","","post_mooney1_questions","survey-likert","554","2253844","0.0-6.0-2.78","3527971","co39361","norming","","","{""curiosity"":6,""confidence"":0}","[0,1]","../img/tt/1055tt.jpg","",""
"1060.0000000004657","","","recognition","survey-text","555","2254908","0.0-6.0-3.78","3527971","co39361","norming","","","{""guess"":""""}","","../img/tt/1055tt.jpg","",""
"null","../img/gs/1055gs.jpg","null","reveal","image-keyboard-response","556","2256910","0.0-6.0-4.78","3527971","co39361","norming","","","","","","",""
"null","../img/tt/1055tt.jpg","null","mooney2","image-keyboard-response","557","2258912","0.0-6.0-5.78","3527971","co39361","norming","","","","","","",""
"1710","","","post_reveal_questions","survey-likert","558","2260623","0.0-6.0-6.78","3527971","co39361","norming","","","{""aha"":6}","[0]","../img/tt/1055tt.jpg","",""
"null","<div style=""font-size:60px;""> </div>","null","fixation","html-keyboard-response","559","2260825","0.0-6.0-0.79","3527971","co39361","norming","","","","","","",""
"null","../img/tt/019tt.jpg","null","mooney1","image-keyboard-response","560","2263827","0.0-6.0-1.79","3527971","co39361","norming","","","","","","",""
"3236","","","post_mooney1_questions","survey-likert","561","2267066","0.0-6.0-2.79","3527971","co39361","norming","","","{""curiosity"":6,""confidence"":1}","[0,1]","../img/tt/019tt.jpg","",""
"4501","","","recognition","survey-text","562","2271571","0.0-6.0-3.79","3527971","co39361","norming","","","{""guess"":""snowboard""}","","../img/tt/019tt.jpg","",""
"null","../img/gs/019gs.jpg","null","reveal","image-keyboard-response","563","2273573","0.0-6.0-4.79","3527971","co39361","norming","","","","","","",""
"null","../img/tt/019tt.jpg","null","mooney2","image-keyboard-response","564","2275574","0.0-6.0-5.79","3527971","co39361","norming","","","","","","",""
"3290","","","post_reveal_questions","survey-likert","565","2278865","0.0-6.0-6.79","3527971","co39361","norming","","","{""aha"":5}","[0]","../img/tt/019tt.jpg","",""
