"rt","stimulus","key_press","test_part","trial_type","trial_index","time_elapsed","internal_node_id","totalTime","subject","experiment_name","button_pressed","success","responses","question_order","currentStim","old","correct"
"5145","Welcome to the experiment. This is an online experiment so please don't close the tab/window until we say goodbye.  Press any key to begin.","32","instructions","html-keyboard-response","0","5151","0.0-0.0","3044668","co39688","norming","","","","","","",""
"39314.00000000001","<div style='word-wrap: break-word; width: 900px'><h3>Please consider this information carefully before deciding whether to participate in this research</h3><ul style='text-align: left; font-size: .8em;'><li><b>Purpose of the research</b>: To examine how people process images.</li><li><b>What you will do in this research</b>:  Stimuli (images) will be presented on the computer and you will be asked different questions about them.</li><li><b>Time required</b>: Participation will take between 45 and 60 minutes to complete.</li><li><b>Risks</b>:  There are no anticipated risks associated with participating in this study. The effects of participating should be comparable to those you would experience from viewing a computer monitor for 30 minutes and using a mouse or keyboard.</li><li><b>Benefits</b>:  This study provides no benefits to you individually except for the credit. The study provides important information about the nature of perception and learning.</li><li><b>Confidentiality</b>:  Your participation in this study will remain confidential. No personally identifiable information will be associated with your data. Your de-identified data may be shared with other researchers and used in future projects.</li><li><b>Participation and withdrawal</b>:  Your participation in this study is completely voluntary and you may refuse to participate or you may choose to withdraw at any time without penalty.</li><li><b>How to contact the researchers</b>: If you have questions or concerns about your participation or payment, or want to request a summary of research findings, please contact Sander Van de Cruys (KU Leuven), at sander.vandecruys@kuleuven.be.</li></ul><p>The nature and purpose of this research have been sufficiently explained and I agree to participate in this study.  I understand that I am free to withdraw at any time without incurring any penalty.</p><p>Please consent by clicking the button below to continue. Otherwise, please exit the study at this time.</p></div>","","instructions","html-button-response","1","44469","0.0-1.0","3044668","co39688","norming","0","","","","","",""
"","","","instructions","fullscreen","2","50255","0.0-2.0","3044668","co39688","norming","","true","","","","",""
"86370","","","sona","survey-html-form","3","136629","0.0-3.0","3044668","co39688","norming","","","[{""name"":""sonaid"",""value"":""39688""},{""name"":""debrief"",""value"":""yes""},{""name"":""datajoin"",""value"":""yes""}]","","","",""
"127019","<div style='word-wrap: break-word; width: 900px'><h3>Instructions</h3><p>This experiment will have 3 parts. In the first part you will see a series of distorted images like the one below on the left. As you can see in the righthand image, the distorted images are derived from actual photographs. In what follows, you will <strong>briefly</strong> be presented with <strong>only</strong> the distorted image.</p> <div style='float: left; margin-right: 20px;'><img src='../img/018tt.jpg' height='250' width='250'></img></div><div style='float: right; margin-left: 20px;'><img src='../img/018gs.jpg' height='250' width='250'></img></div><p>Subsequently you will be asked a few questions about the image: One question on how <strong>curious</strong> you are about the solution and one on how <strong>confident</strong> you are that you know the solution.</p>Next, we ask you to make a guess on what is in the image. Note that it is OK to name just the <strong>basic level category</strong>. For example when you see a parrot in the image, 'parrot' will obviously be a correct answer but also correct is 'bird'. However, 'animal' will <strong>not</strong> be counted as a correct response. For the example above, 'rose' would be correct or 'flower', but not 'plant'. When soccer players are depicted, 'soccer', 'football', 'soccer players' will be correct, but not 'humans', 'outdoors', or 'sports'. You do not need to describe the image in full, just name the main object in it <strong>in one or two words</strong>. All images depict objects from one of the following broad level categories: animals, inanimate objects, plants, sports, vehicles, and food. Recognizing means knowing <strong>more</strong> than these broad labels for a given image. But we always encourage you to <strong>make a guess</strong> if you can. Note that you are allowed to use <strong>Dutch and English</strong> in your answers, whatever comes easiest for you.</p><p>Press any key to continue.</p></div>","32","instructions","html-keyboard-response","4","263651","0.0-4.0","3044668","co39688","norming","","","","","","",""
"20599","<div style='word-wrap: break-word; width: 900px'><h3>Instructions</h3> <p>Next, the solution image will be revealed to you and you'll be asked to indicate how strong your <strong>aha-experience</strong> was after seeing the solution. This describes the positive feeling of the 'click' you sometimes experience, when the pieces of the 'puzzle' fall together and you suddenly have 'insight' in the image.</p><img src='aha.jpg' height='188' width='250'></img><p>Note that there are no right or wrong answers. We are interested in what <strong>you</strong> see in the image and how <strong>you</strong> feel about it.</p><p>Press any key to start the experiment.</p></div>","32","instructions","html-keyboard-response","5","284251","0.0-5.0","3044668","co39688","norming","","","","","","",""
"null","<div style=""font-size:60px;""> </div>","null","fixation","html-keyboard-response","6","284453","0.0-6.0-0.0","3044668","co39688","norming","","","","","","",""
"null","../img/tt/079tt.jpg","null","mooney1","image-keyboard-response","7","287456","0.0-6.0-1.0","3044668","co39688","norming","","","","","","",""
"14371.999999999942","","","post_mooney1_questions","survey-likert","8","301831","0.0-6.0-2.0","3044668","co39688","norming","","","{""curiosity"":4,""confidence"":5}","[0,1]","../img/tt/079tt.jpg","",""
"7685","","","recognition","survey-text","9","309523","0.0-6.0-3.0","3044668","co39688","norming","","","{""guess"":""bear""}","","../img/tt/079tt.jpg","",""
"null","../img/gs/079gs.jpg","null","reveal","image-keyboard-response","10","311526","0.0-6.0-4.0","3044668","co39688","norming","","","","","","",""
"null","../img/tt/079tt.jpg","null","mooney2","image-keyboard-response","11","313528","0.0-6.0-5.0","3044668","co39688","norming","","","","","","",""
"11174.000000000058","","","post_reveal_questions","survey-likert","12","324704","0.0-6.0-6.0","3044668","co39688","norming","","","{""aha"":3}","[0]","../img/tt/079tt.jpg","",""
"null","<div style=""font-size:60px;""> </div>","null","fixation","html-keyboard-response","13","324908","0.0-6.0-0.1","3044668","co39688","norming","","","","","","",""
"null","../img/tt/507tt.jpg","null","mooney1","image-keyboard-response","14","327911","0.0-6.0-1.1","3044668","co39688","norming","","","","","","",""
"8935","","","post_mooney1_questions","survey-likert","15","336848","0.0-6.0-2.1","3044668","co39688","norming","","","{""curiosity"":5,""confidence"":3}","[0,1]","../img/tt/507tt.jpg","",""
"3808","","","recognition","survey-text","16","340663","0.0-6.0-3.1","3044668","co39688","norming","","","{""guess"":""statue""}","","../img/tt/507tt.jpg","",""
"null","../img/gs/507gs.jpg","null","reveal","image-keyboard-response","17","342665","0.0-6.0-4.1","3044668","co39688","norming","","","","","","",""
"null","../img/tt/507tt.jpg","null","mooney2","image-keyboard-response","18","344668","0.0-6.0-5.1","3044668","co39688","norming","","","","","","",""
"6076.000000000058","","","post_reveal_questions","survey-likert","19","350745","0.0-6.0-6.1","3044668","co39688","norming","","","{""aha"":4}","[0]","../img/tt/507tt.jpg","",""
"null","<div style=""font-size:60px;""> </div>","null","fixation","html-keyboard-response","20","350949","0.0-6.0-0.2","3044668","co39688","norming","","","","","","",""
"null","../img/tt/1309tt.jpg","null","mooney1","image-keyboard-response","21","353952","0.0-6.0-1.2","3044668","co39688","norming","","","","","","",""
"7446","","","post_mooney1_questions","survey-likert","22","361400","0.0-6.0-2.2","3044668","co39688","norming","","","{""curiosity"":6,""confidence"":3}","[0,1]","../img/tt/1309tt.jpg","",""
"1782.9999999999418","","","recognition","survey-text","23","363189","0.0-6.0-3.2","3044668","co39688","norming","","","{""guess"":""catr""}","","../img/tt/1309tt.jpg","",""
"null","../img/gs/1309gs.jpg","null","reveal","image-keyboard-response","24","365192","0.0-6.0-4.2","3044668","co39688","norming","","","","","","",""
"null","../img/tt/1309tt.jpg","null","mooney2","image-keyboard-response","25","367194","0.0-6.0-5.2","3044668","co39688","norming","","","","","","",""
"3570","","","post_reveal_questions","survey-likert","26","370766","0.0-6.0-6.2","3044668","co39688","norming","","","{""aha"":5}","[0]","../img/tt/1309tt.jpg","",""
"null","<div style=""font-size:60px;""> </div>","null","fixation","html-keyboard-response","27","370968","0.0-6.0-0.3","3044668","co39688","norming","","","","","","",""
"null","../img/tt/1125tt.jpg","null","mooney1","image-keyboard-response","28","373970","0.0-6.0-1.3","3044668","co39688","norming","","","","","","",""
"7056.999999999942","","","post_mooney1_questions","survey-likert","29","381029","0.0-6.0-2.3","3044668","co39688","norming","","","{""curiosity"":6,""confidence"":0}","[0,1]","../img/tt/1125tt.jpg","",""
"2600","","","recognition","survey-text","30","383635","0.0-6.0-3.3","3044668","co39688","norming","","","{""guess"":""""}","","../img/tt/1125tt.jpg","",""
"null","../img/gs/1125gs.jpg","null","reveal","image-keyboard-response","31","385637","0.0-6.0-4.3","3044668","co39688","norming","","","","","","",""
"null","../img/tt/1125tt.jpg","null","mooney2","image-keyboard-response","32","387640","0.0-6.0-5.3","3044668","co39688","norming","","","","","","",""
"3090","","","post_reveal_questions","survey-likert","33","390731","0.0-6.0-6.3","3044668","co39688","norming","","","{""aha"":6}","[0]","../img/tt/1125tt.jpg","",""
"null","<div style=""font-size:60px;""> </div>","null","fixation","html-keyboard-response","34","390934","0.0-6.0-0.4","3044668","co39688","norming","","","","","","",""
"null","../img/tt/279tt.jpg","null","mooney1","image-keyboard-response","35","393936","0.0-6.0-1.4","3044668","co39688","norming","","","","","","",""
"6597","","","post_mooney1_questions","survey-likert","36","400535","0.0-6.0-2.4","3044668","co39688","norming","","","{""curiosity"":3,""confidence"":6}","[0,1]","../img/tt/279tt.jpg","",""
"2159","","","recognition","survey-text","37","402700","0.0-6.0-3.4","3044668","co39688","norming","","","{""guess"":""koala""}","","../img/tt/279tt.jpg","",""
"null","../img/gs/279gs.jpg","null","reveal","image-keyboard-response","38","404703","0.0-6.0-4.4","3044668","co39688","norming","","","","","","",""
"null","../img/tt/279tt.jpg","null","mooney2","image-keyboard-response","39","406705","0.0-6.0-5.4","3044668","co39688","norming","","","","","","",""
"4282","","","post_reveal_questions","survey-likert","40","410989","0.0-6.0-6.4","3044668","co39688","norming","","","{""aha"":2}","[0]","../img/tt/279tt.jpg","",""
"null","<div style=""font-size:60px;""> </div>","null","fixation","html-keyboard-response","41","411191","0.0-6.0-0.5","3044668","co39688","norming","","","","","","",""
"null","../img/tt/135tt.jpg","null","mooney1","image-keyboard-response","42","414193","0.0-6.0-1.5","3044668","co39688","norming","","","","","","",""
"5604","","","post_mooney1_questions","survey-likert","43","419799","0.0-6.0-2.5","3044668","co39688","norming","","","{""curiosity"":2,""confidence"":6}","[0,1]","../img/tt/135tt.jpg","",""
"2352.000000000058","","","recognition","survey-text","44","422157","0.0-6.0-3.5","3044668","co39688","norming","","","{""guess"":""toilet""}","","../img/tt/135tt.jpg","",""
"null","../img/gs/135gs.jpg","null","reveal","image-keyboard-response","45","424160","0.0-6.0-4.5","3044668","co39688","norming","","","","","","",""
"null","../img/tt/135tt.jpg","null","mooney2","image-keyboard-response","46","426163","0.0-6.0-5.5","3044668","co39688","norming","","","","","","",""
"6833.999999999942","","","post_reveal_questions","survey-likert","47","432999","0.0-6.0-6.5","3044668","co39688","norming","","","{""aha"":1}","[0]","../img/tt/135tt.jpg","",""
"null","<div style=""font-size:60px;""> </div>","null","fixation","html-keyboard-response","48","433202","0.0-6.0-0.6","3044668","co39688","norming","","","","","","",""
"null","../img/tt/353tt.jpg","null","mooney1","image-keyboard-response","49","436205","0.0-6.0-1.6","3044668","co39688","norming","","","","","","",""
"6206","","","post_mooney1_questions","survey-likert","50","442413","0.0-6.0-2.6","3044668","co39688","norming","","","{""curiosity"":4,""confidence"":4}","[0,1]","../img/tt/353tt.jpg","",""
"6126.000000000058","","","recognition","survey-text","51","448544","0.0-6.0-3.6","3044668","co39688","norming","","","{""guess"":""pinguïn""}","","../img/tt/353tt.jpg","",""
"null","../img/gs/353gs.jpg","null","reveal","image-keyboard-response","52","450547","0.0-6.0-4.6","3044668","co39688","norming","","","","","","",""
"null","../img/tt/353tt.jpg","null","mooney2","image-keyboard-response","53","452550","0.0-6.0-5.6","3044668","co39688","norming","","","","","","",""
"3789.999999999942","","","post_reveal_questions","survey-likert","54","456342","0.0-6.0-6.6","3044668","co39688","norming","","","{""aha"":4}","[0]","../img/tt/353tt.jpg","",""
"null","<div style=""font-size:60px;""> </div>","null","fixation","html-keyboard-response","55","456544","0.0-6.0-0.7","3044668","co39688","norming","","","","","","",""
"null","../img/tt/019tt.jpg","null","mooney1","image-keyboard-response","56","459547","0.0-6.0-1.7","3044668","co39688","norming","","","","","","",""
"4683","","","post_mooney1_questions","survey-likert","57","464231","0.0-6.0-2.7","3044668","co39688","norming","","","{""curiosity"":6,""confidence"":0}","[0,1]","../img/tt/019tt.jpg","",""
"1317","","","recognition","survey-text","58","465553","0.0-6.0-3.7","3044668","co39688","norming","","","{""guess"":""""}","","../img/tt/019tt.jpg","",""
"null","../img/gs/019gs.jpg","null","reveal","image-keyboard-response","59","467555","0.0-6.0-4.7","3044668","co39688","norming","","","","","","",""
"null","../img/tt/019tt.jpg","null","mooney2","image-keyboard-response","60","469557","0.0-6.0-5.7","3044668","co39688","norming","","","","","","",""
"3757","","","post_reveal_questions","survey-likert","61","473316","0.0-6.0-6.7","3044668","co39688","norming","","","{""aha"":6}","[0]","../img/tt/019tt.jpg","",""
"null","<div style=""font-size:60px;""> </div>","null","fixation","html-keyboard-response","62","473519","0.0-6.0-0.8","3044668","co39688","norming","","","","","","",""
"null","../img/tt/1255tt.jpg","null","mooney1","image-keyboard-response","63","476521","0.0-6.0-1.8","3044668","co39688","norming","","","","","","",""
"8368.000000000058","","","post_mooney1_questions","survey-likert","64","484891","0.0-6.0-2.8","3044668","co39688","norming","","","{""curiosity"":6,""confidence"":0}","[0,1]","../img/tt/1255tt.jpg","",""
"1056","","","recognition","survey-text","65","485953","0.0-6.0-3.8","3044668","co39688","norming","","","{""guess"":""""}","","../img/tt/1255tt.jpg","",""
"null","../img/gs/1255gs.jpg","null","reveal","image-keyboard-response","66","487955","0.0-6.0-4.8","3044668","co39688","norming","","","","","","",""
"null","../img/tt/1255tt.jpg","null","mooney2","image-keyboard-response","67","489958","0.0-6.0-5.8","3044668","co39688","norming","","","","","","",""
"1711.0000000000582","","","post_reveal_questions","survey-likert","68","491670","0.0-6.0-6.8","3044668","co39688","norming","","","{""aha"":6}","[0]","../img/tt/1255tt.jpg","",""
"null","<div style=""font-size:60px;""> </div>","null","fixation","html-keyboard-response","69","491873","0.0-6.0-0.9","3044668","co39688","norming","","","","","","",""
"null","../img/tt/1053tt.jpg","null","mooney1","image-keyboard-response","70","494875","0.0-6.0-1.9","3044668","co39688","norming","","","","","","",""
"8688","","","post_mooney1_questions","survey-likert","71","503565","0.0-6.0-2.9","3044668","co39688","norming","","","{""curiosity"":4,""confidence"":5}","[0,1]","../img/tt/1053tt.jpg","",""
"1836","","","recognition","survey-text","72","505407","0.0-6.0-3.9","3044668","co39688","norming","","","{""guess"":""koe""}","","../img/tt/1053tt.jpg","",""
"null","../img/gs/1053gs.jpg","null","reveal","image-keyboard-response","73","507409","0.0-6.0-4.9","3044668","co39688","norming","","","","","","",""
"null","../img/tt/1053tt.jpg","null","mooney2","image-keyboard-response","74","509412","0.0-6.0-5.9","3044668","co39688","norming","","","","","","",""
"52039","","","post_reveal_questions","survey-likert","75","561452","0.0-6.0-6.9","3044668","co39688","norming","","","{""aha"":2}","[0]","../img/tt/1053tt.jpg","",""
"null","<div style=""font-size:60px;""> </div>","null","fixation","html-keyboard-response","76","561655","0.0-6.0-0.10","3044668","co39688","norming","","","","","","",""
"null","../img/tt/1237tt.jpg","null","mooney1","image-keyboard-response","77","564658","0.0-6.0-1.10","3044668","co39688","norming","","","","","","",""
"22591.999999999884","","","post_mooney1_questions","survey-likert","78","587252","0.0-6.0-2.10","3044668","co39688","norming","","","{""curiosity"":5,""confidence"":2}","[0,1]","../img/tt/1237tt.jpg","",""
"1881","","","recognition","survey-text","79","589141","0.0-6.0-3.10","3044668","co39688","norming","","","{""guess"":""fish""}","","../img/tt/1237tt.jpg","",""
"null","../img/gs/1237gs.jpg","null","reveal","image-keyboard-response","80","591144","0.0-6.0-4.10","3044668","co39688","norming","","","","","","",""
"null","../img/tt/1237tt.jpg","null","mooney2","image-keyboard-response","81","593145","0.0-6.0-5.10","3044668","co39688","norming","","","","","","",""
"2245","","","post_reveal_questions","survey-likert","82","595392","0.0-6.0-6.10","3044668","co39688","norming","","","{""aha"":5}","[0]","../img/tt/1237tt.jpg","",""
"null","<div style=""font-size:60px;""> </div>","null","fixation","html-keyboard-response","83","595595","0.0-6.0-0.11","3044668","co39688","norming","","","","","","",""
"null","../img/tt/273tt.jpg","null","mooney1","image-keyboard-response","84","598598","0.0-6.0-1.11","3044668","co39688","norming","","","","","","",""
"6308","","","post_mooney1_questions","survey-likert","85","604908","0.0-6.0-2.11","3044668","co39688","norming","","","{""curiosity"":4,""confidence"":1}","[0,1]","../img/tt/273tt.jpg","",""
"3795.9999999998836","","","recognition","survey-text","86","608711","0.0-6.0-3.11","3044668","co39688","norming","","","{""guess"":""hand""}","","../img/tt/273tt.jpg","",""
"null","../img/gs/273gs.jpg","null","reveal","image-keyboard-response","87","610714","0.0-6.0-4.11","3044668","co39688","norming","","","","","","",""
"null","../img/tt/273tt.jpg","null","mooney2","image-keyboard-response","88","612717","0.0-6.0-5.11","3044668","co39688","norming","","","","","","",""
"2922","","","post_reveal_questions","survey-likert","89","615640","0.0-6.0-6.11","3044668","co39688","norming","","","{""aha"":6}","[0]","../img/tt/273tt.jpg","",""
"null","<div style=""font-size:60px;""> </div>","null","fixation","html-keyboard-response","90","615843","0.0-6.0-0.12","3044668","co39688","norming","","","","","","",""
"null","../img/tt/1279tt.jpg","null","mooney1","image-keyboard-response","91","618846","0.0-6.0-1.12","3044668","co39688","norming","","","","","","",""
"3676","","","post_mooney1_questions","survey-likert","92","622523","0.0-6.0-2.12","3044668","co39688","norming","","","{""curiosity"":6,""confidence"":0}","[0,1]","../img/tt/1279tt.jpg","",""
"852.0000000001164","","","recognition","survey-text","93","623381","0.0-6.0-3.12","3044668","co39688","norming","","","{""guess"":""""}","","../img/tt/1279tt.jpg","",""
"null","../img/gs/1279gs.jpg","null","reveal","image-keyboard-response","94","625384","0.0-6.0-4.12","3044668","co39688","norming","","","","","","",""
"null","../img/tt/1279tt.jpg","null","mooney2","image-keyboard-response","95","627385","0.0-6.0-5.12","3044668","co39688","norming","","","","","","",""
"2240.9999999998836","","","post_reveal_questions","survey-likert","96","629628","0.0-6.0-6.12","3044668","co39688","norming","","","{""aha"":5}","[0]","../img/tt/1279tt.jpg","",""
"null","<div style=""font-size:60px;""> </div>","null","fixation","html-keyboard-response","97","629831","0.0-6.0-0.13","3044668","co39688","norming","","","","","","",""
"null","../img/tt/060tt.jpg","null","mooney1","image-keyboard-response","98","632833","0.0-6.0-1.13","3044668","co39688","norming","","","","","","",""
"12298","","","post_mooney1_questions","survey-likert","99","645133","0.0-6.0-2.13","3044668","co39688","norming","","","{""curiosity"":6,""confidence"":1}","[0,1]","../img/tt/060tt.jpg","",""
"5288","","","recognition","survey-text","100","650428","0.0-6.0-3.13","3044668","co39688","norming","","","{""guess"":""football""}","","../img/tt/060tt.jpg","",""
"null","../img/gs/060gs.jpg","null","reveal","image-keyboard-response","101","652430","0.0-6.0-4.13","3044668","co39688","norming","","","","","","",""
"null","../img/tt/060tt.jpg","null","mooney2","image-keyboard-response","102","654433","0.0-6.0-5.13","3044668","co39688","norming","","","","","","",""
"2561.9999999998836","","","post_reveal_questions","survey-likert","103","656996","0.0-6.0-6.13","3044668","co39688","norming","","","{""aha"":6}","[0]","../img/tt/060tt.jpg","",""
"null","<div style=""font-size:60px;""> </div>","null","fixation","html-keyboard-response","104","657200","0.0-6.0-0.14","3044668","co39688","norming","","","","","","",""
"null","../img/tt/1283tt.jpg","null","mooney1","image-keyboard-response","105","660202","0.0-6.0-1.14","3044668","co39688","norming","","","","","","",""
"4934","","","post_mooney1_questions","survey-likert","106","665139","0.0-6.0-2.14","3044668","co39688","norming","","","{""curiosity"":6,""confidence"":0}","[0,1]","../img/tt/1283tt.jpg","",""
"818","","","recognition","survey-text","107","665963","0.0-6.0-3.14","3044668","co39688","norming","","","{""guess"":""""}","","../img/tt/1283tt.jpg","",""
"null","../img/gs/1283gs.jpg","null","reveal","image-keyboard-response","108","667966","0.0-6.0-4.14","3044668","co39688","norming","","","","","","",""
"null","../img/tt/1283tt.jpg","null","mooney2","image-keyboard-response","109","669968","0.0-6.0-5.14","3044668","co39688","norming","","","","","","",""
"4555","","","post_reveal_questions","survey-likert","110","674525","0.0-6.0-6.14","3044668","co39688","norming","","","{""aha"":6}","[0]","../img/tt/1283tt.jpg","",""
"null","<div style=""font-size:60px;""> </div>","null","fixation","html-keyboard-response","111","674727","0.0-6.0-0.15","3044668","co39688","norming","","","","","","",""
"null","../img/tt/296tt.jpg","null","mooney1","image-keyboard-response","112","677730","0.0-6.0-1.15","3044668","co39688","norming","","","","","","",""
"8233.000000000116","","","post_mooney1_questions","survey-likert","113","685964","0.0-6.0-2.15","3044668","co39688","norming","","","{""curiosity"":5,""confidence"":1}","[0,1]","../img/tt/296tt.jpg","",""
"1925","","","recognition","survey-text","114","687896","0.0-6.0-3.15","3044668","co39688","norming","","","{""guess"":""bank""}","","../img/tt/296tt.jpg","",""
"null","../img/gs/296gs.jpg","null","reveal","image-keyboard-response","115","689899","0.0-6.0-4.15","3044668","co39688","norming","","","","","","",""
"null","../img/tt/296tt.jpg","null","mooney2","image-keyboard-response","116","691901","0.0-6.0-5.15","3044668","co39688","norming","","","","","","",""
"4410","","","post_reveal_questions","survey-likert","117","696313","0.0-6.0-6.15","3044668","co39688","norming","","","{""aha"":5}","[0]","../img/tt/296tt.jpg","",""
"null","<div style=""font-size:60px;""> </div>","null","fixation","html-keyboard-response","118","696516","0.0-6.0-0.16","3044668","co39688","norming","","","","","","",""
"null","../img/tt/1097tt.jpg","null","mooney1","image-keyboard-response","119","699518","0.0-6.0-1.16","3044668","co39688","norming","","","","","","",""
"4191","","","post_mooney1_questions","survey-likert","120","703710","0.0-6.0-2.16","3044668","co39688","norming","","","{""curiosity"":6,""confidence"":2}","[0,1]","../img/tt/1097tt.jpg","",""
"1612","","","recognition","survey-text","121","705329","0.0-6.0-3.16","3044668","co39688","norming","","","{""guess"":""golf""}","","../img/tt/1097tt.jpg","",""
"null","../img/gs/1097gs.jpg","null","reveal","image-keyboard-response","122","707332","0.0-6.0-4.16","3044668","co39688","norming","","","","","","",""
"null","../img/tt/1097tt.jpg","null","mooney2","image-keyboard-response","123","709334","0.0-6.0-5.16","3044668","co39688","norming","","","","","","",""
"7690.999999999884","","","post_reveal_questions","survey-likert","124","717026","0.0-6.0-6.16","3044668","co39688","norming","","","{""aha"":5}","[0]","../img/tt/1097tt.jpg","",""
"null","<div style=""font-size:60px;""> </div>","null","fixation","html-keyboard-response","125","717229","0.0-6.0-0.17","3044668","co39688","norming","","","","","","",""
"null","../img/tt/1226tt.jpg","null","mooney1","image-keyboard-response","126","720232","0.0-6.0-1.17","3044668","co39688","norming","","","","","","",""
"3867.9999999998836","","","post_mooney1_questions","survey-likert","127","724102","0.0-6.0-2.17","3044668","co39688","norming","","","{""curiosity"":5,""confidence"":0}","[0,1]","../img/tt/1226tt.jpg","",""
"1612","","","recognition","survey-text","128","725720","0.0-6.0-3.17","3044668","co39688","norming","","","{""guess"":""""}","","../img/tt/1226tt.jpg","",""
"null","../img/gs/1226gs.jpg","null","reveal","image-keyboard-response","129","727722","0.0-6.0-4.17","3044668","co39688","norming","","","","","","",""
"null","../img/tt/1226tt.jpg","null","mooney2","image-keyboard-response","130","729724","0.0-6.0-5.17","3044668","co39688","norming","","","","","","",""
"10472","","","post_reveal_questions","survey-likert","131","740198","0.0-6.0-6.17","3044668","co39688","norming","","","{""aha"":6}","[0]","../img/tt/1226tt.jpg","",""
"null","<div style=""font-size:60px;""> </div>","null","fixation","html-keyboard-response","132","740401","0.0-6.0-0.18","3044668","co39688","norming","","","","","","",""
"null","../img/tt/1122tt.jpg","null","mooney1","image-keyboard-response","133","743404","0.0-6.0-1.18","3044668","co39688","norming","","","","","","",""
"4943","","","post_mooney1_questions","survey-likert","134","748349","0.0-6.0-2.18","3044668","co39688","norming","","","{""curiosity"":5,""confidence"":1}","[0,1]","../img/tt/1122tt.jpg","",""
"1593","","","recognition","survey-text","135","749949","0.0-6.0-3.18","3044668","co39688","norming","","","{""guess"":""cars""}","","../img/tt/1122tt.jpg","",""
"null","../img/gs/1122gs.jpg","null","reveal","image-keyboard-response","136","751952","0.0-6.0-4.18","3044668","co39688","norming","","","","","","",""
"null","../img/tt/1122tt.jpg","null","mooney2","image-keyboard-response","137","753954","0.0-6.0-5.18","3044668","co39688","norming","","","","","","",""
"2383","","","post_reveal_questions","survey-likert","138","756339","0.0-6.0-6.18","3044668","co39688","norming","","","{""aha"":4}","[0]","../img/tt/1122tt.jpg","",""
"null","<div style=""font-size:60px;""> </div>","null","fixation","html-keyboard-response","139","756542","0.0-6.0-0.19","3044668","co39688","norming","","","","","","",""
"null","../img/tt/1175tt.jpg","null","mooney1","image-keyboard-response","140","759544","0.0-6.0-1.19","3044668","co39688","norming","","","","","","",""
"11238","","","post_mooney1_questions","survey-likert","141","770784","0.0-6.0-2.19","3044668","co39688","norming","","","{""curiosity"":5,""confidence"":0}","[0,1]","../img/tt/1175tt.jpg","",""
"1252.0000000001164","","","recognition","survey-text","142","772042","0.0-6.0-3.19","3044668","co39688","norming","","","{""guess"":""""}","","../img/tt/1175tt.jpg","",""
"null","../img/gs/1175gs.jpg","null","reveal","image-keyboard-response","143","774044","0.0-6.0-4.19","3044668","co39688","norming","","","","","","",""
"null","../img/tt/1175tt.jpg","null","mooney2","image-keyboard-response","144","776047","0.0-6.0-5.19","3044668","co39688","norming","","","","","","",""
"2552","","","post_reveal_questions","survey-likert","145","778601","0.0-6.0-6.19","3044668","co39688","norming","","","{""aha"":5}","[0]","../img/tt/1175tt.jpg","",""
"null","<div style=""font-size:60px;""> </div>","null","fixation","html-keyboard-response","146","778804","0.0-6.0-0.20","3044668","co39688","norming","","","","","","",""
"null","../img/tt/1130tt.jpg","null","mooney1","image-keyboard-response","147","781807","0.0-6.0-1.20","3044668","co39688","norming","","","","","","",""
"8147.000000000116","","","post_mooney1_questions","survey-likert","148","789955","0.0-6.0-2.20","3044668","co39688","norming","","","{""curiosity"":5,""confidence"":1}","[0,1]","../img/tt/1130tt.jpg","",""
"1926","","","recognition","survey-text","149","791888","0.0-6.0-3.20","3044668","co39688","norming","","","{""guess"":""panda""}","","../img/tt/1130tt.jpg","",""
"null","../img/gs/1130gs.jpg","null","reveal","image-keyboard-response","150","793890","0.0-6.0-4.20","3044668","co39688","norming","","","","","","",""
"null","../img/tt/1130tt.jpg","null","mooney2","image-keyboard-response","151","795893","0.0-6.0-5.20","3044668","co39688","norming","","","","","","",""
"3390","","","post_reveal_questions","survey-likert","152","799284","0.0-6.0-6.20","3044668","co39688","norming","","","{""aha"":5}","[0]","../img/tt/1130tt.jpg","",""
"null","<div style=""font-size:60px;""> </div>","null","fixation","html-keyboard-response","153","799487","0.0-6.0-0.21","3044668","co39688","norming","","","","","","",""
"null","../img/tt/301tt.jpg","null","mooney1","image-keyboard-response","154","802490","0.0-6.0-1.21","3044668","co39688","norming","","","","","","",""
"5312","","","post_mooney1_questions","survey-likert","155","807803","0.0-6.0-2.21","3044668","co39688","norming","","","{""curiosity"":6,""confidence"":0}","[0,1]","../img/tt/301tt.jpg","",""
"836","","","recognition","survey-text","156","808645","0.0-6.0-3.21","3044668","co39688","norming","","","{""guess"":""""}","","../img/tt/301tt.jpg","",""
"null","../img/gs/301gs.jpg","null","reveal","image-keyboard-response","157","810647","0.0-6.0-4.21","3044668","co39688","norming","","","","","","",""
"null","../img/tt/301tt.jpg","null","mooney2","image-keyboard-response","158","812650","0.0-6.0-5.21","3044668","co39688","norming","","","","","","",""
"2427","","","post_reveal_questions","survey-likert","159","815078","0.0-6.0-6.21","3044668","co39688","norming","","","{""aha"":2}","[0]","../img/tt/301tt.jpg","",""
"null","<div style=""font-size:60px;""> </div>","null","fixation","html-keyboard-response","160","815281","0.0-6.0-0.22","3044668","co39688","norming","","","","","","",""
"null","../img/tt/126tt.jpg","null","mooney1","image-keyboard-response","161","818283","0.0-6.0-1.22","3044668","co39688","norming","","","","","","",""
"3824.0000000001164","","","post_mooney1_questions","survey-likert","162","822110","0.0-6.0-2.22","3044668","co39688","norming","","","{""curiosity"":6,""confidence"":0}","[0,1]","../img/tt/126tt.jpg","",""
"1464.0000000001164","","","recognition","survey-text","163","823581","0.0-6.0-3.22","3044668","co39688","norming","","","{""guess"":""""}","","../img/tt/126tt.jpg","",""
"null","../img/gs/126gs.jpg","null","reveal","image-keyboard-response","164","825583","0.0-6.0-4.22","3044668","co39688","norming","","","","","","",""
"null","../img/tt/126tt.jpg","null","mooney2","image-keyboard-response","165","827585","0.0-6.0-5.22","3044668","co39688","norming","","","","","","",""
"2565","","","post_reveal_questions","survey-likert","166","830152","0.0-6.0-6.22","3044668","co39688","norming","","","{""aha"":4}","[0]","../img/tt/126tt.jpg","",""
"null","<div style=""font-size:60px;""> </div>","null","fixation","html-keyboard-response","167","830355","0.0-6.0-0.23","3044668","co39688","norming","","","","","","",""
"null","../img/tt/1202tt.jpg","null","mooney1","image-keyboard-response","168","833358","0.0-6.0-1.23","3044668","co39688","norming","","","","","","",""
"5567","","","post_mooney1_questions","survey-likert","169","838926","0.0-6.0-2.23","3044668","co39688","norming","","","{""curiosity"":6,""confidence"":0}","[0,1]","../img/tt/1202tt.jpg","",""
"1161.9999999998836","","","recognition","survey-text","170","840094","0.0-6.0-3.23","3044668","co39688","norming","","","{""guess"":""""}","","../img/tt/1202tt.jpg","",""
"null","../img/gs/1202gs.jpg","null","reveal","image-keyboard-response","171","842097","0.0-6.0-4.23","3044668","co39688","norming","","","","","","",""
"null","../img/tt/1202tt.jpg","null","mooney2","image-keyboard-response","172","844099","0.0-6.0-5.23","3044668","co39688","norming","","","","","","",""
"2827","","","post_reveal_questions","survey-likert","173","846927","0.0-6.0-6.23","3044668","co39688","norming","","","{""aha"":4}","[0]","../img/tt/1202tt.jpg","",""
"null","<div style=""font-size:60px;""> </div>","null","fixation","html-keyboard-response","174","847130","0.0-6.0-0.24","3044668","co39688","norming","","","","","","",""
"null","../img/tt/319tt.jpg","null","mooney1","image-keyboard-response","175","850133","0.0-6.0-1.24","3044668","co39688","norming","","","","","","",""
"6282.999999999884","","","post_mooney1_questions","survey-likert","176","856418","0.0-6.0-2.24","3044668","co39688","norming","","","{""curiosity"":5,""confidence"":0}","[0,1]","../img/tt/319tt.jpg","",""
"917.0000000001164","","","recognition","survey-text","177","857341","0.0-6.0-3.24","3044668","co39688","norming","","","{""guess"":""""}","","../img/tt/319tt.jpg","",""
"null","../img/gs/319gs.jpg","null","reveal","image-keyboard-response","178","859343","0.0-6.0-4.24","3044668","co39688","norming","","","","","","",""
"null","../img/tt/319tt.jpg","null","mooney2","image-keyboard-response","179","861346","0.0-6.0-5.24","3044668","co39688","norming","","","","","","",""
"3211","","","post_reveal_questions","survey-likert","180","864558","0.0-6.0-6.24","3044668","co39688","norming","","","{""aha"":6}","[0]","../img/tt/319tt.jpg","",""
"null","<div style=""font-size:60px;""> </div>","null","fixation","html-keyboard-response","181","864761","0.0-6.0-0.25","3044668","co39688","norming","","","","","","",""
"null","../img/tt/1107tt.jpg","null","mooney1","image-keyboard-response","182","867764","0.0-6.0-1.25","3044668","co39688","norming","","","","","","",""
"6034","","","post_mooney1_questions","survey-likert","183","873799","0.0-6.0-2.25","3044668","co39688","norming","","","{""curiosity"":4,""confidence"":1}","[0,1]","../img/tt/1107tt.jpg","",""
"1674","","","recognition","survey-text","184","875479","0.0-6.0-3.25","3044668","co39688","norming","","","{""guess"":""cat""}","","../img/tt/1107tt.jpg","",""
"null","../img/gs/1107gs.jpg","null","reveal","image-keyboard-response","185","877482","0.0-6.0-4.25","3044668","co39688","norming","","","","","","",""
"null","../img/tt/1107tt.jpg","null","mooney2","image-keyboard-response","186","879483","0.0-6.0-5.25","3044668","co39688","norming","","","","","","",""
"3876.0000000001164","","","post_reveal_questions","survey-likert","187","883360","0.0-6.0-6.25","3044668","co39688","norming","","","{""aha"":3}","[0]","../img/tt/1107tt.jpg","",""
"null","<div style=""font-size:60px;""> </div>","null","fixation","html-keyboard-response","188","883563","0.0-6.0-0.26","3044668","co39688","norming","","","","","","",""
"null","../img/tt/534tt.jpg","null","mooney1","image-keyboard-response","189","886566","0.0-6.0-1.26","3044668","co39688","norming","","","","","","",""
"4913","","","post_mooney1_questions","survey-likert","190","891486","0.0-6.0-2.26","3044668","co39688","norming","","","{""curiosity"":4,""confidence"":1}","[0,1]","../img/tt/534tt.jpg","",""
"2168","","","recognition","survey-text","191","893663","0.0-6.0-3.26","3044668","co39688","norming","","","{""guess"":""grass""}","","../img/tt/534tt.jpg","",""
"null","../img/gs/534gs.jpg","null","reveal","image-keyboard-response","192","895668","0.0-6.0-4.26","3044668","co39688","norming","","","","","","",""
"null","../img/tt/534tt.jpg","null","mooney2","image-keyboard-response","193","897672","0.0-6.0-5.26","3044668","co39688","norming","","","","","","",""
"3323","","","post_reveal_questions","survey-likert","194","900999","0.0-6.0-6.26","3044668","co39688","norming","","","{""aha"":5}","[0]","../img/tt/534tt.jpg","",""
"null","<div style=""font-size:60px;""> </div>","null","fixation","html-keyboard-response","195","901202","0.0-6.0-0.27","3044668","co39688","norming","","","","","","",""
"null","../img/tt/590tt.jpg","null","mooney1","image-keyboard-response","196","904207","0.0-6.0-1.27","3044668","co39688","norming","","","","","","",""
"8416","","","post_mooney1_questions","survey-likert","197","912629","0.0-6.0-2.27","3044668","co39688","norming","","","{""curiosity"":6,""confidence"":1}","[0,1]","../img/tt/590tt.jpg","",""
"2469","","","recognition","survey-text","198","915105","0.0-6.0-3.27","3044668","co39688","norming","","","{""guess"":""banc""}","","../img/tt/590tt.jpg","",""
"null","../img/gs/590gs.jpg","null","reveal","image-keyboard-response","199","917109","0.0-6.0-4.27","3044668","co39688","norming","","","","","","",""
"null","../img/tt/590tt.jpg","null","mooney2","image-keyboard-response","200","919110","0.0-6.0-5.27","3044668","co39688","norming","","","","","","",""
"3034","","","post_reveal_questions","survey-likert","201","922146","0.0-6.0-6.27","3044668","co39688","norming","","","{""aha"":4}","[0]","../img/tt/590tt.jpg","",""
"null","<div style=""font-size:60px;""> </div>","null","fixation","html-keyboard-response","202","922349","0.0-6.0-0.28","3044668","co39688","norming","","","","","","",""
"null","../img/tt/163tt.jpg","null","mooney1","image-keyboard-response","203","925352","0.0-6.0-1.28","3044668","co39688","norming","","","","","","",""
"6830","","","post_mooney1_questions","survey-likert","204","932185","0.0-6.0-2.28","3044668","co39688","norming","","","{""curiosity"":5,""confidence"":1}","[0,1]","../img/tt/163tt.jpg","",""
"2792","","","recognition","survey-text","205","934984","0.0-6.0-3.28","3044668","co39688","norming","","","{""guess"":""biscuit""}","","../img/tt/163tt.jpg","",""
"null","../img/gs/163gs.jpg","null","reveal","image-keyboard-response","206","936985","0.0-6.0-4.28","3044668","co39688","norming","","","","","","",""
"null","../img/tt/163tt.jpg","null","mooney2","image-keyboard-response","207","938988","0.0-6.0-5.28","3044668","co39688","norming","","","","","","",""
"1927","","","post_reveal_questions","survey-likert","208","940917","0.0-6.0-6.28","3044668","co39688","norming","","","{""aha"":3}","[0]","../img/tt/163tt.jpg","",""
"null","<div style=""font-size:60px;""> </div>","null","fixation","html-keyboard-response","209","941121","0.0-6.0-0.29","3044668","co39688","norming","","","","","","",""
"null","../img/tt/080tt.jpg","null","mooney1","image-keyboard-response","210","944123","0.0-6.0-1.29","3044668","co39688","norming","","","","","","",""
"4959","","","post_mooney1_questions","survey-likert","211","949084","0.0-6.0-2.29","3044668","co39688","norming","","","{""curiosity"":6,""confidence"":1}","[0,1]","../img/tt/080tt.jpg","",""
"4185","","","recognition","survey-text","212","953276","0.0-6.0-3.29","3044668","co39688","norming","","","{""guess"":""paddenstoel""}","","../img/tt/080tt.jpg","",""
"null","../img/gs/080gs.jpg","null","reveal","image-keyboard-response","213","955278","0.0-6.0-4.29","3044668","co39688","norming","","","","","","",""
"null","../img/tt/080tt.jpg","null","mooney2","image-keyboard-response","214","957281","0.0-6.0-5.29","3044668","co39688","norming","","","","","","",""
"2650","","","post_reveal_questions","survey-likert","215","959932","0.0-6.0-6.29","3044668","co39688","norming","","","{""aha"":5}","[0]","../img/tt/080tt.jpg","",""
"null","<div style=""font-size:60px;""> </div>","null","fixation","html-keyboard-response","216","960135","0.0-6.0-0.30","3044668","co39688","norming","","","","","","",""
"null","../img/tt/1353tt.jpg","null","mooney1","image-keyboard-response","217","963137","0.0-6.0-1.30","3044668","co39688","norming","","","","","","",""
"6006","","","post_mooney1_questions","survey-likert","218","969144","0.0-6.0-2.30","3044668","co39688","norming","","","{""curiosity"":5,""confidence"":1}","[0,1]","../img/tt/1353tt.jpg","",""
"2966","","","recognition","survey-text","219","972116","0.0-6.0-3.30","3044668","co39688","norming","","","{""guess"":""salamander""}","","../img/tt/1353tt.jpg","",""
"null","../img/gs/1353gs.jpg","null","reveal","image-keyboard-response","220","974119","0.0-6.0-4.30","3044668","co39688","norming","","","","","","",""
"null","../img/tt/1353tt.jpg","null","mooney2","image-keyboard-response","221","976120","0.0-6.0-5.30","3044668","co39688","norming","","","","","","",""
"1932","","","post_reveal_questions","survey-likert","222","978053","0.0-6.0-6.30","3044668","co39688","norming","","","{""aha"":6}","[0]","../img/tt/1353tt.jpg","",""
"null","<div style=""font-size:60px;""> </div>","null","fixation","html-keyboard-response","223","978255","0.0-6.0-0.31","3044668","co39688","norming","","","","","","",""
"null","../img/tt/1211tt.jpg","null","mooney1","image-keyboard-response","224","981258","0.0-6.0-1.31","3044668","co39688","norming","","","","","","",""
"5249","","","post_mooney1_questions","survey-likert","225","986509","0.0-6.0-2.31","3044668","co39688","norming","","","{""curiosity"":6,""confidence"":2}","[0,1]","../img/tt/1211tt.jpg","",""
"2110","","","recognition","survey-text","226","988625","0.0-6.0-3.31","3044668","co39688","norming","","","{""guess"":""golf""}","","../img/tt/1211tt.jpg","",""
"null","../img/gs/1211gs.jpg","null","reveal","image-keyboard-response","227","990628","0.0-6.0-4.31","3044668","co39688","norming","","","","","","",""
"null","../img/tt/1211tt.jpg","null","mooney2","image-keyboard-response","228","992629","0.0-6.0-5.31","3044668","co39688","norming","","","","","","",""
"4002.0000000001164","","","post_reveal_questions","survey-likert","229","996633","0.0-6.0-6.31","3044668","co39688","norming","","","{""aha"":3}","[0]","../img/tt/1211tt.jpg","",""
"null","<div style=""font-size:60px;""> </div>","null","fixation","html-keyboard-response","230","996837","0.0-6.0-0.32","3044668","co39688","norming","","","","","","",""
"null","../img/tt/380tt.jpg","null","mooney1","image-keyboard-response","231","999839","0.0-6.0-1.32","3044668","co39688","norming","","","","","","",""
"4974","","","post_mooney1_questions","survey-likert","232","1004815","0.0-6.0-2.32","3044668","co39688","norming","","","{""curiosity"":5,""confidence"":0}","[0,1]","../img/tt/380tt.jpg","",""
"868.9999999998836","","","recognition","survey-text","233","1005690","0.0-6.0-3.32","3044668","co39688","norming","","","{""guess"":""""}","","../img/tt/380tt.jpg","",""
"null","../img/gs/380gs.jpg","null","reveal","image-keyboard-response","234","1007692","0.0-6.0-4.32","3044668","co39688","norming","","","","","","",""
"null","../img/tt/380tt.jpg","null","mooney2","image-keyboard-response","235","1009694","0.0-6.0-5.32","3044668","co39688","norming","","","","","","",""
"1895.0000000001164","","","post_reveal_questions","survey-likert","236","1011591","0.0-6.0-6.32","3044668","co39688","norming","","","{""aha"":5}","[0]","../img/tt/380tt.jpg","",""
"null","<div style=""font-size:60px;""> </div>","null","fixation","html-keyboard-response","237","1011794","0.0-6.0-0.33","3044668","co39688","norming","","","","","","",""
"null","../img/tt/1101tt.jpg","null","mooney1","image-keyboard-response","238","1014796","0.0-6.0-1.33","3044668","co39688","norming","","","","","","",""
"8171","","","post_mooney1_questions","survey-likert","239","1022969","0.0-6.0-2.33","3044668","co39688","norming","","","{""curiosity"":6,""confidence"":1}","[0,1]","../img/tt/1101tt.jpg","",""
"3528.9999999998836","","","recognition","survey-text","240","1026505","0.0-6.0-3.33","3044668","co39688","norming","","","{""guess"":""roeien""}","","../img/tt/1101tt.jpg","",""
"null","../img/gs/1101gs.jpg","null","reveal","image-keyboard-response","241","1028508","0.0-6.0-4.33","3044668","co39688","norming","","","","","","",""
"null","../img/tt/1101tt.jpg","null","mooney2","image-keyboard-response","242","1030510","0.0-6.0-5.33","3044668","co39688","norming","","","","","","",""
"2492","","","post_reveal_questions","survey-likert","243","1033003","0.0-6.0-6.33","3044668","co39688","norming","","","{""aha"":6}","[0]","../img/tt/1101tt.jpg","",""
"null","<div style=""font-size:60px;""> </div>","null","fixation","html-keyboard-response","244","1033206","0.0-6.0-0.34","3044668","co39688","norming","","","","","","",""
"null","../img/tt/112tt.jpg","null","mooney1","image-keyboard-response","245","1036209","0.0-6.0-1.34","3044668","co39688","norming","","","","","","",""
"7141.999999999884","","","post_mooney1_questions","survey-likert","246","1043352","0.0-6.0-2.34","3044668","co39688","norming","","","{""curiosity"":6,""confidence"":1}","[0,1]","../img/tt/112tt.jpg","",""
"1862","","","recognition","survey-text","247","1045219","0.0-6.0-3.34","3044668","co39688","norming","","","{""guess"":""papiuer""}","","../img/tt/112tt.jpg","",""
"null","../img/gs/112gs.jpg","null","reveal","image-keyboard-response","248","1047222","0.0-6.0-4.34","3044668","co39688","norming","","","","","","",""
"null","../img/tt/112tt.jpg","null","mooney2","image-keyboard-response","249","1049224","0.0-6.0-5.34","3044668","co39688","norming","","","","","","",""
"2066","","","post_reveal_questions","survey-likert","250","1051292","0.0-6.0-6.34","3044668","co39688","norming","","","{""aha"":5}","[0]","../img/tt/112tt.jpg","",""
"null","<div style=""font-size:60px;""> </div>","null","fixation","html-keyboard-response","251","1051496","0.0-6.0-0.35","3044668","co39688","norming","","","","","","",""
"null","../img/tt/1188tt.jpg","null","mooney1","image-keyboard-response","252","1054498","0.0-6.0-1.35","3044668","co39688","norming","","","","","","",""
"7792","","","post_mooney1_questions","survey-likert","253","1062292","0.0-6.0-2.35","3044668","co39688","norming","","","{""curiosity"":5,""confidence"":2}","[0,1]","../img/tt/1188tt.jpg","",""
"4921","","","recognition","survey-text","254","1067219","0.0-6.0-3.35","3044668","co39688","norming","","","{""guess"":""football""}","","../img/tt/1188tt.jpg","",""
"null","../img/gs/1188gs.jpg","null","reveal","image-keyboard-response","255","1069221","0.0-6.0-4.35","3044668","co39688","norming","","","","","","",""
"null","../img/tt/1188tt.jpg","null","mooney2","image-keyboard-response","256","1071224","0.0-6.0-5.35","3044668","co39688","norming","","","","","","",""
"2560","","","post_reveal_questions","survey-likert","257","1073786","0.0-6.0-6.35","3044668","co39688","norming","","","{""aha"":5}","[0]","../img/tt/1188tt.jpg","",""
"null","<div style=""font-size:60px;""> </div>","null","fixation","html-keyboard-response","258","1073989","0.0-6.0-0.36","3044668","co39688","norming","","","","","","",""
"null","../img/tt/1268tt.jpg","null","mooney1","image-keyboard-response","259","1076991","0.0-6.0-1.36","3044668","co39688","norming","","","","","","",""
"5573","","","post_mooney1_questions","survey-likert","260","1082566","0.0-6.0-2.36","3044668","co39688","norming","","","{""curiosity"":6,""confidence"":0}","[0,1]","../img/tt/1268tt.jpg","",""
"1374","","","recognition","survey-text","261","1083947","0.0-6.0-3.36","3044668","co39688","norming","","","{""guess"":""""}","","../img/tt/1268tt.jpg","",""
"null","../img/gs/1268gs.jpg","null","reveal","image-keyboard-response","262","1085950","0.0-6.0-4.36","3044668","co39688","norming","","","","","","",""
"null","../img/tt/1268tt.jpg","null","mooney2","image-keyboard-response","263","1087952","0.0-6.0-5.36","3044668","co39688","norming","","","","","","",""
"2180","","","post_reveal_questions","survey-likert","264","1090134","0.0-6.0-6.36","3044668","co39688","norming","","","{""aha"":6}","[0]","../img/tt/1268tt.jpg","",""
"null","<div style=""font-size:60px;""> </div>","null","fixation","html-keyboard-response","265","1090337","0.0-6.0-0.37","3044668","co39688","norming","","","","","","",""
"null","../img/tt/358tt.jpg","null","mooney1","image-keyboard-response","266","1093339","0.0-6.0-1.37","3044668","co39688","norming","","","","","","",""
"5534","","","post_mooney1_questions","survey-likert","267","1098875","0.0-6.0-2.37","3044668","co39688","norming","","","{""curiosity"":6,""confidence"":0}","[0,1]","../img/tt/358tt.jpg","",""
"6278","","","recognition","survey-text","268","1105159","0.0-6.0-3.37","3044668","co39688","norming","","","{""guess"":""""}","","../img/tt/358tt.jpg","",""
"null","../img/gs/358gs.jpg","null","reveal","image-keyboard-response","269","1107162","0.0-6.0-4.37","3044668","co39688","norming","","","","","","",""
"null","../img/tt/358tt.jpg","null","mooney2","image-keyboard-response","270","1109163","0.0-6.0-5.37","3044668","co39688","norming","","","","","","",""
"2303","","","post_reveal_questions","survey-likert","271","1111468","0.0-6.0-6.37","3044668","co39688","norming","","","{""aha"":3}","[0]","../img/tt/358tt.jpg","",""
"null","<div style=""font-size:60px;""> </div>","null","fixation","html-keyboard-response","272","1111671","0.0-6.0-0.38","3044668","co39688","norming","","","","","","",""
"null","../img/tt/270tt.jpg","null","mooney1","image-keyboard-response","273","1114673","0.0-6.0-1.38","3044668","co39688","norming","","","","","","",""
"4816","","","post_mooney1_questions","survey-likert","274","1119491","0.0-6.0-2.38","3044668","co39688","norming","","","{""curiosity"":6,""confidence"":0}","[0,1]","../img/tt/270tt.jpg","",""
"950","","","recognition","survey-text","275","1120447","0.0-6.0-3.38","3044668","co39688","norming","","","{""guess"":""""}","","../img/tt/270tt.jpg","",""
"null","../img/gs/270gs.jpg","null","reveal","image-keyboard-response","276","1122450","0.0-6.0-4.38","3044668","co39688","norming","","","","","","",""
"null","../img/tt/270tt.jpg","null","mooney2","image-keyboard-response","277","1124452","0.0-6.0-5.38","3044668","co39688","norming","","","","","","",""
"2597","","","post_reveal_questions","survey-likert","278","1127050","0.0-6.0-6.38","3044668","co39688","norming","","","{""aha"":4}","[0]","../img/tt/270tt.jpg","",""
"null","<div style=""font-size:60px;""> </div>","null","fixation","html-keyboard-response","279","1127253","0.0-6.0-0.39","3044668","co39688","norming","","","","","","",""
"null","../img/tt/1102tt.jpg","null","mooney1","image-keyboard-response","280","1130255","0.0-6.0-1.39","3044668","co39688","norming","","","","","","",""
"4017","","","post_mooney1_questions","survey-likert","281","1134274","0.0-6.0-2.39","3044668","co39688","norming","","","{""curiosity"":5,""confidence"":1}","[0,1]","../img/tt/1102tt.jpg","",""
"3095","","","recognition","survey-text","282","1137376","0.0-6.0-3.39","3044668","co39688","norming","","","{""guess"":""tractor""}","","../img/tt/1102tt.jpg","",""
"null","../img/gs/1102gs.jpg","null","reveal","image-keyboard-response","283","1139378","0.0-6.0-4.39","3044668","co39688","norming","","","","","","",""
"null","../img/tt/1102tt.jpg","null","mooney2","image-keyboard-response","284","1141381","0.0-6.0-5.39","3044668","co39688","norming","","","","","","",""
"1994","","","post_reveal_questions","survey-likert","285","1143376","0.0-6.0-6.39","3044668","co39688","norming","","","{""aha"":4}","[0]","../img/tt/1102tt.jpg","",""
"null","<div style=""font-size:60px;""> </div>","null","fixation","html-keyboard-response","286","1143579","0.0-6.0-0.40","3044668","co39688","norming","","","","","","",""
"null","../img/tt/416tt.jpg","null","mooney1","image-keyboard-response","287","1146581","0.0-6.0-1.40","3044668","co39688","norming","","","","","","",""
"5119","","","post_mooney1_questions","survey-likert","288","1151702","0.0-6.0-2.40","3044668","co39688","norming","","","{""curiosity"":5,""confidence"":1}","[0,1]","../img/tt/416tt.jpg","",""
"4087","","","recognition","survey-text","289","1155795","0.0-6.0-3.40","3044668","co39688","norming","","","{""guess"":""sheep""}","","../img/tt/416tt.jpg","",""
"null","../img/gs/416gs.jpg","null","reveal","image-keyboard-response","290","1157798","0.0-6.0-4.40","3044668","co39688","norming","","","","","","",""
"null","../img/tt/416tt.jpg","null","mooney2","image-keyboard-response","291","1159800","0.0-6.0-5.40","3044668","co39688","norming","","","","","","",""
"2081","","","post_reveal_questions","survey-likert","292","1161883","0.0-6.0-6.40","3044668","co39688","norming","","","{""aha"":3}","[0]","../img/tt/416tt.jpg","",""
"null","<div style=""font-size:60px;""> </div>","null","fixation","html-keyboard-response","293","1162086","0.0-6.0-0.41","3044668","co39688","norming","","","","","","",""
"null","../img/tt/515tt.jpg","null","mooney1","image-keyboard-response","294","1165088","0.0-6.0-1.41","3044668","co39688","norming","","","","","","",""
"11609","","","post_mooney1_questions","survey-likert","295","1176698","0.0-6.0-2.41","3044668","co39688","norming","","","{""curiosity"":4,""confidence"":4}","[0,1]","../img/tt/515tt.jpg","",""
"2174","","","recognition","survey-text","296","1178879","0.0-6.0-3.41","3044668","co39688","norming","","","{""guess"":""bird""}","","../img/tt/515tt.jpg","",""
"null","../img/gs/515gs.jpg","null","reveal","image-keyboard-response","297","1180880","0.0-6.0-4.41","3044668","co39688","norming","","","","","","",""
"null","../img/tt/515tt.jpg","null","mooney2","image-keyboard-response","298","1182882","0.0-6.0-5.41","3044668","co39688","norming","","","","","","",""
"4415","","","post_reveal_questions","survey-likert","299","1187299","0.0-6.0-6.41","3044668","co39688","norming","","","{""aha"":3}","[0]","../img/tt/515tt.jpg","",""
"null","<div style=""font-size:60px;""> </div>","null","fixation","html-keyboard-response","300","1187502","0.0-6.0-0.42","3044668","co39688","norming","","","","","","",""
"null","../img/tt/1189tt.jpg","null","mooney1","image-keyboard-response","301","1190505","0.0-6.0-1.42","3044668","co39688","norming","","","","","","",""
"4752","","","post_mooney1_questions","survey-likert","302","1195258","0.0-6.0-2.42","3044668","co39688","norming","","","{""curiosity"":6,""confidence"":1}","[0,1]","../img/tt/1189tt.jpg","",""
"4951","","","recognition","survey-text","303","1200216","0.0-6.0-3.42","3044668","co39688","norming","","","{""guess"":""krokodil""}","","../img/tt/1189tt.jpg","",""
"null","../img/gs/1189gs.jpg","null","reveal","image-keyboard-response","304","1202219","0.0-6.0-4.42","3044668","co39688","norming","","","","","","",""
"null","../img/tt/1189tt.jpg","null","mooney2","image-keyboard-response","305","1204221","0.0-6.0-5.42","3044668","co39688","norming","","","","","","",""
"4863","","","post_reveal_questions","survey-likert","306","1209085","0.0-6.0-6.42","3044668","co39688","norming","","","{""aha"":6}","[0]","../img/tt/1189tt.jpg","",""
"null","<div style=""font-size:60px;""> </div>","null","fixation","html-keyboard-response","307","1209288","0.0-6.0-0.43","3044668","co39688","norming","","","","","","",""
"null","../img/tt/468tt.jpg","null","mooney1","image-keyboard-response","308","1212291","0.0-6.0-1.43","3044668","co39688","norming","","","","","","",""
"9743","","","post_mooney1_questions","survey-likert","309","1222036","0.0-6.0-2.43","3044668","co39688","norming","","","{""curiosity"":6,""confidence"":1}","[0,1]","../img/tt/468tt.jpg","",""
"4390","","","recognition","survey-text","310","1226433","0.0-6.0-3.43","3044668","co39688","norming","","","{""guess"":""boogschieten""}","","../img/tt/468tt.jpg","",""
"null","../img/gs/468gs.jpg","null","reveal","image-keyboard-response","311","1228436","0.0-6.0-4.43","3044668","co39688","norming","","","","","","",""
"null","../img/tt/468tt.jpg","null","mooney2","image-keyboard-response","312","1230438","0.0-6.0-5.43","3044668","co39688","norming","","","","","","",""
"2195","","","post_reveal_questions","survey-likert","313","1232634","0.0-6.0-6.43","3044668","co39688","norming","","","{""aha"":6}","[0]","../img/tt/468tt.jpg","",""
"null","<div style=""font-size:60px;""> </div>","null","fixation","html-keyboard-response","314","1232837","0.0-6.0-0.44","3044668","co39688","norming","","","","","","",""
"null","../img/tt/412tt.jpg","null","mooney1","image-keyboard-response","315","1235840","0.0-6.0-1.44","3044668","co39688","norming","","","","","","",""
"5906","","","post_mooney1_questions","survey-likert","316","1241748","0.0-6.0-2.44","3044668","co39688","norming","","","{""curiosity"":6,""confidence"":0}","[0,1]","../img/tt/412tt.jpg","",""
"1890","","","recognition","survey-text","317","1243644","0.0-6.0-3.44","3044668","co39688","norming","","","{""guess"":""""}","","../img/tt/412tt.jpg","",""
"null","../img/gs/412gs.jpg","null","reveal","image-keyboard-response","318","1245646","0.0-6.0-4.44","3044668","co39688","norming","","","","","","",""
"null","../img/tt/412tt.jpg","null","mooney2","image-keyboard-response","319","1247648","0.0-6.0-5.44","3044668","co39688","norming","","","","","","",""
"2794.000000000233","","","post_reveal_questions","survey-likert","320","1250443","0.0-6.0-6.44","3044668","co39688","norming","","","{""aha"":0}","[0]","../img/tt/412tt.jpg","",""
"null","<div style=""font-size:60px;""> </div>","null","fixation","html-keyboard-response","321","1250647","0.0-6.0-0.45","3044668","co39688","norming","","","","","","",""
"null","../img/tt/436tt.jpg","null","mooney1","image-keyboard-response","322","1253650","0.0-6.0-1.45","3044668","co39688","norming","","","","","","",""
"4623","","","post_mooney1_questions","survey-likert","323","1258275","0.0-6.0-2.45","3044668","co39688","norming","","","{""curiosity"":6,""confidence"":0}","[0,1]","../img/tt/436tt.jpg","",""
"1333","","","recognition","survey-text","324","1259615","0.0-6.0-3.45","3044668","co39688","norming","","","{""guess"":""""}","","../img/tt/436tt.jpg","",""
"null","../img/gs/436gs.jpg","null","reveal","image-keyboard-response","325","1261617","0.0-6.0-4.45","3044668","co39688","norming","","","","","","",""
"null","../img/tt/436tt.jpg","null","mooney2","image-keyboard-response","326","1263619","0.0-6.0-5.45","3044668","co39688","norming","","","","","","",""
"2181","","","post_reveal_questions","survey-likert","327","1265802","0.0-6.0-6.45","3044668","co39688","norming","","","{""aha"":3}","[0]","../img/tt/436tt.jpg","",""
"null","<div style=""font-size:60px;""> </div>","null","fixation","html-keyboard-response","328","1266005","0.0-6.0-0.46","3044668","co39688","norming","","","","","","",""
"null","../img/tt/046tt.jpg","null","mooney1","image-keyboard-response","329","1269007","0.0-6.0-1.46","3044668","co39688","norming","","","","","","",""
"5456","","","post_mooney1_questions","survey-likert","330","1274465","0.0-6.0-2.46","3044668","co39688","norming","","","{""curiosity"":6,""confidence"":0}","[0,1]","../img/tt/046tt.jpg","",""
"1472.0000000002328","","","recognition","survey-text","331","1275944","0.0-6.0-3.46","3044668","co39688","norming","","","{""guess"":""""}","","../img/tt/046tt.jpg","",""
"null","../img/gs/046gs.jpg","null","reveal","image-keyboard-response","332","1277946","0.0-6.0-4.46","3044668","co39688","norming","","","","","","",""
"null","../img/tt/046tt.jpg","null","mooney2","image-keyboard-response","333","1279948","0.0-6.0-5.46","3044668","co39688","norming","","","","","","",""
"3283.000000000233","","","post_reveal_questions","survey-likert","334","1283233","0.0-6.0-6.46","3044668","co39688","norming","","","{""aha"":0}","[0]","../img/tt/046tt.jpg","",""
"null","<div style=""font-size:60px;""> </div>","null","fixation","html-keyboard-response","335","1283436","0.0-6.0-0.47","3044668","co39688","norming","","","","","","",""
"null","../img/tt/1072tt.jpg","null","mooney1","image-keyboard-response","336","1286439","0.0-6.0-1.47","3044668","co39688","norming","","","","","","",""
"5464","","","post_mooney1_questions","survey-likert","337","1291905","0.0-6.0-2.47","3044668","co39688","norming","","","{""curiosity"":6,""confidence"":0}","[0,1]","../img/tt/1072tt.jpg","",""
"1162","","","recognition","survey-text","338","1293073","0.0-6.0-3.47","3044668","co39688","norming","","","{""guess"":""""}","","../img/tt/1072tt.jpg","",""
"null","../img/gs/1072gs.jpg","null","reveal","image-keyboard-response","339","1295075","0.0-6.0-4.47","3044668","co39688","norming","","","","","","",""
"null","../img/tt/1072tt.jpg","null","mooney2","image-keyboard-response","340","1297077","0.0-6.0-5.47","3044668","co39688","norming","","","","","","",""
"2206","","","post_reveal_questions","survey-likert","341","1299284","0.0-6.0-6.47","3044668","co39688","norming","","","{""aha"":5}","[0]","../img/tt/1072tt.jpg","",""
"null","<div style=""font-size:60px;""> </div>","null","fixation","html-keyboard-response","342","1299487","0.0-6.0-0.48","3044668","co39688","norming","","","","","","",""
"null","../img/tt/1191tt.jpg","null","mooney1","image-keyboard-response","343","1302490","0.0-6.0-1.48","3044668","co39688","norming","","","","","","",""
"6142","","","post_mooney1_questions","survey-likert","344","1308634","0.0-6.0-2.48","3044668","co39688","norming","","","{""curiosity"":6,""confidence"":1}","[0,1]","../img/tt/1191tt.jpg","",""
"2275.000000000233","","","recognition","survey-text","345","1310916","0.0-6.0-3.48","3044668","co39688","norming","","","{""guess"":""tiger""}","","../img/tt/1191tt.jpg","",""
"null","../img/gs/1191gs.jpg","null","reveal","image-keyboard-response","346","1312919","0.0-6.0-4.48","3044668","co39688","norming","","","","","","",""
"null","../img/tt/1191tt.jpg","null","mooney2","image-keyboard-response","347","1314921","0.0-6.0-5.48","3044668","co39688","norming","","","","","","",""
"2693","","","post_reveal_questions","survey-likert","348","1317616","0.0-6.0-6.48","3044668","co39688","norming","","","{""aha"":6}","[0]","../img/tt/1191tt.jpg","",""
"null","<div style=""font-size:60px;""> </div>","null","fixation","html-keyboard-response","349","1317819","0.0-6.0-0.49","3044668","co39688","norming","","","","","","",""
"null","../img/tt/1044tt.jpg","null","mooney1","image-keyboard-response","350","1320821","0.0-6.0-1.49","3044668","co39688","norming","","","","","","",""
"5456","","","post_mooney1_questions","survey-likert","351","1326279","0.0-6.0-2.49","3044668","co39688","norming","","","{""curiosity"":6,""confidence"":0}","[0,1]","../img/tt/1044tt.jpg","",""
"1244","","","recognition","survey-text","352","1327530","0.0-6.0-3.49","3044668","co39688","norming","","","{""guess"":""""}","","../img/tt/1044tt.jpg","",""
"null","../img/gs/1044gs.jpg","null","reveal","image-keyboard-response","353","1329532","0.0-6.0-4.49","3044668","co39688","norming","","","","","","",""
"null","../img/tt/1044tt.jpg","null","mooney2","image-keyboard-response","354","1331534","0.0-6.0-5.49","3044668","co39688","norming","","","","","","",""
"1527","","","post_reveal_questions","survey-likert","355","1333062","0.0-6.0-6.49","3044668","co39688","norming","","","{""aha"":6}","[0]","../img/tt/1044tt.jpg","",""
"null","<div style=""font-size:60px;""> </div>","null","fixation","html-keyboard-response","356","1333265","0.0-6.0-0.50","3044668","co39688","norming","","","","","","",""
"null","../img/tt/1270tt.jpg","null","mooney1","image-keyboard-response","357","1336268","0.0-6.0-1.50","3044668","co39688","norming","","","","","","",""
"5776","","","post_mooney1_questions","survey-likert","358","1342046","0.0-6.0-2.50","3044668","co39688","norming","","","{""curiosity"":6,""confidence"":0}","[0,1]","../img/tt/1270tt.jpg","",""
"1170","","","recognition","survey-text","359","1343222","0.0-6.0-3.50","3044668","co39688","norming","","","{""guess"":""""}","","../img/tt/1270tt.jpg","",""
"null","../img/gs/1270gs.jpg","null","reveal","image-keyboard-response","360","1345224","0.0-6.0-4.50","3044668","co39688","norming","","","","","","",""
"null","../img/tt/1270tt.jpg","null","mooney2","image-keyboard-response","361","1347227","0.0-6.0-5.50","3044668","co39688","norming","","","","","","",""
"4819","","","post_reveal_questions","survey-likert","362","1352047","0.0-6.0-6.50","3044668","co39688","norming","","","{""aha"":2}","[0]","../img/tt/1270tt.jpg","",""
"null","<div style=""font-size:60px;""> </div>","null","fixation","html-keyboard-response","363","1352250","0.0-6.0-0.51","3044668","co39688","norming","","","","","","",""
"null","../img/tt/435tt.jpg","null","mooney1","image-keyboard-response","364","1355253","0.0-6.0-1.51","3044668","co39688","norming","","","","","","",""
"4948","","","post_mooney1_questions","survey-likert","365","1360202","0.0-6.0-2.51","3044668","co39688","norming","","","{""curiosity"":6,""confidence"":2}","[0,1]","../img/tt/435tt.jpg","",""
"3484","","","recognition","survey-text","366","1363692","0.0-6.0-3.51","3044668","co39688","norming","","","{""guess"":""biljart""}","","../img/tt/435tt.jpg","",""
"null","../img/gs/435gs.jpg","null","reveal","image-keyboard-response","367","1365695","0.0-6.0-4.51","3044668","co39688","norming","","","","","","",""
"null","../img/tt/435tt.jpg","null","mooney2","image-keyboard-response","368","1367698","0.0-6.0-5.51","3044668","co39688","norming","","","","","","",""
"4961","","","post_reveal_questions","survey-likert","369","1372660","0.0-6.0-6.51","3044668","co39688","norming","","","{""aha"":5}","[0]","../img/tt/435tt.jpg","",""
"null","<div style=""font-size:60px;""> </div>","null","fixation","html-keyboard-response","370","1372863","0.0-6.0-0.52","3044668","co39688","norming","","","","","","",""
"null","../img/tt/1307tt.jpg","null","mooney1","image-keyboard-response","371","1375866","0.0-6.0-1.52","3044668","co39688","norming","","","","","","",""
"6110","","","post_mooney1_questions","survey-likert","372","1381977","0.0-6.0-2.52","3044668","co39688","norming","","","{""curiosity"":4,""confidence"":4}","[0,1]","../img/tt/1307tt.jpg","",""
"1825","","","recognition","survey-text","373","1383808","0.0-6.0-3.52","3044668","co39688","norming","","","{""guess"":""wiel""}","","../img/tt/1307tt.jpg","",""
"null","../img/gs/1307gs.jpg","null","reveal","image-keyboard-response","374","1385811","0.0-6.0-4.52","3044668","co39688","norming","","","","","","",""
"null","../img/tt/1307tt.jpg","null","mooney2","image-keyboard-response","375","1387814","0.0-6.0-5.52","3044668","co39688","norming","","","","","","",""
"2720","","","post_reveal_questions","survey-likert","376","1390536","0.0-6.0-6.52","3044668","co39688","norming","","","{""aha"":6}","[0]","../img/tt/1307tt.jpg","",""
"null","<div style=""font-size:60px;""> </div>","null","fixation","html-keyboard-response","377","1390739","0.0-6.0-0.53","3044668","co39688","norming","","","","","","",""
"null","../img/tt/1200tt.jpg","null","mooney1","image-keyboard-response","378","1393740","0.0-6.0-1.53","3044668","co39688","norming","","","","","","",""
"5408","","","post_mooney1_questions","survey-likert","379","1399150","0.0-6.0-2.53","3044668","co39688","norming","","","{""curiosity"":6,""confidence"":0}","[0,1]","../img/tt/1200tt.jpg","",""
"1056","","","recognition","survey-text","380","1400212","0.0-6.0-3.53","3044668","co39688","norming","","","{""guess"":""""}","","../img/tt/1200tt.jpg","",""
"null","../img/gs/1200gs.jpg","null","reveal","image-keyboard-response","381","1402214","0.0-6.0-4.53","3044668","co39688","norming","","","","","","",""
"null","../img/tt/1200tt.jpg","null","mooney2","image-keyboard-response","382","1404216","0.0-6.0-5.53","3044668","co39688","norming","","","","","","",""
"1993","","","post_reveal_questions","survey-likert","383","1406211","0.0-6.0-6.53","3044668","co39688","norming","","","{""aha"":5}","[0]","../img/tt/1200tt.jpg","",""
"null","<div style=""font-size:60px;""> </div>","null","fixation","html-keyboard-response","384","1406414","0.0-6.0-0.54","3044668","co39688","norming","","","","","","",""
"null","../img/tt/020tt.jpg","null","mooney1","image-keyboard-response","385","1409416","0.0-6.0-1.54","3044668","co39688","norming","","","","","","",""
"4289","","","post_mooney1_questions","survey-likert","386","1413707","0.0-6.0-2.54","3044668","co39688","norming","","","{""curiosity"":6,""confidence"":0}","[0,1]","../img/tt/020tt.jpg","",""
"1348","","","recognition","survey-text","387","1415061","0.0-6.0-3.54","3044668","co39688","norming","","","{""guess"":""""}","","../img/tt/020tt.jpg","",""
"null","../img/gs/020gs.jpg","null","reveal","image-keyboard-response","388","1417064","0.0-6.0-4.54","3044668","co39688","norming","","","","","","",""
"null","../img/tt/020tt.jpg","null","mooney2","image-keyboard-response","389","1419066","0.0-6.0-5.54","3044668","co39688","norming","","","","","","",""
"2606","","","post_reveal_questions","survey-likert","390","1421674","0.0-6.0-6.54","3044668","co39688","norming","","","{""aha"":4}","[0]","../img/tt/020tt.jpg","",""
"null","<div style=""font-size:60px;""> </div>","null","fixation","html-keyboard-response","391","1421877","0.0-6.0-0.55","3044668","co39688","norming","","","","","","",""
"null","../img/tt/007tt.jpg","null","mooney1","image-keyboard-response","392","1424879","0.0-6.0-1.55","3044668","co39688","norming","","","","","","",""
"3413","","","post_mooney1_questions","survey-likert","393","1428295","0.0-6.0-2.55","3044668","co39688","norming","","","{""curiosity"":6,""confidence"":0}","[0,1]","../img/tt/007tt.jpg","",""
"1374","","","recognition","survey-text","394","1429675","0.0-6.0-3.55","3044668","co39688","norming","","","{""guess"":""""}","","../img/tt/007tt.jpg","",""
"null","../img/gs/007gs.jpg","null","reveal","image-keyboard-response","395","1431677","0.0-6.0-4.55","3044668","co39688","norming","","","","","","",""
"null","../img/tt/007tt.jpg","null","mooney2","image-keyboard-response","396","1433679","0.0-6.0-5.55","3044668","co39688","norming","","","","","","",""
"1969.0000000002328","","","post_reveal_questions","survey-likert","397","1435649","0.0-6.0-6.55","3044668","co39688","norming","","","{""aha"":5}","[0]","../img/tt/007tt.jpg","",""
"null","<div style=""font-size:60px;""> </div>","null","fixation","html-keyboard-response","398","1435851","0.0-6.0-0.56","3044668","co39688","norming","","","","","","",""
"null","../img/tt/032tt.jpg","null","mooney1","image-keyboard-response","399","1438854","0.0-6.0-1.56","3044668","co39688","norming","","","","","","",""
"4631.000000000233","","","post_mooney1_questions","survey-likert","400","1443487","0.0-6.0-2.56","3044668","co39688","norming","","","{""curiosity"":6,""confidence"":3}","[0,1]","../img/tt/032tt.jpg","",""
"2637.000000000233","","","recognition","survey-text","401","1446130","0.0-6.0-3.56","3044668","co39688","norming","","","{""guess"":""reindeer""}","","../img/tt/032tt.jpg","",""
"null","../img/gs/032gs.jpg","null","reveal","image-keyboard-response","402","1448133","0.0-6.0-4.56","3044668","co39688","norming","","","","","","",""
"null","../img/tt/032tt.jpg","null","mooney2","image-keyboard-response","403","1450135","0.0-6.0-5.56","3044668","co39688","norming","","","","","","",""
"3939","","","post_reveal_questions","survey-likert","404","1454075","0.0-6.0-6.56","3044668","co39688","norming","","","{""aha"":6}","[0]","../img/tt/032tt.jpg","",""
"null","<div style=""font-size:60px;""> </div>","null","fixation","html-keyboard-response","405","1454279","0.0-6.0-0.57","3044668","co39688","norming","","","","","","",""
"null","../img/tt/1242tt.jpg","null","mooney1","image-keyboard-response","406","1457281","0.0-6.0-1.57","3044668","co39688","norming","","","","","","",""
"3706","","","post_mooney1_questions","survey-likert","407","1460989","0.0-6.0-2.57","3044668","co39688","norming","","","{""curiosity"":6,""confidence"":0}","[0,1]","../img/tt/1242tt.jpg","",""
"1277","","","recognition","survey-text","408","1462271","0.0-6.0-3.57","3044668","co39688","norming","","","{""guess"":""""}","","../img/tt/1242tt.jpg","",""
"null","../img/gs/1242gs.jpg","null","reveal","image-keyboard-response","409","1464274","0.0-6.0-4.57","3044668","co39688","norming","","","","","","",""
"null","../img/tt/1242tt.jpg","null","mooney2","image-keyboard-response","410","1466276","0.0-6.0-5.57","3044668","co39688","norming","","","","","","",""
"2656","","","post_reveal_questions","survey-likert","411","1468933","0.0-6.0-6.57","3044668","co39688","norming","","","{""aha"":4}","[0]","../img/tt/1242tt.jpg","",""
"null","<div style=""font-size:60px;""> </div>","null","fixation","html-keyboard-response","412","1469136","0.0-6.0-0.58","3044668","co39688","norming","","","","","","",""
"null","../img/tt/1046tt.jpg","null","mooney1","image-keyboard-response","413","1472139","0.0-6.0-1.58","3044668","co39688","norming","","","","","","",""
"5690.999999999767","","","post_mooney1_questions","survey-likert","414","1477832","0.0-6.0-2.58","3044668","co39688","norming","","","{""curiosity"":5,""confidence"":0}","[0,1]","../img/tt/1046tt.jpg","",""
"1220","","","recognition","survey-text","415","1479058","0.0-6.0-3.58","3044668","co39688","norming","","","{""guess"":""""}","","../img/tt/1046tt.jpg","",""
"null","../img/gs/1046gs.jpg","null","reveal","image-keyboard-response","416","1481061","0.0-6.0-4.58","3044668","co39688","norming","","","","","","",""
"null","../img/tt/1046tt.jpg","null","mooney2","image-keyboard-response","417","1483063","0.0-6.0-5.58","3044668","co39688","norming","","","","","","",""
"1419.9999999997672","","","post_reveal_questions","survey-likert","418","1484484","0.0-6.0-6.58","3044668","co39688","norming","","","{""aha"":2}","[0]","../img/tt/1046tt.jpg","",""
"null","<div style=""font-size:60px;""> </div>","null","fixation","html-keyboard-response","419","1484687","0.0-6.0-0.59","3044668","co39688","norming","","","","","","",""
"null","../img/tt/096tt.jpg","null","mooney1","image-keyboard-response","420","1487690","0.0-6.0-1.59","3044668","co39688","norming","","","","","","",""
"7790","","","post_mooney1_questions","survey-likert","421","1495482","0.0-6.0-2.59","3044668","co39688","norming","","","{""curiosity"":3,""confidence"":5}","[0,1]","../img/tt/096tt.jpg","",""
"2115","","","recognition","survey-text","422","1497603","0.0-6.0-3.59","3044668","co39688","norming","","","{""guess"":""piano""}","","../img/tt/096tt.jpg","",""
"null","../img/gs/096gs.jpg","null","reveal","image-keyboard-response","423","1499606","0.0-6.0-4.59","3044668","co39688","norming","","","","","","",""
"null","../img/tt/096tt.jpg","null","mooney2","image-keyboard-response","424","1501607","0.0-6.0-5.59","3044668","co39688","norming","","","","","","",""
"1834","","","post_reveal_questions","survey-likert","425","1503442","0.0-6.0-6.59","3044668","co39688","norming","","","{""aha"":3}","[0]","../img/tt/096tt.jpg","",""
"null","<div style=""font-size:60px;""> </div>","null","fixation","html-keyboard-response","426","1503646","0.0-6.0-0.60","3044668","co39688","norming","","","","","","",""
"null","../img/tt/1276tt.jpg","null","mooney1","image-keyboard-response","427","1506648","0.0-6.0-1.60","3044668","co39688","norming","","","","","","",""
"5754","","","post_mooney1_questions","survey-likert","428","1512404","0.0-6.0-2.60","3044668","co39688","norming","","","{""curiosity"":6,""confidence"":1}","[0,1]","../img/tt/1276tt.jpg","",""
"1876.9999999997672","","","recognition","survey-text","429","1514288","0.0-6.0-3.60","3044668","co39688","norming","","","{""guess"":""animal""}","","../img/tt/1276tt.jpg","",""
"null","../img/gs/1276gs.jpg","null","reveal","image-keyboard-response","430","1516291","0.0-6.0-4.60","3044668","co39688","norming","","","","","","",""
"null","../img/tt/1276tt.jpg","null","mooney2","image-keyboard-response","431","1518293","0.0-6.0-5.60","3044668","co39688","norming","","","","","","",""
"5421","","","post_reveal_questions","survey-likert","432","1523715","0.0-6.0-6.60","3044668","co39688","norming","","","{""aha"":4}","[0]","../img/tt/1276tt.jpg","",""
"null","<div style=""font-size:60px;""> </div>","null","fixation","html-keyboard-response","433","1523918","0.0-6.0-0.61","3044668","co39688","norming","","","","","","",""
"null","../img/tt/1235tt.jpg","null","mooney1","image-keyboard-response","434","1526921","0.0-6.0-1.61","3044668","co39688","norming","","","","","","",""
"3675","","","post_mooney1_questions","survey-likert","435","1530597","0.0-6.0-2.61","3044668","co39688","norming","","","{""curiosity"":6,""confidence"":0}","[0,1]","../img/tt/1235tt.jpg","",""
"851.9999999997672","","","recognition","survey-text","436","1531455","0.0-6.0-3.61","3044668","co39688","norming","","","{""guess"":""""}","","../img/tt/1235tt.jpg","",""
"null","../img/gs/1235gs.jpg","null","reveal","image-keyboard-response","437","1533457","0.0-6.0-4.61","3044668","co39688","norming","","","","","","",""
"null","../img/tt/1235tt.jpg","null","mooney2","image-keyboard-response","438","1535459","0.0-6.0-5.61","3044668","co39688","norming","","","","","","",""
"2679","","","post_reveal_questions","survey-likert","439","1538140","0.0-6.0-6.61","3044668","co39688","norming","","","{""aha"":5}","[0]","../img/tt/1235tt.jpg","",""
"null","<div style=""font-size:60px;""> </div>","null","fixation","html-keyboard-response","440","1538343","0.0-6.0-0.62","3044668","co39688","norming","","","","","","",""
"null","../img/tt/1362tt.jpg","null","mooney1","image-keyboard-response","441","1541345","0.0-6.0-1.62","3044668","co39688","norming","","","","","","",""
"4997.000000000233","","","post_mooney1_questions","survey-likert","442","1546345","0.0-6.0-2.62","3044668","co39688","norming","","","{""curiosity"":6,""confidence"":0}","[0,1]","../img/tt/1362tt.jpg","",""
"957","","","recognition","survey-text","443","1547309","0.0-6.0-3.62","3044668","co39688","norming","","","{""guess"":""""}","","../img/tt/1362tt.jpg","",""
"null","../img/gs/1362gs.jpg","null","reveal","image-keyboard-response","444","1549311","0.0-6.0-4.62","3044668","co39688","norming","","","","","","",""
"null","../img/tt/1362tt.jpg","null","mooney2","image-keyboard-response","445","1551313","0.0-6.0-5.62","3044668","co39688","norming","","","","","","",""
"3251","","","post_reveal_questions","survey-likert","446","1554566","0.0-6.0-6.62","3044668","co39688","norming","","","{""aha"":6}","[0]","../img/tt/1362tt.jpg","",""
"null","<div style=""font-size:60px;""> </div>","null","fixation","html-keyboard-response","447","1554769","0.0-6.0-0.63","3044668","co39688","norming","","","","","","",""
"null","../img/tt/1055tt.jpg","null","mooney1","image-keyboard-response","448","1557772","0.0-6.0-1.63","3044668","co39688","norming","","","","","","",""
"5979","","","post_mooney1_questions","survey-likert","449","1563753","0.0-6.0-2.63","3044668","co39688","norming","","","{""curiosity"":6,""confidence"":1}","[0,1]","../img/tt/1055tt.jpg","",""
"2430","","","recognition","survey-text","450","1566190","0.0-6.0-3.63","3044668","co39688","norming","","","{""guess"":""boat""}","","../img/tt/1055tt.jpg","",""
"null","../img/gs/1055gs.jpg","null","reveal","image-keyboard-response","451","1568192","0.0-6.0-4.63","3044668","co39688","norming","","","","","","",""
"null","../img/tt/1055tt.jpg","null","mooney2","image-keyboard-response","452","1570193","0.0-6.0-5.63","3044668","co39688","norming","","","","","","",""
"2660","","","post_reveal_questions","survey-likert","453","1572855","0.0-6.0-6.63","3044668","co39688","norming","","","{""aha"":5}","[0]","../img/tt/1055tt.jpg","",""
"null","<div style=""font-size:60px;""> </div>","null","fixation","html-keyboard-response","454","1573058","0.0-6.0-0.64","3044668","co39688","norming","","","","","","",""
"null","../img/tt/123tt.jpg","null","mooney1","image-keyboard-response","455","1576060","0.0-6.0-1.64","3044668","co39688","norming","","","","","","",""
"4754.000000000233","","","post_mooney1_questions","survey-likert","456","1580815","0.0-6.0-2.64","3044668","co39688","norming","","","{""curiosity"":6,""confidence"":1}","[0,1]","../img/tt/123tt.jpg","",""
"6218","","","recognition","survey-text","457","1587042","0.0-6.0-3.64","3044668","co39688","norming","","","{""guess"":""keyboard""}","","../img/tt/123tt.jpg","",""
"null","../img/gs/123gs.jpg","null","reveal","image-keyboard-response","458","1589045","0.0-6.0-4.64","3044668","co39688","norming","","","","","","",""
"null","../img/tt/123tt.jpg","null","mooney2","image-keyboard-response","459","1591047","0.0-6.0-5.64","3044668","co39688","norming","","","","","","",""
"2712","","","post_reveal_questions","survey-likert","460","1593760","0.0-6.0-6.64","3044668","co39688","norming","","","{""aha"":5}","[0]","../img/tt/123tt.jpg","",""
"null","<div style=""font-size:60px;""> </div>","null","fixation","html-keyboard-response","461","1593963","0.0-6.0-0.65","3044668","co39688","norming","","","","","","",""
"null","../img/tt/1261tt.jpg","null","mooney1","image-keyboard-response","462","1596966","0.0-6.0-1.65","3044668","co39688","norming","","","","","","",""
"3535","","","post_mooney1_questions","survey-likert","463","1600503","0.0-6.0-2.65","3044668","co39688","norming","","","{""curiosity"":5,""confidence"":1}","[0,1]","../img/tt/1261tt.jpg","",""
"1754","","","recognition","survey-text","464","1602263","0.0-6.0-3.65","3044668","co39688","norming","","","{""guess"":""dog""}","","../img/tt/1261tt.jpg","",""
"null","../img/gs/1261gs.jpg","null","reveal","image-keyboard-response","465","1604266","0.0-6.0-4.65","3044668","co39688","norming","","","","","","",""
"null","../img/tt/1261tt.jpg","null","mooney2","image-keyboard-response","466","1606267","0.0-6.0-5.65","3044668","co39688","norming","","","","","","",""
"2478.999999999767","","","post_reveal_questions","survey-likert","467","1608748","0.0-6.0-6.65","3044668","co39688","norming","","","{""aha"":4}","[0]","../img/tt/1261tt.jpg","",""
"null","<div style=""font-size:60px;""> </div>","null","fixation","html-keyboard-response","468","1608949","0.0-6.0-0.66","3044668","co39688","norming","","","","","","",""
"null","../img/tt/094tt.jpg","null","mooney1","image-keyboard-response","469","1611951","0.0-6.0-1.66","3044668","co39688","norming","","","","","","",""
"4175","","","post_mooney1_questions","survey-likert","470","1616129","0.0-6.0-2.66","3044668","co39688","norming","","","{""curiosity"":5,""confidence"":0}","[0,1]","../img/tt/094tt.jpg","",""
"1366","","","recognition","survey-text","471","1617501","0.0-6.0-3.66","3044668","co39688","norming","","","{""guess"":""""}","","../img/tt/094tt.jpg","",""
"null","../img/gs/094gs.jpg","null","reveal","image-keyboard-response","472","1619503","0.0-6.0-4.66","3044668","co39688","norming","","","","","","",""
"null","../img/tt/094tt.jpg","null","mooney2","image-keyboard-response","473","1621506","0.0-6.0-5.66","3044668","co39688","norming","","","","","","",""
"1931","","","post_reveal_questions","survey-likert","474","1623438","0.0-6.0-6.66","3044668","co39688","norming","","","{""aha"":6}","[0]","../img/tt/094tt.jpg","",""
"null","<div style=""font-size:60px;""> </div>","null","fixation","html-keyboard-response","475","1623641","0.0-6.0-0.67","3044668","co39688","norming","","","","","","",""
"null","../img/tt/085tt.jpg","null","mooney1","image-keyboard-response","476","1626642","0.0-6.0-1.67","3044668","co39688","norming","","","","","","",""
"3765.999999999767","","","post_mooney1_questions","survey-likert","477","1630410","0.0-6.0-2.67","3044668","co39688","norming","","","{""curiosity"":6,""confidence"":0}","[0,1]","../img/tt/085tt.jpg","",""
"1391.0000000002328","","","recognition","survey-text","478","1631808","0.0-6.0-3.67","3044668","co39688","norming","","","{""guess"":""""}","","../img/tt/085tt.jpg","",""
"null","../img/gs/085gs.jpg","null","reveal","image-keyboard-response","479","1633810","0.0-6.0-4.67","3044668","co39688","norming","","","","","","",""
"null","../img/tt/085tt.jpg","null","mooney2","image-keyboard-response","480","1635812","0.0-6.0-5.67","3044668","co39688","norming","","","","","","",""
"1902","","","post_reveal_questions","survey-likert","481","1637716","0.0-6.0-6.67","3044668","co39688","norming","","","{""aha"":5}","[0]","../img/tt/085tt.jpg","",""
"null","<div style=""font-size:60px;""> </div>","null","fixation","html-keyboard-response","482","1637919","0.0-6.0-0.68","3044668","co39688","norming","","","","","","",""
"null","../img/tt/1012tt.jpg","null","mooney1","image-keyboard-response","483","1640921","0.0-6.0-1.68","3044668","co39688","norming","","","","","","",""
"5513","","","post_mooney1_questions","survey-likert","484","1646436","0.0-6.0-2.68","3044668","co39688","norming","","","{""curiosity"":6,""confidence"":0}","[0,1]","../img/tt/1012tt.jpg","",""
"940.9999999997672","","","recognition","survey-text","485","1647382","0.0-6.0-3.68","3044668","co39688","norming","","","{""guess"":""""}","","../img/tt/1012tt.jpg","",""
"null","../img/gs/1012gs.jpg","null","reveal","image-keyboard-response","486","1649385","0.0-6.0-4.68","3044668","co39688","norming","","","","","","",""
"null","../img/tt/1012tt.jpg","null","mooney2","image-keyboard-response","487","1651387","0.0-6.0-5.68","3044668","co39688","norming","","","","","","",""
"3774","","","post_reveal_questions","survey-likert","488","1655163","0.0-6.0-6.68","3044668","co39688","norming","","","{""aha"":4}","[0]","../img/tt/1012tt.jpg","",""
"null","<div style=""font-size:60px;""> </div>","null","fixation","html-keyboard-response","489","1655366","0.0-6.0-0.69","3044668","co39688","norming","","","","","","",""
"null","../img/tt/1086tt.jpg","null","mooney1","image-keyboard-response","490","1658369","0.0-6.0-1.69","3044668","co39688","norming","","","","","","",""
"7305","","","post_mooney1_questions","survey-likert","491","1665675","0.0-6.0-2.69","3044668","co39688","norming","","","{""curiosity"":4,""confidence"":4}","[0,1]","../img/tt/1086tt.jpg","",""
"2430","","","recognition","survey-text","492","1668111","0.0-6.0-3.69","3044668","co39688","norming","","","{""guess"":""husky""}","","../img/tt/1086tt.jpg","",""
"null","../img/gs/1086gs.jpg","null","reveal","image-keyboard-response","493","1670114","0.0-6.0-4.69","3044668","co39688","norming","","","","","","",""
"null","../img/tt/1086tt.jpg","null","mooney2","image-keyboard-response","494","1672117","0.0-6.0-5.69","3044668","co39688","norming","","","","","","",""
"3288","","","post_reveal_questions","survey-likert","495","1675406","0.0-6.0-6.69","3044668","co39688","norming","","","{""aha"":4}","[0]","../img/tt/1086tt.jpg","",""
"null","<div style=""font-size:60px;""> </div>","null","fixation","html-keyboard-response","496","1675609","0.0-6.0-0.70","3044668","co39688","norming","","","","","","",""
"null","../img/tt/1254tt.jpg","null","mooney1","image-keyboard-response","497","1678611","0.0-6.0-1.70","3044668","co39688","norming","","","","","","",""
"4189","","","post_mooney1_questions","survey-likert","498","1682803","0.0-6.0-2.70","3044668","co39688","norming","","","{""curiosity"":6,""confidence"":1}","[0,1]","../img/tt/1254tt.jpg","",""
"3531.999999999767","","","recognition","survey-text","499","1686340","0.0-6.0-3.70","3044668","co39688","norming","","","{""guess"":""rabbit""}","","../img/tt/1254tt.jpg","",""
"null","../img/gs/1254gs.jpg","null","reveal","image-keyboard-response","500","1688343","0.0-6.0-4.70","3044668","co39688","norming","","","","","","",""
"null","../img/tt/1254tt.jpg","null","mooney2","image-keyboard-response","501","1690346","0.0-6.0-5.70","3044668","co39688","norming","","","","","","",""
"3947.999999999767","","","post_reveal_questions","survey-likert","502","1694294","0.0-6.0-6.70","3044668","co39688","norming","","","{""aha"":5}","[0]","../img/tt/1254tt.jpg","",""
"null","<div style=""font-size:60px;""> </div>","null","fixation","html-keyboard-response","503","1694497","0.0-6.0-0.71","3044668","co39688","norming","","","","","","",""
"null","../img/tt/1269tt.jpg","null","mooney1","image-keyboard-response","504","1697499","0.0-6.0-1.71","3044668","co39688","norming","","","","","","",""
"9085.999999999767","","","post_mooney1_questions","survey-likert","505","1706587","0.0-6.0-2.71","3044668","co39688","norming","","","{""curiosity"":6,""confidence"":3}","[0,1]","../img/tt/1269tt.jpg","",""
"2235.000000000233","","","recognition","survey-text","506","1708828","0.0-6.0-3.71","3044668","co39688","norming","","","{""guess"":""dog""}","","../img/tt/1269tt.jpg","",""
"null","../img/gs/1269gs.jpg","null","reveal","image-keyboard-response","507","1710831","0.0-6.0-4.71","3044668","co39688","norming","","","","","","",""
"null","../img/tt/1269tt.jpg","null","mooney2","image-keyboard-response","508","1712832","0.0-6.0-5.71","3044668","co39688","norming","","","","","","",""
"1954","","","post_reveal_questions","survey-likert","509","1714788","0.0-6.0-6.71","3044668","co39688","norming","","","{""aha"":6}","[0]","../img/tt/1269tt.jpg","",""
"null","<div style=""font-size:60px;""> </div>","null","fixation","html-keyboard-response","510","1714991","0.0-6.0-0.72","3044668","co39688","norming","","","","","","",""
"null","../img/tt/013tt.jpg","null","mooney1","image-keyboard-response","511","1717993","0.0-6.0-1.72","3044668","co39688","norming","","","","","","",""
"6772","","","post_mooney1_questions","survey-likert","512","1724766","0.0-6.0-2.72","3044668","co39688","norming","","","{""curiosity"":6,""confidence"":0}","[0,1]","../img/tt/013tt.jpg","",""
"2127","","","recognition","survey-text","513","1726899","0.0-6.0-3.72","3044668","co39688","norming","","","{""guess"":""""}","","../img/tt/013tt.jpg","",""
"null","../img/gs/013gs.jpg","null","reveal","image-keyboard-response","514","1728901","0.0-6.0-4.72","3044668","co39688","norming","","","","","","",""
"null","../img/tt/013tt.jpg","null","mooney2","image-keyboard-response","515","1730904","0.0-6.0-5.72","3044668","co39688","norming","","","","","","",""
"4249","","","post_reveal_questions","survey-likert","516","1735153","0.0-6.0-6.72","3044668","co39688","norming","","","{""aha"":5}","[0]","../img/tt/013tt.jpg","",""
"null","<div style=""font-size:60px;""> </div>","null","fixation","html-keyboard-response","517","1735356","0.0-6.0-0.73","3044668","co39688","norming","","","","","","",""
"null","../img/tt/063tt.jpg","null","mooney1","image-keyboard-response","518","1738359","0.0-6.0-1.73","3044668","co39688","norming","","","","","","",""
"22261","","","post_mooney1_questions","survey-likert","519","1760623","0.0-6.0-2.73","3044668","co39688","norming","","","{""curiosity"":6,""confidence"":0}","[0,1]","../img/tt/063tt.jpg","",""
"1047","","","recognition","survey-text","520","1761676","0.0-6.0-3.73","3044668","co39688","norming","","","{""guess"":""""}","","../img/tt/063tt.jpg","",""
"null","../img/gs/063gs.jpg","null","reveal","image-keyboard-response","521","1763679","0.0-6.0-4.73","3044668","co39688","norming","","","","","","",""
"null","../img/tt/063tt.jpg","null","mooney2","image-keyboard-response","522","1765681","0.0-6.0-5.73","3044668","co39688","norming","","","","","","",""
"2598","","","post_reveal_questions","survey-likert","523","1768280","0.0-6.0-6.73","3044668","co39688","norming","","","{""aha"":6}","[0]","../img/tt/063tt.jpg","",""
"null","<div style=""font-size:60px;""> </div>","null","fixation","html-keyboard-response","524","1768483","0.0-6.0-0.74","3044668","co39688","norming","","","","","","",""
"null","../img/tt/1290tt.jpg","null","mooney1","image-keyboard-response","525","1771486","0.0-6.0-1.74","3044668","co39688","norming","","","","","","",""
"5114","","","post_mooney1_questions","survey-likert","526","1776601","0.0-6.0-2.74","3044668","co39688","norming","","","{""curiosity"":5,""confidence"":1}","[0,1]","../img/tt/1290tt.jpg","",""
"2118","","","recognition","survey-text","527","1778726","0.0-6.0-3.74","3044668","co39688","norming","","","{""guess"":""lampion""}","","../img/tt/1290tt.jpg","",""
"null","../img/gs/1290gs.jpg","null","reveal","image-keyboard-response","528","1780728","0.0-6.0-4.74","3044668","co39688","norming","","","","","","",""
"null","../img/tt/1290tt.jpg","null","mooney2","image-keyboard-response","529","1782730","0.0-6.0-5.74","3044668","co39688","norming","","","","","","",""
"1706","","","post_reveal_questions","survey-likert","530","1784438","0.0-6.0-6.74","3044668","co39688","norming","","","{""aha"":6}","[0]","../img/tt/1290tt.jpg","",""
"null","<div style=""font-size:60px;""> </div>","null","fixation","html-keyboard-response","531","1784641","0.0-6.0-0.75","3044668","co39688","norming","","","","","","",""
"null","../img/tt/1091tt.jpg","null","mooney1","image-keyboard-response","532","1787643","0.0-6.0-1.75","3044668","co39688","norming","","","","","","",""
"4950","","","post_mooney1_questions","survey-likert","533","1792595","0.0-6.0-2.75","3044668","co39688","norming","","","{""curiosity"":4,""confidence"":5}","[0,1]","../img/tt/1091tt.jpg","",""
"2429","","","recognition","survey-text","534","1795031","0.0-6.0-3.75","3044668","co39688","norming","","","{""guess"":""paard""}","","../img/tt/1091tt.jpg","",""
"null","../img/gs/1091gs.jpg","null","reveal","image-keyboard-response","535","1797034","0.0-6.0-4.75","3044668","co39688","norming","","","","","","",""
"null","../img/tt/1091tt.jpg","null","mooney2","image-keyboard-response","536","1799036","0.0-6.0-5.75","3044668","co39688","norming","","","","","","",""
"3407","","","post_reveal_questions","survey-likert","537","1802444","0.0-6.0-6.75","3044668","co39688","norming","","","{""aha"":3}","[0]","../img/tt/1091tt.jpg","",""
"null","<div style=""font-size:60px;""> </div>","null","fixation","html-keyboard-response","538","1802647","0.0-6.0-0.76","3044668","co39688","norming","","","","","","",""
"null","../img/tt/300tt.jpg","null","mooney1","image-keyboard-response","539","1805650","0.0-6.0-1.76","3044668","co39688","norming","","","","","","",""
"6275.000000000233","","","post_mooney1_questions","survey-likert","540","1811926","0.0-6.0-2.76","3044668","co39688","norming","","","{""curiosity"":5,""confidence"":1}","[0,1]","../img/tt/300tt.jpg","",""
"1982","","","recognition","survey-text","541","1813914","0.0-6.0-3.76","3044668","co39688","norming","","","{""guess"":""tent""}","","../img/tt/300tt.jpg","",""
"null","../img/gs/300gs.jpg","null","reveal","image-keyboard-response","542","1815916","0.0-6.0-4.76","3044668","co39688","norming","","","","","","",""
"null","../img/tt/300tt.jpg","null","mooney2","image-keyboard-response","543","1817918","0.0-6.0-5.76","3044668","co39688","norming","","","","","","",""
"2480","","","post_reveal_questions","survey-likert","544","1820400","0.0-6.0-6.76","3044668","co39688","norming","","","{""aha"":6}","[0]","../img/tt/300tt.jpg","",""
"null","<div style=""font-size:60px;""> </div>","null","fixation","html-keyboard-response","545","1820603","0.0-6.0-0.77","3044668","co39688","norming","","","","","","",""
"null","../img/tt/1148tt.jpg","null","mooney1","image-keyboard-response","546","1823606","0.0-6.0-1.77","3044668","co39688","norming","","","","","","",""
"4410","","","post_mooney1_questions","survey-likert","547","1828018","0.0-6.0-2.77","3044668","co39688","norming","","","{""curiosity"":5,""confidence"":1}","[0,1]","../img/tt/1148tt.jpg","",""
"2101.999999999767","","","recognition","survey-text","548","1830125","0.0-6.0-3.77","3044668","co39688","norming","","","{""guess"":""trein""}","","../img/tt/1148tt.jpg","",""
"null","../img/gs/1148gs.jpg","null","reveal","image-keyboard-response","549","1832127","0.0-6.0-4.77","3044668","co39688","norming","","","","","","",""
"null","../img/tt/1148tt.jpg","null","mooney2","image-keyboard-response","550","1834129","0.0-6.0-5.77","3044668","co39688","norming","","","","","","",""
"1710.0000000002328","","","post_reveal_questions","survey-likert","551","1835840","0.0-6.0-6.77","3044668","co39688","norming","","","{""aha"":6}","[0]","../img/tt/1148tt.jpg","",""
"null","<div style=""font-size:60px;""> </div>","null","fixation","html-keyboard-response","552","1836043","0.0-6.0-0.78","3044668","co39688","norming","","","","","","",""
"null","../img/tt/1040tt.jpg","null","mooney1","image-keyboard-response","553","1839045","0.0-6.0-1.78","3044668","co39688","norming","","","","","","",""
"5749","","","post_mooney1_questions","survey-likert","554","1844796","0.0-6.0-2.78","3044668","co39688","norming","","","{""curiosity"":5,""confidence"":1}","[0,1]","../img/tt/1040tt.jpg","",""
"2876","","","recognition","survey-text","555","1847679","0.0-6.0-3.78","3044668","co39688","norming","","","{""guess"":""swimming""}","","../img/tt/1040tt.jpg","",""
"null","../img/gs/1040gs.jpg","null","reveal","image-keyboard-response","556","1849682","0.0-6.0-4.78","3044668","co39688","norming","","","","","","",""
"null","../img/tt/1040tt.jpg","null","mooney2","image-keyboard-response","557","1851684","0.0-6.0-5.78","3044668","co39688","norming","","","","","","",""
"2799.000000000233","","","post_reveal_questions","survey-likert","558","1854485","0.0-6.0-6.78","3044668","co39688","norming","","","{""aha"":6}","[0]","../img/tt/1040tt.jpg","",""
"null","<div style=""font-size:60px;""> </div>","null","fixation","html-keyboard-response","559","1854688","0.0-6.0-0.79","3044668","co39688","norming","","","","","","",""
"null","../img/tt/378tt.jpg","null","mooney1","image-keyboard-response","560","1857691","0.0-6.0-1.79","3044668","co39688","norming","","","","","","",""
"4001","","","post_mooney1_questions","survey-likert","561","1861694","0.0-6.0-2.79","3044668","co39688","norming","","","{""curiosity"":6,""confidence"":0}","[0,1]","../img/tt/378tt.jpg","",""
"1449.0000000002328","","","recognition","survey-text","562","1863148","0.0-6.0-3.79","3044668","co39688","norming","","","{""guess"":""""}","","../img/tt/378tt.jpg","",""
"null","../img/gs/378gs.jpg","null","reveal","image-keyboard-response","563","1865151","0.0-6.0-4.79","3044668","co39688","norming","","","","","","",""
"null","../img/tt/378tt.jpg","null","mooney2","image-keyboard-response","564","1867153","0.0-6.0-5.79","3044668","co39688","norming","","","","","","",""
"3912","","","post_reveal_questions","survey-likert","565","1871067","0.0-6.0-6.79","3044668","co39688","norming","","","{""aha"":4}","[0]","../img/tt/378tt.jpg","",""
