"rt","stimulus","key_press","test_part","trial_type","trial_index","time_elapsed","internal_node_id","totalTime","subject","experiment_name","button_pressed","success","responses","question_order","currentStim","old","correct"
"61517.73500000002","Welcome to the experiment. This is an online experiment so please don't close the tab/window until we say goodbye.  Press any key to begin.","32","instructions","html-keyboard-response","0","61517","0.0-0.0","2913130","co39448","norming","","","","","","",""
"28686.650000000016","<div style='word-wrap: break-word; width: 900px'><h3>Please consider this information carefully before deciding whether to participate in this research</h3><ul style='text-align: left; font-size: .8em;'><li><b>Purpose of the research</b>: To examine how people process images.</li><li><b>What you will do in this research</b>:  Stimuli (images) will be presented on the computer and you will be asked different questions about them.</li><li><b>Time required</b>: Participation will take between 45 and 60 minutes to complete.</li><li><b>Risks</b>:  There are no anticipated risks associated with participating in this study. The effects of participating should be comparable to those you would experience from viewing a computer monitor for 30 minutes and using a mouse or keyboard.</li><li><b>Benefits</b>:  This study provides no benefits to you individually except for the credit. The study provides important information about the nature of perception and learning.</li><li><b>Confidentiality</b>:  Your participation in this study will remain confidential. No personally identifiable information will be associated with your data. Your de-identified data may be shared with other researchers and used in future projects.</li><li><b>Participation and withdrawal</b>:  Your participation in this study is completely voluntary and you may refuse to participate or you may choose to withdraw at any time without penalty.</li><li><b>How to contact the researchers</b>: If you have questions or concerns about your participation or payment, or want to request a summary of research findings, please contact Sander Van de Cruys (KU Leuven), at sander.vandecruys@kuleuven.be.</li></ul><p>The nature and purpose of this research have been sufficiently explained and I agree to participate in this study.  I understand that I am free to withdraw at any time without incurring any penalty.</p><p>Please consent by clicking the button below to continue. Otherwise, please exit the study at this time.</p></div>","","instructions","html-button-response","1","90205","0.0-1.0","2913130","co39448","norming","0","","","","","",""
"","","","instructions","fullscreen","2","95383","0.0-2.0","2913130","co39448","norming","","true","","","","",""
"36597.259999999995","","","sona","survey-html-form","3","131979","0.0-3.0","2913130","co39448","norming","","","[{""name"":""sonaid"",""value"":""39448""},{""name"":""debrief"",""value"":""yes""},{""name"":""datajoin"",""value"":""yes""}]","","","",""
"48966.10500000004","<div style='word-wrap: break-word; width: 900px'><h3>Instructions</h3><p>This experiment will have 3 parts. In the first part you will see a series of distorted images like the one below on the left. As you can see in the righthand image, the distorted images are derived from actual photographs. In what follows, you will <strong>briefly</strong> be presented with <strong>only</strong> the distorted image.</p> <div style='float: left; margin-right: 20px;'><img src='../img/018tt.jpg' height='250' width='250'></img></div><div style='float: right; margin-left: 20px;'><img src='../img/018gs.jpg' height='250' width='250'></img></div><p>Subsequently you will be asked a few questions about the image: One question on how <strong>curious</strong> you are about the solution and one on how <strong>confident</strong> you are that you know the solution.</p>Next, we ask you to make a guess on what is in the image. Note that it is OK to name just the <strong>basic level category</strong>. For example when you see a parrot in the image, 'parrot' will obviously be a correct answer but also correct is 'bird'. However, 'animal' will <strong>not</strong> be counted as a correct response. For the example above, 'rose' would be correct or 'flower', but not 'plant'. When soccer players are depicted, 'soccer', 'football', 'soccer players' will be correct, but not 'humans', 'outdoors', or 'sports'. You do not need to describe the image in full, just name the main object in it <strong>in one or two words</strong>. All images depict objects from one of the following broad level categories: animals, inanimate objects, plants, sports, vehicles, and food. Recognizing means knowing <strong>more</strong> than these broad labels for a given image. But we always encourage you to <strong>make a guess</strong> if you can. Note that you are allowed to use <strong>Dutch and English</strong> in your answers, whatever comes easiest for you.</p><p>Press any key to continue.</p></div>","32","instructions","html-keyboard-response","4","180946","0.0-4.0","2913130","co39448","norming","","","","","","",""
"1079.250000000029","<div style='word-wrap: break-word; width: 900px'><h3>Instructions</h3> <p>Next, the solution image will be revealed to you and you'll be asked to indicate how strong your <strong>aha-experience</strong> was after seeing the solution. This describes the positive feeling of the 'click' you sometimes experience, when the pieces of the 'puzzle' fall together and you suddenly have 'insight' in the image.</p><img src='aha.jpg' height='188' width='250'></img><p>Note that there are no right or wrong answers. We are interested in what <strong>you</strong> see in the image and how <strong>you</strong> feel about it.</p><p>Press any key to start the experiment.</p></div>","32","instructions","html-keyboard-response","5","182025","0.0-5.0","2913130","co39448","norming","","","","","","",""
"null","<div style=""font-size:60px;""> </div>","null","fixation","html-keyboard-response","6","182234","0.0-6.0-0.0","2913130","co39448","norming","","","","","","",""
"null","../img/tt/052tt.jpg","null","mooney1","image-keyboard-response","7","185226","0.0-6.0-1.0","2913130","co39448","norming","","","","","","",""
"7006.725000000006","","","post_mooney1_questions","survey-likert","8","192235","0.0-6.0-2.0","2913130","co39448","norming","","","{""curiosity"":2,""confidence"":3}","[0,1]","../img/tt/052tt.jpg","",""
"6061.514999999985","","","recognition","survey-text","9","198298","0.0-6.0-3.0","2913130","co39448","norming","","","{""guess"":""a ring""}","","../img/tt/052tt.jpg","",""
"null","../img/gs/052gs.jpg","null","reveal","image-keyboard-response","10","200300","0.0-6.0-4.0","2913130","co39448","norming","","","","","","",""
"null","../img/tt/052tt.jpg","null","mooney2","image-keyboard-response","11","202302","0.0-6.0-5.0","2913130","co39448","norming","","","","","","",""
"5195.119999999995","","","post_reveal_questions","survey-likert","12","207498","0.0-6.0-6.0","2913130","co39448","norming","","","{""aha"":2}","[0]","../img/tt/052tt.jpg","",""
"null","<div style=""font-size:60px;""> </div>","null","fixation","html-keyboard-response","13","207701","0.0-6.0-0.1","2913130","co39448","norming","","","","","","",""
"null","../img/tt/1006tt.jpg","null","mooney1","image-keyboard-response","14","210710","0.0-6.0-1.1","2913130","co39448","norming","","","","","","",""
"5107.650000000023","","","post_mooney1_questions","survey-likert","15","215818","0.0-6.0-2.1","2913130","co39448","norming","","","{""curiosity"":4,""confidence"":2}","[0,1]","../img/tt/1006tt.jpg","",""
"5606.570000000007","","","recognition","survey-text","16","221426","0.0-6.0-3.1","2913130","co39448","norming","","","{""guess"":""a bearded man""}","","../img/tt/1006tt.jpg","",""
"null","../img/gs/1006gs.jpg","null","reveal","image-keyboard-response","17","223428","0.0-6.0-4.1","2913130","co39448","norming","","","","","","",""
"null","../img/tt/1006tt.jpg","null","mooney2","image-keyboard-response","18","225433","0.0-6.0-5.1","2913130","co39448","norming","","","","","","",""
"7846.86500000002","","","post_reveal_questions","survey-likert","19","233282","0.0-6.0-6.1","2913130","co39448","norming","","","{""aha"":0}","[0]","../img/tt/1006tt.jpg","",""
"null","<div style=""font-size:60px;""> </div>","null","fixation","html-keyboard-response","20","233485","0.0-6.0-0.2","2913130","co39448","norming","","","","","","",""
"null","../img/tt/1202tt.jpg","null","mooney1","image-keyboard-response","21","236486","0.0-6.0-1.2","2913130","co39448","norming","","","","","","",""
"4514.755000000034","","","post_mooney1_questions","survey-likert","22","241002","0.0-6.0-2.2","2913130","co39448","norming","","","{""curiosity"":4,""confidence"":1}","[0,1]","../img/tt/1202tt.jpg","",""
"7918.530000000028","","","recognition","survey-text","23","248854","0.0-6.0-3.2","2913130","co39448","norming","","","{""guess"":""people sitting in chairs""}","","../img/tt/1202tt.jpg","",""
"null","../img/gs/1202gs.jpg","null","reveal","image-keyboard-response","24","250858","0.0-6.0-4.2","2913130","co39448","norming","","","","","","",""
"null","../img/tt/1202tt.jpg","null","mooney2","image-keyboard-response","25","252869","0.0-6.0-5.2","2913130","co39448","norming","","","","","","",""
"6022.905000000028","","","post_reveal_questions","survey-likert","26","258894","0.0-6.0-6.2","2913130","co39448","norming","","","{""aha"":0}","[0]","../img/tt/1202tt.jpg","",""
"null","<div style=""font-size:60px;""> </div>","null","fixation","html-keyboard-response","27","259097","0.0-6.0-0.3","2913130","co39448","norming","","","","","","",""
"null","../img/tt/013tt.jpg","null","mooney1","image-keyboard-response","28","262108","0.0-6.0-1.3","2913130","co39448","norming","","","","","","",""
"4447.940000000002","","","post_mooney1_questions","survey-likert","29","266559","0.0-6.0-2.3","2913130","co39448","norming","","","{""curiosity"":4,""confidence"":1}","[0,1]","../img/tt/013tt.jpg","",""
"5149.645000000019","","","recognition","survey-text","30","271710","0.0-6.0-3.3","2913130","co39448","norming","","","{""guess"":""a cow""}","","../img/tt/013tt.jpg","",""
"null","../img/gs/013gs.jpg","null","reveal","image-keyboard-response","31","273717","0.0-6.0-4.3","2913130","co39448","norming","","","","","","",""
"null","../img/tt/013tt.jpg","null","mooney2","image-keyboard-response","32","275719","0.0-6.0-5.3","2913130","co39448","norming","","","","","","",""
"2341.4000000000233","","","post_reveal_questions","survey-likert","33","278062","0.0-6.0-6.3","2913130","co39448","norming","","","{""aha"":2}","[0]","../img/tt/013tt.jpg","",""
"null","<div style=""font-size:60px;""> </div>","null","fixation","html-keyboard-response","34","278264","0.0-6.0-0.4","2913130","co39448","norming","","","","","","",""
"null","../img/tt/296tt.jpg","null","mooney1","image-keyboard-response","35","281270","0.0-6.0-1.4","2913130","co39448","norming","","","","","","",""
"3525.8250000000116","","","post_mooney1_questions","survey-likert","36","284799","0.0-6.0-2.4","2913130","co39448","norming","","","{""curiosity"":4,""confidence"":1}","[0,1]","../img/tt/296tt.jpg","",""
"3221.969999999972","","","recognition","survey-text","37","288022","0.0-6.0-3.4","2913130","co39448","norming","","","{""guess"":""a sofa""}","","../img/tt/296tt.jpg","",""
"null","../img/gs/296gs.jpg","null","reveal","image-keyboard-response","38","290028","0.0-6.0-4.4","2913130","co39448","norming","","","","","","",""
"null","../img/tt/296tt.jpg","null","mooney2","image-keyboard-response","39","292045","0.0-6.0-5.4","2913130","co39448","norming","","","","","","",""
"2975.8649999999907","","","post_reveal_questions","survey-likert","40","295022","0.0-6.0-6.4","2913130","co39448","norming","","","{""aha"":1}","[0]","../img/tt/296tt.jpg","",""
"null","<div style=""font-size:60px;""> </div>","null","fixation","html-keyboard-response","41","295224","0.0-6.0-0.5","2913130","co39448","norming","","","","","","",""
"null","../img/tt/1151tt.jpg","null","mooney1","image-keyboard-response","42","298233","0.0-6.0-1.5","2913130","co39448","norming","","","","","","",""
"3619.179999999993","","","post_mooney1_questions","survey-likert","43","301855","0.0-6.0-2.5","2913130","co39448","norming","","","{""curiosity"":3,""confidence"":2}","[0,1]","../img/tt/1151tt.jpg","",""
"8549.914999999979","","","recognition","survey-text","44","310349","0.0-6.0-3.5","2913130","co39448","norming","","","{""guess"":""rocks falling down a mountain""}","","../img/tt/1151tt.jpg","",""
"null","../img/gs/1151gs.jpg","null","reveal","image-keyboard-response","45","312351","0.0-6.0-4.5","2913130","co39448","norming","","","","","","",""
"null","../img/tt/1151tt.jpg","null","mooney2","image-keyboard-response","46","314361","0.0-6.0-5.5","2913130","co39448","norming","","","","","","",""
"3449.524999999965","","","post_reveal_questions","survey-likert","47","317813","0.0-6.0-6.5","2913130","co39448","norming","","","{""aha"":4}","[0]","../img/tt/1151tt.jpg","",""
"null","<div style=""font-size:60px;""> </div>","null","fixation","html-keyboard-response","48","318023","0.0-6.0-0.6","2913130","co39448","norming","","","","","","",""
"null","../img/tt/1156tt.jpg","null","mooney1","image-keyboard-response","49","321031","0.0-6.0-1.6","2913130","co39448","norming","","","","","","",""
"4155.849999999977","","","post_mooney1_questions","survey-likert","50","325189","0.0-6.0-2.6","2913130","co39448","norming","","","{""curiosity"":2,""confidence"":4}","[0,1]","../img/tt/1156tt.jpg","",""
"7365.989999999991","","","recognition","survey-text","51","332557","0.0-6.0-3.6","2913130","co39448","norming","","","{""guess"":""a girl in a bikini""}","","../img/tt/1156tt.jpg","",""
"null","../img/gs/1156gs.jpg","null","reveal","image-keyboard-response","52","334559","0.0-6.0-4.6","2913130","co39448","norming","","","","","","",""
"null","../img/tt/1156tt.jpg","null","mooney2","image-keyboard-response","53","336562","0.0-6.0-5.6","2913130","co39448","norming","","","","","","",""
"3312.4100000000326","","","post_reveal_questions","survey-likert","54","339877","0.0-6.0-6.6","2913130","co39448","norming","","","{""aha"":4}","[0]","../img/tt/1156tt.jpg","",""
"null","<div style=""font-size:60px;""> </div>","null","fixation","html-keyboard-response","55","340078","0.0-6.0-0.7","2913130","co39448","norming","","","","","","",""
"null","../img/tt/1226tt.jpg","null","mooney1","image-keyboard-response","56","343081","0.0-6.0-1.7","2913130","co39448","norming","","","","","","",""
"3969.844999999914","","","post_mooney1_questions","survey-likert","57","347053","0.0-6.0-2.7","2913130","co39448","norming","","","{""curiosity"":2,""confidence"":4}","[0,1]","../img/tt/1226tt.jpg","",""
"3974.1999999999534","","","recognition","survey-text","58","351029","0.0-6.0-3.7","2913130","co39448","norming","","","{""guess"":""chickens""}","","../img/tt/1226tt.jpg","",""
"null","../img/gs/1226gs.jpg","null","reveal","image-keyboard-response","59","353037","0.0-6.0-4.7","2913130","co39448","norming","","","","","","",""
"null","../img/tt/1226tt.jpg","null","mooney2","image-keyboard-response","60","355047","0.0-6.0-5.7","2913130","co39448","norming","","","","","","",""
"3635.8349999999627","","","post_reveal_questions","survey-likert","61","358685","0.0-6.0-6.7","2913130","co39448","norming","","","{""aha"":4}","[0]","../img/tt/1226tt.jpg","",""
"null","<div style=""font-size:60px;""> </div>","null","fixation","html-keyboard-response","62","358887","0.0-6.0-0.8","2913130","co39448","norming","","","","","","",""
"null","../img/tt/456tt.jpg","null","mooney1","image-keyboard-response","63","361888","0.0-6.0-1.8","2913130","co39448","norming","","","","","","",""
"4331.539999999979","","","post_mooney1_questions","survey-likert","64","366159","0.0-6.0-2.8","2913130","co39448","norming","","","{""curiosity"":4,""confidence"":1}","[0,1]","../img/tt/456tt.jpg","",""
"22725.830000000075","","","recognition","survey-text","65","388887","0.0-6.0-3.8","2913130","co39448","norming","","","{""guess"":""a seal""}","","../img/tt/456tt.jpg","",""
"null","../img/gs/456gs.jpg","null","reveal","image-keyboard-response","66","390895","0.0-6.0-4.8","2913130","co39448","norming","","","","","","",""
"null","../img/tt/456tt.jpg","null","mooney2","image-keyboard-response","67","392899","0.0-6.0-5.8","2913130","co39448","norming","","","","","","",""
"3107.4949999999953","","","post_reveal_questions","survey-likert","68","396007","0.0-6.0-6.8","2913130","co39448","norming","","","{""aha"":1}","[0]","../img/tt/456tt.jpg","",""
"null","<div style=""font-size:60px;""> </div>","null","fixation","html-keyboard-response","69","396210","0.0-6.0-0.9","2913130","co39448","norming","","","","","","",""
"null","../img/tt/468tt.jpg","null","mooney1","image-keyboard-response","70","399217","0.0-6.0-1.9","2913130","co39448","norming","","","","","","",""
"3603.8099999999395","","","post_mooney1_questions","survey-likert","71","402823","0.0-6.0-2.9","2913130","co39448","norming","","","{""curiosity"":4,""confidence"":1}","[0,1]","../img/tt/468tt.jpg","",""
"6086.335000000079","","","recognition","survey-text","72","408911","0.0-6.0-3.9","2913130","co39448","norming","","","{""guess"":""a man with a hat""}","","../img/tt/468tt.jpg","",""
"null","../img/gs/468gs.jpg","null","reveal","image-keyboard-response","73","410921","0.0-6.0-4.9","2913130","co39448","norming","","","","","","",""
"null","../img/tt/468tt.jpg","null","mooney2","image-keyboard-response","74","412923","0.0-6.0-5.9","2913130","co39448","norming","","","","","","",""
"2227.7350000000442","","","post_reveal_questions","survey-likert","75","415151","0.0-6.0-6.9","2913130","co39448","norming","","","{""aha"":1}","[0]","../img/tt/468tt.jpg","",""
"null","<div style=""font-size:60px;""> </div>","null","fixation","html-keyboard-response","76","415353","0.0-6.0-0.10","2913130","co39448","norming","","","","","","",""
"null","../img/tt/301tt.jpg","null","mooney1","image-keyboard-response","77","418359","0.0-6.0-1.10","2913130","co39448","norming","","","","","","",""
"5742.410000000033","","","post_mooney1_questions","survey-likert","78","424103","0.0-6.0-2.10","2913130","co39448","norming","","","{""curiosity"":5,""confidence"":1}","[0,1]","../img/tt/301tt.jpg","",""
"10716.689999999944","","","recognition","survey-text","79","434756","0.0-6.0-3.10","2913130","co39448","norming","","","{""guess"":""a woman in the theater ""}","","../img/tt/301tt.jpg","",""
"null","../img/gs/301gs.jpg","null","reveal","image-keyboard-response","80","436761","0.0-6.0-4.10","2913130","co39448","norming","","","","","","",""
"null","../img/tt/301tt.jpg","null","mooney2","image-keyboard-response","81","438766","0.0-6.0-5.10","2913130","co39448","norming","","","","","","",""
"5845.070000000007","","","post_reveal_questions","survey-likert","82","444612","0.0-6.0-6.10","2913130","co39448","norming","","","{""aha"":1}","[0]","../img/tt/301tt.jpg","",""
"null","<div style=""font-size:60px;""> </div>","null","fixation","html-keyboard-response","83","444816","0.0-6.0-0.11","2913130","co39448","norming","","","","","","",""
"null","../img/tt/358tt.jpg","null","mooney1","image-keyboard-response","84","447823","0.0-6.0-1.11","2913130","co39448","norming","","","","","","",""
"5899.110000000044","","","post_mooney1_questions","survey-likert","85","453724","0.0-6.0-2.11","2913130","co39448","norming","","","{""curiosity"":5,""confidence"":1}","[0,1]","../img/tt/358tt.jpg","",""
"2998.034999999916","","","recognition","survey-text","86","456724","0.0-6.0-3.11","2913130","co39448","norming","","","{""guess"":""a frog""}","","../img/tt/358tt.jpg","",""
"null","../img/gs/358gs.jpg","null","reveal","image-keyboard-response","87","458731","0.0-6.0-4.11","2913130","co39448","norming","","","","","","",""
"null","../img/tt/358tt.jpg","null","mooney2","image-keyboard-response","88","460742","0.0-6.0-5.11","2913130","co39448","norming","","","","","","",""
"3453.2049999999","","","post_reveal_questions","survey-likert","89","464196","0.0-6.0-6.11","2913130","co39448","norming","","","{""aha"":1}","[0]","../img/tt/358tt.jpg","",""
"null","<div style=""font-size:60px;""> </div>","null","fixation","html-keyboard-response","90","464397","0.0-6.0-0.12","2913130","co39448","norming","","","","","","",""
"null","../img/tt/1091tt.jpg","null","mooney1","image-keyboard-response","91","467407","0.0-6.0-1.12","2913130","co39448","norming","","","","","","",""
"5345.925000000105","","","post_mooney1_questions","survey-likert","92","472756","0.0-6.0-2.12","2913130","co39448","norming","","","{""curiosity"":2,""confidence"":4}","[0,1]","../img/tt/1091tt.jpg","",""
"7046.335000000021","","","recognition","survey-text","93","479804","0.0-6.0-3.12","2913130","co39448","norming","","","{""guess"":""a horse ""}","","../img/tt/1091tt.jpg","",""
"null","../img/gs/1091gs.jpg","null","reveal","image-keyboard-response","94","481811","0.0-6.0-4.12","2913130","co39448","norming","","","","","","",""
"null","../img/tt/1091tt.jpg","null","mooney2","image-keyboard-response","95","483821","0.0-6.0-5.12","2913130","co39448","norming","","","","","","",""
"2908.2799999999697","","","post_reveal_questions","survey-likert","96","486700","0.0-6.0-6.12","2913130","co39448","norming","","","{""aha"":4}","[0]","../img/tt/1091tt.jpg","",""
"null","<div style=""font-size:60px;""> </div>","null","fixation","html-keyboard-response","97","486901","0.0-6.0-0.13","2913130","co39448","norming","","","","","","",""
"null","../img/tt/507tt.jpg","null","mooney1","image-keyboard-response","98","489911","0.0-6.0-1.13","2913130","co39448","norming","","","","","","",""
"5498.4599999999045","","","post_mooney1_questions","survey-likert","99","495412","0.0-6.0-2.13","2913130","co39448","norming","","","{""curiosity"":4,""confidence"":1}","[0,1]","../img/tt/507tt.jpg","",""
"4318.149999999965","","","recognition","survey-text","100","499732","0.0-6.0-3.13","2913130","co39448","norming","","","{""guess"":""a horse""}","","../img/tt/507tt.jpg","",""
"null","../img/gs/507gs.jpg","null","reveal","image-keyboard-response","101","501738","0.0-6.0-4.13","2913130","co39448","norming","","","","","","",""
"null","../img/tt/507tt.jpg","null","mooney2","image-keyboard-response","102","503746","0.0-6.0-5.13","2913130","co39448","norming","","","","","","",""
"2688.2649999999558","","","post_reveal_questions","survey-likert","103","506436","0.0-6.0-6.13","2913130","co39448","norming","","","{""aha"":1}","[0]","../img/tt/507tt.jpg","",""
"null","<div style=""font-size:60px;""> </div>","null","fixation","html-keyboard-response","104","506638","0.0-6.0-0.14","2913130","co39448","norming","","","","","","",""
"null","../img/tt/031tt.jpg","null","mooney1","image-keyboard-response","105","509641","0.0-6.0-1.14","2913130","co39448","norming","","","","","","",""
"3456.3349999999627","","","post_mooney1_questions","survey-likert","106","513100","0.0-6.0-2.14","2913130","co39448","norming","","","{""curiosity"":5,""confidence"":0}","[0,1]","../img/tt/031tt.jpg","",""
"6718.219999999972","","","recognition","survey-text","107","519820","0.0-6.0-3.14","2913130","co39448","norming","","","{""guess"":""two people dancing""}","","../img/tt/031tt.jpg","",""
"null","../img/gs/031gs.jpg","null","reveal","image-keyboard-response","108","521831","0.0-6.0-4.14","2913130","co39448","norming","","","","","","",""
"null","../img/tt/031tt.jpg","null","mooney2","image-keyboard-response","109","523834","0.0-6.0-5.14","2913130","co39448","norming","","","","","","",""
"2303.7550000000047","","","post_reveal_questions","survey-likert","110","526140","0.0-6.0-6.14","2913130","co39448","norming","","","{""aha"":1}","[0]","../img/tt/031tt.jpg","",""
"null","<div style=""font-size:60px;""> </div>","null","fixation","html-keyboard-response","111","526341","0.0-6.0-0.15","2913130","co39448","norming","","","","","","",""
"null","../img/tt/357tt.jpg","null","mooney1","image-keyboard-response","112","529346","0.0-6.0-1.15","2913130","co39448","norming","","","","","","",""
"3664.6149999999907","","","post_mooney1_questions","survey-likert","113","533012","0.0-6.0-2.15","2913130","co39448","norming","","","{""curiosity"":5,""confidence"":0}","[0,1]","../img/tt/357tt.jpg","",""
"2982.2399999999907","","","recognition","survey-text","114","535996","0.0-6.0-3.15","2913130","co39448","norming","","","{""guess"":""corn""}","","../img/tt/357tt.jpg","",""
"null","../img/gs/357gs.jpg","null","reveal","image-keyboard-response","115","538004","0.0-6.0-4.15","2913130","co39448","norming","","","","","","",""
"null","../img/tt/357tt.jpg","null","mooney2","image-keyboard-response","116","540006","0.0-6.0-5.15","2913130","co39448","norming","","","","","","",""
"5852.290000000037","","","post_reveal_questions","survey-likert","117","545860","0.0-6.0-6.15","2913130","co39448","norming","","","{""aha"":4}","[0]","../img/tt/357tt.jpg","",""
"null","<div style=""font-size:60px;""> </div>","null","fixation","html-keyboard-response","118","546062","0.0-6.0-0.16","2913130","co39448","norming","","","","","","",""
"null","../img/tt/1199tt.jpg","null","mooney1","image-keyboard-response","119","549071","0.0-6.0-1.16","2913130","co39448","norming","","","","","","",""
"4624.989999999991","","","post_mooney1_questions","survey-likert","120","553700","0.0-6.0-2.16","2913130","co39448","norming","","","{""curiosity"":4,""confidence"":2}","[0,1]","../img/tt/1199tt.jpg","",""
"13910.104999999865","","","recognition","survey-text","121","567612","0.0-6.0-3.16","2913130","co39448","norming","","","{""guess"":""a woman playing the piano""}","","../img/tt/1199tt.jpg","",""
"null","../img/gs/1199gs.jpg","null","reveal","image-keyboard-response","122","569621","0.0-6.0-4.16","2913130","co39448","norming","","","","","","",""
"null","../img/tt/1199tt.jpg","null","mooney2","image-keyboard-response","123","571631","0.0-6.0-5.16","2913130","co39448","norming","","","","","","",""
"2748.5950000000885","","","post_reveal_questions","survey-likert","124","574380","0.0-6.0-6.16","2913130","co39448","norming","","","{""aha"":4}","[0]","../img/tt/1199tt.jpg","",""
"null","<div style=""font-size:60px;""> </div>","null","fixation","html-keyboard-response","125","574581","0.0-6.0-0.17","2913130","co39448","norming","","","","","","",""
"null","../img/tt/438tt.jpg","null","mooney1","image-keyboard-response","126","577592","0.0-6.0-1.17","2913130","co39448","norming","","","","","","",""
"3322.1900000000605","","","post_mooney1_questions","survey-likert","127","580917","0.0-6.0-2.17","2913130","co39448","norming","","","{""curiosity"":4,""confidence"":1}","[0,1]","../img/tt/438tt.jpg","",""
"2325.9899999999907","","","recognition","survey-text","128","583244","0.0-6.0-3.17","2913130","co39448","norming","","","{""guess"":""a boat""}","","../img/tt/438tt.jpg","",""
"null","../img/gs/438gs.jpg","null","reveal","image-keyboard-response","129","585254","0.0-6.0-4.17","2913130","co39448","norming","","","","","","",""
"null","../img/tt/438tt.jpg","null","mooney2","image-keyboard-response","130","587265","0.0-6.0-5.17","2913130","co39448","norming","","","","","","",""
"2904.9700000000885","","","post_reveal_questions","survey-likert","131","590172","0.0-6.0-6.17","2913130","co39448","norming","","","{""aha"":2}","[0]","../img/tt/438tt.jpg","",""
"null","<div style=""font-size:60px;""> </div>","null","fixation","html-keyboard-response","132","590380","0.0-6.0-0.18","2913130","co39448","norming","","","","","","",""
"null","../img/tt/1247tt.jpg","null","mooney1","image-keyboard-response","133","593384","0.0-6.0-1.18","2913130","co39448","norming","","","","","","",""
"4602.339999999967","","","post_mooney1_questions","survey-likert","134","597988","0.0-6.0-2.18","2913130","co39448","norming","","","{""curiosity"":4,""confidence"":3}","[0,1]","../img/tt/1247tt.jpg","",""
"2534.265000000014","","","recognition","survey-text","135","600524","0.0-6.0-3.18","2913130","co39448","norming","","","{""guess"":""a tiger""}","","../img/tt/1247tt.jpg","",""
"null","../img/gs/1247gs.jpg","null","reveal","image-keyboard-response","136","602534","0.0-6.0-4.18","2913130","co39448","norming","","","","","","",""
"null","../img/tt/1247tt.jpg","null","mooney2","image-keyboard-response","137","604535","0.0-6.0-5.18","2913130","co39448","norming","","","","","","",""
"2458.7249999998603","","","post_reveal_questions","survey-likert","138","606996","0.0-6.0-6.18","2913130","co39448","norming","","","{""aha"":5}","[0]","../img/tt/1247tt.jpg","",""
"null","<div style=""font-size:60px;""> </div>","null","fixation","html-keyboard-response","139","607198","0.0-6.0-0.19","2913130","co39448","norming","","","","","","",""
"null","../img/tt/1004tt.jpg","null","mooney1","image-keyboard-response","140","610206","0.0-6.0-1.19","2913130","co39448","norming","","","","","","",""
"4140.350000000093","","","post_mooney1_questions","survey-likert","141","614349","0.0-6.0-2.19","2913130","co39448","norming","","","{""curiosity"":5,""confidence"":1}","[0,1]","../img/tt/1004tt.jpg","",""
"24054.170000000042","","","recognition","survey-text","142","638404","0.0-6.0-3.19","2913130","co39448","norming","","","{""guess"":""moving grass""}","","../img/tt/1004tt.jpg","",""
"null","../img/gs/1004gs.jpg","null","reveal","image-keyboard-response","143","640409","0.0-6.0-4.19","2913130","co39448","norming","","","","","","",""
"null","../img/tt/1004tt.jpg","null","mooney2","image-keyboard-response","144","642411","0.0-6.0-5.19","2913130","co39448","norming","","","","","","",""
"3695.2600000000093","","","post_reveal_questions","survey-likert","145","646108","0.0-6.0-6.19","2913130","co39448","norming","","","{""aha"":2}","[0]","../img/tt/1004tt.jpg","",""
"null","<div style=""font-size:60px;""> </div>","null","fixation","html-keyboard-response","146","646311","0.0-6.0-0.20","2913130","co39448","norming","","","","","","",""
"null","../img/tt/060tt.jpg","null","mooney1","image-keyboard-response","147","649318","0.0-6.0-1.20","2913130","co39448","norming","","","","","","",""
"6068.125","","","post_mooney1_questions","survey-likert","148","655389","0.0-6.0-2.20","2913130","co39448","norming","","","{""curiosity"":3,""confidence"":2}","[0,1]","../img/tt/060tt.jpg","",""
"2646.07500000007","","","recognition","survey-text","149","658036","0.0-6.0-3.20","2913130","co39448","norming","","","{""guess"":""a hamster""}","","../img/tt/060tt.jpg","",""
"null","../img/gs/060gs.jpg","null","reveal","image-keyboard-response","150","660045","0.0-6.0-4.20","2913130","co39448","norming","","","","","","",""
"null","../img/tt/060tt.jpg","null","mooney2","image-keyboard-response","151","662047","0.0-6.0-5.20","2913130","co39448","norming","","","","","","",""
"2938.9199999999255","","","post_reveal_questions","survey-likert","152","664988","0.0-6.0-6.20","2913130","co39448","norming","","","{""aha"":4}","[0]","../img/tt/060tt.jpg","",""
"null","<div style=""font-size:60px;""> </div>","null","fixation","html-keyboard-response","153","665195","0.0-6.0-0.21","2913130","co39448","norming","","","","","","",""
"null","../img/tt/1224tt.jpg","null","mooney1","image-keyboard-response","154","668202","0.0-6.0-1.21","2913130","co39448","norming","","","","","","",""
"4439.614999999991","","","post_mooney1_questions","survey-likert","155","672644","0.0-6.0-2.21","2913130","co39448","norming","","","{""curiosity"":4,""confidence"":2}","[0,1]","../img/tt/1224tt.jpg","",""
"3070.2850000000326","","","recognition","survey-text","156","675716","0.0-6.0-3.21","2913130","co39448","norming","","","{""guess"":""old men""}","","../img/tt/1224tt.jpg","",""
"null","../img/gs/1224gs.jpg","null","reveal","image-keyboard-response","157","677722","0.0-6.0-4.21","2913130","co39448","norming","","","","","","",""
"null","../img/tt/1224tt.jpg","null","mooney2","image-keyboard-response","158","679731","0.0-6.0-5.21","2913130","co39448","norming","","","","","","",""
"3391.194999999949","","","post_reveal_questions","survey-likert","159","683124","0.0-6.0-6.21","2913130","co39448","norming","","","{""aha"":3}","[0]","../img/tt/1224tt.jpg","",""
"null","<div style=""font-size:60px;""> </div>","null","fixation","html-keyboard-response","160","683329","0.0-6.0-0.22","2913130","co39448","norming","","","","","","",""
"null","../img/tt/1069tt.jpg","null","mooney1","image-keyboard-response","161","686336","0.0-6.0-1.22","2913130","co39448","norming","","","","","","",""
"3729.9250000000466","","","post_mooney1_questions","survey-likert","162","690068","0.0-6.0-2.22","2913130","co39448","norming","","","{""curiosity"":4,""confidence"":1}","[0,1]","../img/tt/1069tt.jpg","",""
"5102.025000000023","","","recognition","survey-text","163","695172","0.0-6.0-3.22","2913130","co39448","norming","","","{""guess"":""different birds""}","","../img/tt/1069tt.jpg","",""
"null","../img/gs/1069gs.jpg","null","reveal","image-keyboard-response","164","697181","0.0-6.0-4.22","2913130","co39448","norming","","","","","","",""
"null","../img/tt/1069tt.jpg","null","mooney2","image-keyboard-response","165","699183","0.0-6.0-5.22","2913130","co39448","norming","","","","","","",""
"4572.285000000033","","","post_reveal_questions","survey-likert","166","703756","0.0-6.0-6.22","2913130","co39448","norming","","","{""aha"":2}","[0]","../img/tt/1069tt.jpg","",""
"null","<div style=""font-size:60px;""> </div>","null","fixation","html-keyboard-response","167","703965","0.0-6.0-0.23","2913130","co39448","norming","","","","","","",""
"null","../img/tt/1159tt.jpg","null","mooney1","image-keyboard-response","168","706970","0.0-6.0-1.23","2913130","co39448","norming","","","","","","",""
"5208.304999999935","","","post_mooney1_questions","survey-likert","169","712180","0.0-6.0-2.23","2913130","co39448","norming","","","{""curiosity"":2,""confidence"":2}","[0,1]","../img/tt/1159tt.jpg","",""
"3270.1500000000233","","","recognition","survey-text","170","715452","0.0-6.0-3.23","2913130","co39448","norming","","","{""guess"":""railway""}","","../img/tt/1159tt.jpg","",""
"null","../img/gs/1159gs.jpg","null","reveal","image-keyboard-response","171","717459","0.0-6.0-4.23","2913130","co39448","norming","","","","","","",""
"null","../img/tt/1159tt.jpg","null","mooney2","image-keyboard-response","172","719462","0.0-6.0-5.23","2913130","co39448","norming","","","","","","",""
"2875.92499999993","","","post_reveal_questions","survey-likert","173","722340","0.0-6.0-6.23","2913130","co39448","norming","","","{""aha"":2}","[0]","../img/tt/1159tt.jpg","",""
"null","<div style=""font-size:60px;""> </div>","null","fixation","html-keyboard-response","174","722542","0.0-6.0-0.24","2913130","co39448","norming","","","","","","",""
"null","../img/tt/1363tt.jpg","null","mooney1","image-keyboard-response","175","725551","0.0-6.0-1.24","2913130","co39448","norming","","","","","","",""
"4186.4349999999395","","","post_mooney1_questions","survey-likert","176","729740","0.0-6.0-2.24","2913130","co39448","norming","","","{""curiosity"":4,""confidence"":2}","[0,1]","../img/tt/1363tt.jpg","",""
"2174.1699999999255","","","recognition","survey-text","177","731911","0.0-6.0-3.24","2913130","co39448","norming","","","{""guess"":""a boat""}","","../img/tt/1363tt.jpg","",""
"null","../img/gs/1363gs.jpg","null","reveal","image-keyboard-response","178","733921","0.0-6.0-4.24","2913130","co39448","norming","","","","","","",""
"null","../img/tt/1363tt.jpg","null","mooney2","image-keyboard-response","179","735929","0.0-6.0-5.24","2913130","co39448","norming","","","","","","",""
"2437.234999999986","","","post_reveal_questions","survey-likert","180","738367","0.0-6.0-6.24","2913130","co39448","norming","","","{""aha"":2}","[0]","../img/tt/1363tt.jpg","",""
"null","<div style=""font-size:60px;""> </div>","null","fixation","html-keyboard-response","181","738568","0.0-6.0-0.25","2913130","co39448","norming","","","","","","",""
"null","../img/tt/1146tt.jpg","null","mooney1","image-keyboard-response","182","741572","0.0-6.0-1.25","2913130","co39448","norming","","","","","","",""
"2897.109999999986","","","post_mooney1_questions","survey-likert","183","744472","0.0-6.0-2.25","2913130","co39448","norming","","","{""curiosity"":3,""confidence"":2}","[0,1]","../img/tt/1146tt.jpg","",""
"12854.015000000014","","","recognition","survey-text","184","757327","0.0-6.0-3.25","2913130","co39448","norming","","","{""guess"":""sitting woman""}","","../img/tt/1146tt.jpg","",""
"null","../img/gs/1146gs.jpg","null","reveal","image-keyboard-response","185","759335","0.0-6.0-4.25","2913130","co39448","norming","","","","","","",""
"null","../img/tt/1146tt.jpg","null","mooney2","image-keyboard-response","186","761337","0.0-6.0-5.25","2913130","co39448","norming","","","","","","",""
"3155.920000000042","","","post_reveal_questions","survey-likert","187","764495","0.0-6.0-6.25","2913130","co39448","norming","","","{""aha"":2}","[0]","../img/tt/1146tt.jpg","",""
"null","<div style=""font-size:60px;""> </div>","null","fixation","html-keyboard-response","188","764703","0.0-6.0-0.26","2913130","co39448","norming","","","","","","",""
"null","../img/tt/184tt.jpg","null","mooney1","image-keyboard-response","189","767716","0.0-6.0-1.26","2913130","co39448","norming","","","","","","",""
"3712.765000000014","","","post_mooney1_questions","survey-likert","190","771431","0.0-6.0-2.26","2913130","co39448","norming","","","{""curiosity"":3,""confidence"":2}","[0,1]","../img/tt/184tt.jpg","",""
"2470.269999999902","","","recognition","survey-text","191","773903","0.0-6.0-3.26","2913130","co39448","norming","","","{""guess"":""a bear""}","","../img/tt/184tt.jpg","",""
"null","../img/gs/184gs.jpg","null","reveal","image-keyboard-response","192","775911","0.0-6.0-4.26","2913130","co39448","norming","","","","","","",""
"null","../img/tt/184tt.jpg","null","mooney2","image-keyboard-response","193","777923","0.0-6.0-5.26","2913130","co39448","norming","","","","","","",""
"4026.2399999998743","","","post_reveal_questions","survey-likert","194","781951","0.0-6.0-6.26","2913130","co39448","norming","","","{""aha"":3}","[0]","../img/tt/184tt.jpg","",""
"null","<div style=""font-size:60px;""> </div>","null","fixation","html-keyboard-response","195","782152","0.0-6.0-0.27","2913130","co39448","norming","","","","","","",""
"null","../img/tt/307tt.jpg","null","mooney1","image-keyboard-response","196","785158","0.0-6.0-1.27","2913130","co39448","norming","","","","","","",""
"3694.344999999972","","","post_mooney1_questions","survey-likert","197","788855","0.0-6.0-2.27","2913130","co39448","norming","","","{""curiosity"":4,""confidence"":2}","[0,1]","../img/tt/307tt.jpg","",""
"16190.170000000042","","","recognition","survey-text","198","805050","0.0-6.0-3.27","2913130","co39448","norming","","","{""guess"":""an instrument""}","","../img/tt/307tt.jpg","",""
"null","../img/gs/307gs.jpg","null","reveal","image-keyboard-response","199","807054","0.0-6.0-4.27","2913130","co39448","norming","","","","","","",""
"null","../img/tt/307tt.jpg","null","mooney2","image-keyboard-response","200","809065","0.0-6.0-5.27","2913130","co39448","norming","","","","","","",""
"3798.234999999986","","","post_reveal_questions","survey-likert","201","812866","0.0-6.0-6.27","2913130","co39448","norming","","","{""aha"":2}","[0]","../img/tt/307tt.jpg","",""
"null","<div style=""font-size:60px;""> </div>","null","fixation","html-keyboard-response","202","813076","0.0-6.0-0.28","2913130","co39448","norming","","","","","","",""
"null","../img/tt/378tt.jpg","null","mooney1","image-keyboard-response","203","816079","0.0-6.0-1.28","2913130","co39448","norming","","","","","","",""
"3280.609999999986","","","post_mooney1_questions","survey-likert","204","819362","0.0-6.0-2.28","2913130","co39448","norming","","","{""curiosity"":3,""confidence"":2}","[0,1]","../img/tt/378tt.jpg","",""
"2901.844999999972","","","recognition","survey-text","205","822266","0.0-6.0-3.28","2913130","co39448","norming","","","{""guess"":""an eggplant""}","","../img/tt/378tt.jpg","",""
"null","../img/gs/378gs.jpg","null","reveal","image-keyboard-response","206","824274","0.0-6.0-4.28","2913130","co39448","norming","","","","","","",""
"null","../img/tt/378tt.jpg","null","mooney2","image-keyboard-response","207","826281","0.0-6.0-5.28","2913130","co39448","norming","","","","","","",""
"4126.429999999935","","","post_reveal_questions","survey-likert","208","830410","0.0-6.0-6.28","2913130","co39448","norming","","","{""aha"":1}","[0]","../img/tt/378tt.jpg","",""
"null","<div style=""font-size:60px;""> </div>","null","fixation","html-keyboard-response","209","830617","0.0-6.0-0.29","2913130","co39448","norming","","","","","","",""
"null","../img/tt/1122tt.jpg","null","mooney1","image-keyboard-response","210","833624","0.0-6.0-1.29","2913130","co39448","norming","","","","","","",""
"2799.1600000000326","","","post_mooney1_questions","survey-likert","211","836426","0.0-6.0-2.29","2913130","co39448","norming","","","{""curiosity"":3,""confidence"":2}","[0,1]","../img/tt/1122tt.jpg","",""
"1910.219999999972","","","recognition","survey-text","212","838338","0.0-6.0-3.29","2913130","co39448","norming","","","{""guess"":""a goat""}","","../img/tt/1122tt.jpg","",""
"null","../img/gs/1122gs.jpg","null","reveal","image-keyboard-response","213","840348","0.0-6.0-4.29","2913130","co39448","norming","","","","","","",""
"null","../img/tt/1122tt.jpg","null","mooney2","image-keyboard-response","214","842360","0.0-6.0-5.29","2913130","co39448","norming","","","","","","",""
"3151.649999999907","","","post_reveal_questions","survey-likert","215","845514","0.0-6.0-6.29","2913130","co39448","norming","","","{""aha"":2}","[0]","../img/tt/1122tt.jpg","",""
"null","<div style=""font-size:60px;""> </div>","null","fixation","html-keyboard-response","216","845715","0.0-6.0-0.30","2913130","co39448","norming","","","","","","",""
"null","../img/tt/1278tt.jpg","null","mooney1","image-keyboard-response","217","848721","0.0-6.0-1.30","2913130","co39448","norming","","","","","","",""
"3559.4599999999627","","","post_mooney1_questions","survey-likert","218","852282","0.0-6.0-2.30","2913130","co39448","norming","","","{""curiosity"":2,""confidence"":2}","[0,1]","../img/tt/1278tt.jpg","",""
"2014.2550000000047","","","recognition","survey-text","219","854298","0.0-6.0-3.30","2913130","co39448","norming","","","{""guess"":""old lady""}","","../img/tt/1278tt.jpg","",""
"null","../img/gs/1278gs.jpg","null","reveal","image-keyboard-response","220","856306","0.0-6.0-4.30","2913130","co39448","norming","","","","","","",""
"null","../img/tt/1278tt.jpg","null","mooney2","image-keyboard-response","221","858312","0.0-6.0-5.30","2913130","co39448","norming","","","","","","",""
"2103.685000000056","","","post_reveal_questions","survey-likert","222","860418","0.0-6.0-6.30","2913130","co39448","norming","","","{""aha"":2}","[0]","../img/tt/1278tt.jpg","",""
"null","<div style=""font-size:60px;""> </div>","null","fixation","html-keyboard-response","223","860628","0.0-6.0-0.31","2913130","co39448","norming","","","","","","",""
"null","../img/tt/522tt.jpg","null","mooney1","image-keyboard-response","224","863634","0.0-6.0-1.31","2913130","co39448","norming","","","","","","",""
"2736.144999999902","","","post_mooney1_questions","survey-likert","225","866373","0.0-6.0-2.31","2913130","co39448","norming","","","{""curiosity"":4,""confidence"":0}","[0,1]","../img/tt/522tt.jpg","",""
"1869.8000000002794","","","recognition","survey-text","226","868244","0.0-6.0-3.31","2913130","co39448","norming","","","{""guess"":""bread""}","","../img/tt/522tt.jpg","",""
"null","../img/gs/522gs.jpg","null","reveal","image-keyboard-response","227","870248","0.0-6.0-4.31","2913130","co39448","norming","","","","","","",""
"null","../img/tt/522tt.jpg","null","mooney2","image-keyboard-response","228","872258","0.0-6.0-5.31","2913130","co39448","norming","","","","","","",""
"3240.730000000098","","","post_reveal_questions","survey-likert","229","875500","0.0-6.0-6.31","2913130","co39448","norming","","","{""aha"":1}","[0]","../img/tt/522tt.jpg","",""
"null","<div style=""font-size:60px;""> </div>","null","fixation","html-keyboard-response","230","875701","0.0-6.0-0.32","2913130","co39448","norming","","","","","","",""
"null","../img/tt/096tt.jpg","null","mooney1","image-keyboard-response","231","878709","0.0-6.0-1.32","2913130","co39448","norming","","","","","","",""
"2741.609999999986","","","post_mooney1_questions","survey-likert","232","881452","0.0-6.0-2.32","2913130","co39448","norming","","","{""curiosity"":3,""confidence"":1}","[0,1]","../img/tt/096tt.jpg","",""
"1758.0899999999674","","","recognition","survey-text","233","883212","0.0-6.0-3.32","2913130","co39448","norming","","","{""guess"":""piano""}","","../img/tt/096tt.jpg","",""
"null","../img/gs/096gs.jpg","null","reveal","image-keyboard-response","234","885221","0.0-6.0-4.32","2913130","co39448","norming","","","","","","",""
"null","../img/tt/096tt.jpg","null","mooney2","image-keyboard-response","235","887231","0.0-6.0-5.32","2913130","co39448","norming","","","","","","",""
"3523.560000000056","","","post_reveal_questions","survey-likert","236","890756","0.0-6.0-6.32","2913130","co39448","norming","","","{""aha"":5}","[0]","../img/tt/096tt.jpg","",""
"null","<div style=""font-size:60px;""> </div>","null","fixation","html-keyboard-response","237","890961","0.0-6.0-0.33","2913130","co39448","norming","","","","","","",""
"null","../img/tt/1053tt.jpg","null","mooney1","image-keyboard-response","238","893967","0.0-6.0-1.33","2913130","co39448","norming","","","","","","",""
"3468.20000000007","","","post_mooney1_questions","survey-likert","239","897436","0.0-6.0-2.33","2913130","co39448","norming","","","{""curiosity"":2,""confidence"":4}","[0,1]","../img/tt/1053tt.jpg","",""
"1893.9649999999674","","","recognition","survey-text","240","899332","0.0-6.0-3.33","2913130","co39448","norming","","","{""guess"":""cows""}","","../img/tt/1053tt.jpg","",""
"null","../img/gs/1053gs.jpg","null","reveal","image-keyboard-response","241","901333","0.0-6.0-4.33","2913130","co39448","norming","","","","","","",""
"null","../img/tt/1053tt.jpg","null","mooney2","image-keyboard-response","242","903338","0.0-6.0-5.33","2913130","co39448","norming","","","","","","",""
"3120.564999999944","","","post_reveal_questions","survey-likert","243","906460","0.0-6.0-6.33","2913130","co39448","norming","","","{""aha"":3}","[0]","../img/tt/1053tt.jpg","",""
"null","<div style=""font-size:60px;""> </div>","null","fixation","html-keyboard-response","244","906666","0.0-6.0-0.34","2913130","co39448","norming","","","","","","",""
"null","../img/tt/1143tt.jpg","null","mooney1","image-keyboard-response","245","909676","0.0-6.0-1.34","2913130","co39448","norming","","","","","","",""
"5543.310000000056","","","post_mooney1_questions","survey-likert","246","915220","0.0-6.0-2.34","2913130","co39448","norming","","","{""curiosity"":2,""confidence"":5}","[0,1]","../img/tt/1143tt.jpg","",""
"8469.840000000317","","","recognition","survey-text","247","923686","0.0-6.0-3.34","2913130","co39448","norming","","","{""guess"":""fitness equipment""}","","../img/tt/1143tt.jpg","",""
"null","../img/gs/1143gs.jpg","null","reveal","image-keyboard-response","248","925692","0.0-6.0-4.34","2913130","co39448","norming","","","","","","",""
"null","../img/tt/1143tt.jpg","null","mooney2","image-keyboard-response","249","927696","0.0-6.0-5.34","2913130","co39448","norming","","","","","","",""
"2620.9799999999814","","","post_reveal_questions","survey-likert","250","930318","0.0-6.0-6.34","2913130","co39448","norming","","","{""aha"":4}","[0]","../img/tt/1143tt.jpg","",""
"null","<div style=""font-size:60px;""> </div>","null","fixation","html-keyboard-response","251","930519","0.0-6.0-0.35","2913130","co39448","norming","","","","","","",""
"null","../img/tt/1270tt.jpg","null","mooney1","image-keyboard-response","252","933527","0.0-6.0-1.35","2913130","co39448","norming","","","","","","",""
"2973.9200000001583","","","post_mooney1_questions","survey-likert","253","936502","0.0-6.0-2.35","2913130","co39448","norming","","","{""curiosity"":4,""confidence"":0}","[0,1]","../img/tt/1270tt.jpg","",""
"2309.804999999935","","","recognition","survey-text","254","938814","0.0-6.0-3.35","2913130","co39448","norming","","","{""guess"":""dolphine""}","","../img/tt/1270tt.jpg","",""
"null","../img/gs/1270gs.jpg","null","reveal","image-keyboard-response","255","940819","0.0-6.0-4.35","2913130","co39448","norming","","","","","","",""
"null","../img/tt/1270tt.jpg","null","mooney2","image-keyboard-response","256","942829","0.0-6.0-5.35","2913130","co39448","norming","","","","","","",""
"2456.1099999998696","","","post_reveal_questions","survey-likert","257","945286","0.0-6.0-6.35","2913130","co39448","norming","","","{""aha"":2}","[0]","../img/tt/1270tt.jpg","",""
"null","<div style=""font-size:60px;""> </div>","null","fixation","html-keyboard-response","258","945490","0.0-6.0-0.36","2913130","co39448","norming","","","","","","",""
"null","../img/tt/1217tt.jpg","null","mooney1","image-keyboard-response","259","948491","0.0-6.0-1.36","2913130","co39448","norming","","","","","","",""
"5161.979999999865","","","post_mooney1_questions","survey-likert","260","953654","0.0-6.0-2.36","2913130","co39448","norming","","","{""curiosity"":4,""confidence"":1}","[0,1]","../img/tt/1217tt.jpg","",""
"2862.0999999998603","","","recognition","survey-text","261","956518","0.0-6.0-3.36","2913130","co39448","norming","","","{""guess"":""dancing people""}","","../img/tt/1217tt.jpg","",""
"null","../img/gs/1217gs.jpg","null","reveal","image-keyboard-response","262","958523","0.0-6.0-4.36","2913130","co39448","norming","","","","","","",""
"null","../img/tt/1217tt.jpg","null","mooney2","image-keyboard-response","263","960527","0.0-6.0-5.36","2913130","co39448","norming","","","","","","",""
"2182.2350000001024","","","post_reveal_questions","survey-likert","264","962710","0.0-6.0-6.36","2913130","co39448","norming","","","{""aha"":2}","[0]","../img/tt/1217tt.jpg","",""
"null","<div style=""font-size:60px;""> </div>","null","fixation","html-keyboard-response","265","962913","0.0-6.0-0.37","2913130","co39448","norming","","","","","","",""
"null","../img/tt/1118tt.jpg","null","mooney1","image-keyboard-response","266","965918","0.0-6.0-1.37","2913130","co39448","norming","","","","","","",""
"3775.339999999851","","","post_mooney1_questions","survey-likert","267","969694","0.0-6.0-2.37","2913130","co39448","norming","","","{""curiosity"":4,""confidence"":1}","[0,1]","../img/tt/1118tt.jpg","",""
"5541.97499999986","","","recognition","survey-text","268","975238","0.0-6.0-3.37","2913130","co39448","norming","","","{""guess"":""classroom""}","","../img/tt/1118tt.jpg","",""
"null","../img/gs/1118gs.jpg","null","reveal","image-keyboard-response","269","977245","0.0-6.0-4.37","2913130","co39448","norming","","","","","","",""
"null","../img/tt/1118tt.jpg","null","mooney2","image-keyboard-response","270","979254","0.0-6.0-5.37","2913130","co39448","norming","","","","","","",""
"2430.1600000000326","","","post_reveal_questions","survey-likert","271","981686","0.0-6.0-6.37","2913130","co39448","norming","","","{""aha"":1}","[0]","../img/tt/1118tt.jpg","",""
"null","<div style=""font-size:60px;""> </div>","null","fixation","html-keyboard-response","272","981891","0.0-6.0-0.38","2913130","co39448","norming","","","","","","",""
"null","../img/tt/1186tt.jpg","null","mooney1","image-keyboard-response","273","984904","0.0-6.0-1.38","2913130","co39448","norming","","","","","","",""
"5213.099999999977","","","post_mooney1_questions","survey-likert","274","990119","0.0-6.0-2.38","2913130","co39448","norming","","","{""curiosity"":2,""confidence"":5}","[0,1]","../img/tt/1186tt.jpg","",""
"6422.115000000107","","","recognition","survey-text","275","996543","0.0-6.0-3.38","2913130","co39448","norming","","","{""guess"":""rollerscating man""}","","../img/tt/1186tt.jpg","",""
"null","../img/gs/1186gs.jpg","null","reveal","image-keyboard-response","276","998551","0.0-6.0-4.38","2913130","co39448","norming","","","","","","",""
"null","../img/tt/1186tt.jpg","null","mooney2","image-keyboard-response","277","1000561","0.0-6.0-5.38","2913130","co39448","norming","","","","","","",""
"4117","","","post_reveal_questions","survey-likert","278","1004679","0.0-6.0-6.38","2913130","co39448","norming","","","{""aha"":4}","[0]","../img/tt/1186tt.jpg","",""
"null","<div style=""font-size:60px;""> </div>","null","fixation","html-keyboard-response","279","1004888","0.0-6.0-0.39","2913130","co39448","norming","","","","","","",""
"null","../img/tt/552tt.jpg","null","mooney1","image-keyboard-response","280","1007897","0.0-6.0-1.39","2913130","co39448","norming","","","","","","",""
"6379.320000000065","","","post_mooney1_questions","survey-likert","281","1014279","0.0-6.0-2.39","2913130","co39448","norming","","","{""curiosity"":3,""confidence"":1}","[0,1]","../img/tt/552tt.jpg","",""
"1902.1050000000978","","","recognition","survey-text","282","1016183","0.0-6.0-3.39","2913130","co39448","norming","","","{""guess"":""a toilet""}","","../img/tt/552tt.jpg","",""
"null","../img/gs/552gs.jpg","null","reveal","image-keyboard-response","283","1018189","0.0-6.0-4.39","2913130","co39448","norming","","","","","","",""
"null","../img/tt/552tt.jpg","null","mooney2","image-keyboard-response","284","1020192","0.0-6.0-5.39","2913130","co39448","norming","","","","","","",""
"4484.784999999916","","","post_reveal_questions","survey-likert","285","1024679","0.0-6.0-6.39","2913130","co39448","norming","","","{""aha"":1}","[0]","../img/tt/552tt.jpg","",""
"null","<div style=""font-size:60px;""> </div>","null","fixation","html-keyboard-response","286","1024881","0.0-6.0-0.40","2913130","co39448","norming","","","","","","",""
"null","../img/tt/1272tt.jpg","null","mooney1","image-keyboard-response","287","1027884","0.0-6.0-1.40","2913130","co39448","norming","","","","","","",""
"4080.3700000001118","","","post_mooney1_questions","survey-likert","288","1031967","0.0-6.0-2.40","2913130","co39448","norming","","","{""curiosity"":4,""confidence"":1}","[0,1]","../img/tt/1272tt.jpg","",""
"2070.4700000000885","","","recognition","survey-text","289","1034039","0.0-6.0-3.40","2913130","co39448","norming","","","{""guess"":""a snake""}","","../img/tt/1272tt.jpg","",""
"null","../img/gs/1272gs.jpg","null","reveal","image-keyboard-response","290","1036041","0.0-6.0-4.40","2913130","co39448","norming","","","","","","",""
"null","../img/tt/1272tt.jpg","null","mooney2","image-keyboard-response","291","1038042","0.0-6.0-5.40","2913130","co39448","norming","","","","","","",""
"2635.754999999772","","","post_reveal_questions","survey-likert","292","1040679","0.0-6.0-6.40","2913130","co39448","norming","","","{""aha"":1}","[0]","../img/tt/1272tt.jpg","",""
"null","<div style=""font-size:60px;""> </div>","null","fixation","html-keyboard-response","293","1040881","0.0-6.0-0.41","2913130","co39448","norming","","","","","","",""
"null","../img/tt/1002tt.jpg","null","mooney1","image-keyboard-response","294","1043890","0.0-6.0-1.41","2913130","co39448","norming","","","","","","",""
"2689.934999999823","","","post_mooney1_questions","survey-likert","295","1046585","0.0-6.0-2.41","2913130","co39448","norming","","","{""curiosity"":2,""confidence"":4}","[0,1]","../img/tt/1002tt.jpg","",""
"1718.1449999997858","","","recognition","survey-text","296","1048305","0.0-6.0-3.41","2913130","co39448","norming","","","{""guess"":""a bear""}","","../img/tt/1002tt.jpg","",""
"null","../img/gs/1002gs.jpg","null","reveal","image-keyboard-response","297","1050306","0.0-6.0-4.41","2913130","co39448","norming","","","","","","",""
"null","../img/tt/1002tt.jpg","null","mooney2","image-keyboard-response","298","1052308","0.0-6.0-5.41","2913130","co39448","norming","","","","","","",""
"5858.855000000447","","","post_reveal_questions","survey-likert","299","1058169","0.0-6.0-6.41","2913130","co39448","norming","","","{""aha"":2}","[0]","../img/tt/1002tt.jpg","",""
"null","<div style=""font-size:60px;""> </div>","null","fixation","html-keyboard-response","300","1058370","0.0-6.0-0.42","2913130","co39448","norming","","","","","","",""
"null","../img/tt/1127tt.jpg","null","mooney1","image-keyboard-response","301","1061373","0.0-6.0-1.42","2913130","co39448","norming","","","","","","",""
"3472.5750000001863","","","post_mooney1_questions","survey-likert","302","1064849","0.0-6.0-2.42","2913130","co39448","norming","","","{""curiosity"":4,""confidence"":2}","[0,1]","../img/tt/1127tt.jpg","",""
"2214.410000000149","","","recognition","survey-text","303","1067065","0.0-6.0-3.42","2913130","co39448","norming","","","{""guess"":""a waiter""}","","../img/tt/1127tt.jpg","",""
"null","../img/gs/1127gs.jpg","null","reveal","image-keyboard-response","304","1069073","0.0-6.0-4.42","2913130","co39448","norming","","","","","","",""
"null","../img/tt/1127tt.jpg","null","mooney2","image-keyboard-response","305","1071081","0.0-6.0-5.42","2913130","co39448","norming","","","","","","",""
"2147.469999999972","","","post_reveal_questions","survey-likert","306","1073233","0.0-6.0-6.42","2913130","co39448","norming","","","{""aha"":2}","[0]","../img/tt/1127tt.jpg","",""
"null","<div style=""font-size:60px;""> </div>","null","fixation","html-keyboard-response","307","1073440","0.0-6.0-0.43","2913130","co39448","norming","","","","","","",""
"null","../img/tt/1087tt.jpg","null","mooney1","image-keyboard-response","308","1076447","0.0-6.0-1.43","2913130","co39448","norming","","","","","","",""
"4918.1349999997765","","","post_mooney1_questions","survey-likert","309","1081369","0.0-6.0-2.43","2913130","co39448","norming","","","{""curiosity"":2,""confidence"":4}","[0,1]","../img/tt/1087tt.jpg","",""
"1838.4649999996182","","","recognition","survey-text","310","1083209","0.0-6.0-3.43","2913130","co39448","norming","","","{""guess"":""cows""}","","../img/tt/1087tt.jpg","",""
"null","../img/gs/1087gs.jpg","null","reveal","image-keyboard-response","311","1085216","0.0-6.0-4.43","2913130","co39448","norming","","","","","","",""
"null","../img/tt/1087tt.jpg","null","mooney2","image-keyboard-response","312","1087218","0.0-6.0-5.43","2913130","co39448","norming","","","","","","",""
"4965.674999999814","","","post_reveal_questions","survey-likert","313","1092185","0.0-6.0-6.43","2913130","co39448","norming","","","{""aha"":3}","[0]","../img/tt/1087tt.jpg","",""
"null","<div style=""font-size:60px;""> </div>","null","fixation","html-keyboard-response","314","1092391","0.0-6.0-0.44","2913130","co39448","norming","","","","","","",""
"null","../img/tt/064tt.jpg","null","mooney1","image-keyboard-response","315","1095398","0.0-6.0-1.44","2913130","co39448","norming","","","","","","",""
"3471.2499999995343","","","post_mooney1_questions","survey-likert","316","1098873","0.0-6.0-2.44","2913130","co39448","norming","","","{""curiosity"":3,""confidence"":3}","[0,1]","../img/tt/064tt.jpg","",""
"1734.2950000001583","","","recognition","survey-text","317","1100609","0.0-6.0-3.44","2913130","co39448","norming","","","{""guess"":""turtle""}","","../img/tt/064tt.jpg","",""
"null","../img/gs/064gs.jpg","null","reveal","image-keyboard-response","318","1102616","0.0-6.0-4.44","2913130","co39448","norming","","","","","","",""
"null","../img/tt/064tt.jpg","null","mooney2","image-keyboard-response","319","1104625","0.0-6.0-5.44","2913130","co39448","norming","","","","","","",""
"2141.344999999972","","","post_reveal_questions","survey-likert","320","1106769","0.0-6.0-6.44","2913130","co39448","norming","","","{""aha"":4}","[0]","../img/tt/064tt.jpg","",""
"null","<div style=""font-size:60px;""> </div>","null","fixation","html-keyboard-response","321","1106972","0.0-6.0-0.45","2913130","co39448","norming","","","","","","",""
"null","../img/tt/1309tt.jpg","null","mooney1","image-keyboard-response","322","1109979","0.0-6.0-1.45","2913130","co39448","norming","","","","","","",""
"3579.2750000001397","","","post_mooney1_questions","survey-likert","323","1113561","0.0-6.0-2.45","2913130","co39448","norming","","","{""curiosity"":2,""confidence"":4}","[0,1]","../img/tt/1309tt.jpg","",""
"1822.035000000149","","","recognition","survey-text","324","1115385","0.0-6.0-3.45","2913130","co39448","norming","","","{""guess"":""a car""}","","../img/tt/1309tt.jpg","",""
"null","../img/gs/1309gs.jpg","null","reveal","image-keyboard-response","325","1117390","0.0-6.0-4.45","2913130","co39448","norming","","","","","","",""
"null","../img/tt/1309tt.jpg","null","mooney2","image-keyboard-response","326","1119399","0.0-6.0-5.45","2913130","co39448","norming","","","","","","",""
"4463.9199999999255","","","post_reveal_questions","survey-likert","327","1123865","0.0-6.0-6.45","2913130","co39448","norming","","","{""aha"":3}","[0]","../img/tt/1309tt.jpg","",""
"null","<div style=""font-size:60px;""> </div>","null","fixation","html-keyboard-response","328","1124072","0.0-6.0-0.46","2913130","co39448","norming","","","","","","",""
"null","../img/tt/056tt.jpg","null","mooney1","image-keyboard-response","329","1127075","0.0-6.0-1.46","2913130","co39448","norming","","","","","","",""
"3067.125000000233","","","post_mooney1_questions","survey-likert","330","1130145","0.0-6.0-2.46","2913130","co39448","norming","","","{""curiosity"":4,""confidence"":2}","[0,1]","../img/tt/056tt.jpg","",""
"5270.320000000065","","","recognition","survey-text","331","1135417","0.0-6.0-3.46","2913130","co39448","norming","","","{""guess"":""working man""}","","../img/tt/056tt.jpg","",""
"null","../img/gs/056gs.jpg","null","reveal","image-keyboard-response","332","1137423","0.0-6.0-4.46","2913130","co39448","norming","","","","","","",""
"null","../img/tt/056tt.jpg","null","mooney2","image-keyboard-response","333","1139434","0.0-6.0-5.46","2913130","co39448","norming","","","","","","",""
"2628.1749999998137","","","post_reveal_questions","survey-likert","334","1142065","0.0-6.0-6.46","2913130","co39448","norming","","","{""aha"":2}","[0]","../img/tt/056tt.jpg","",""
"null","<div style=""font-size:60px;""> </div>","null","fixation","html-keyboard-response","335","1142267","0.0-6.0-0.47","2913130","co39448","norming","","","","","","",""
"null","../img/tt/1307tt.jpg","null","mooney1","image-keyboard-response","336","1145273","0.0-6.0-1.47","2913130","co39448","norming","","","","","","",""
"4476.784999999683","","","post_mooney1_questions","survey-likert","337","1149753","0.0-6.0-2.47","2913130","co39448","norming","","","{""curiosity"":2,""confidence"":2}","[0,1]","../img/tt/1307tt.jpg","",""
"2557.6349999995437","","","recognition","survey-text","338","1152313","0.0-6.0-3.47","2913130","co39448","norming","","","{""guess"":""carwheel""}","","../img/tt/1307tt.jpg","",""
"null","../img/gs/1307gs.jpg","null","reveal","image-keyboard-response","339","1154318","0.0-6.0-4.47","2913130","co39448","norming","","","","","","",""
"null","../img/tt/1307tt.jpg","null","mooney2","image-keyboard-response","340","1156327","0.0-6.0-5.47","2913130","co39448","norming","","","","","","",""
"3143.635000000242","","","post_reveal_questions","survey-likert","341","1159473","0.0-6.0-6.47","2913130","co39448","norming","","","{""aha"":2}","[0]","../img/tt/1307tt.jpg","",""
"null","<div style=""font-size:60px;""> </div>","null","fixation","html-keyboard-response","342","1159675","0.0-6.0-0.48","2913130","co39448","norming","","","","","","",""
"null","../img/tt/080tt.jpg","null","mooney1","image-keyboard-response","343","1162684","0.0-6.0-1.48","2913130","co39448","norming","","","","","","",""
"3810.160000000149","","","post_mooney1_questions","survey-likert","344","1166500","0.0-6.0-2.48","2913130","co39448","norming","","","{""curiosity"":3,""confidence"":3}","[0,1]","../img/tt/080tt.jpg","",""
"3845.9749999998603","","","recognition","survey-text","345","1170348","0.0-6.0-3.48","2913130","co39448","norming","","","{""guess"":""an eggshell""}","","../img/tt/080tt.jpg","",""
"null","../img/gs/080gs.jpg","null","reveal","image-keyboard-response","346","1172354","0.0-6.0-4.48","2913130","co39448","norming","","","","","","",""
"null","../img/tt/080tt.jpg","null","mooney2","image-keyboard-response","347","1174362","0.0-6.0-5.48","2913130","co39448","norming","","","","","","",""
"3256.8499999998603","","","post_reveal_questions","survey-likert","348","1177620","0.0-6.0-6.48","2913130","co39448","norming","","","{""aha"":2}","[0]","../img/tt/080tt.jpg","",""
"null","<div style=""font-size:60px;""> </div>","null","fixation","html-keyboard-response","349","1177832","0.0-6.0-0.49","2913130","co39448","norming","","","","","","",""
"null","../img/tt/112tt.jpg","null","mooney1","image-keyboard-response","350","1180843","0.0-6.0-1.49","2913130","co39448","norming","","","","","","",""
"4007.125","","","post_mooney1_questions","survey-likert","351","1184852","0.0-6.0-2.49","2913130","co39448","norming","","","{""curiosity"":4,""confidence"":2}","[0,1]","../img/tt/112tt.jpg","",""
"5862.469999999972","","","recognition","survey-text","352","1190716","0.0-6.0-3.49","2913130","co39448","norming","","","{""guess"":""a thermometer""}","","../img/tt/112tt.jpg","",""
"null","../img/gs/112gs.jpg","null","reveal","image-keyboard-response","353","1192722","0.0-6.0-4.49","2913130","co39448","norming","","","","","","",""
"null","../img/tt/112tt.jpg","null","mooney2","image-keyboard-response","354","1194724","0.0-6.0-5.49","2913130","co39448","norming","","","","","","",""
"2652.8149999997113","","","post_reveal_questions","survey-likert","355","1197379","0.0-6.0-6.49","2913130","co39448","norming","","","{""aha"":2}","[0]","../img/tt/112tt.jpg","",""
"null","<div style=""font-size:60px;""> </div>","null","fixation","html-keyboard-response","356","1197582","0.0-6.0-0.50","2913130","co39448","norming","","","","","","",""
"null","../img/tt/477tt.jpg","null","mooney1","image-keyboard-response","357","1200585","0.0-6.0-1.50","2913130","co39448","norming","","","","","","",""
"6847.66500000027","","","post_mooney1_questions","survey-likert","358","1207436","0.0-6.0-2.50","2913130","co39448","norming","","","{""curiosity"":2,""confidence"":3}","[0,1]","../img/tt/477tt.jpg","",""
"3254.0699999998324","","","recognition","survey-text","359","1210692","0.0-6.0-3.50","2913130","co39448","norming","","","{""guess"":""fishbowl""}","","../img/tt/477tt.jpg","",""
"null","../img/gs/477gs.jpg","null","reveal","image-keyboard-response","360","1212697","0.0-6.0-4.50","2913130","co39448","norming","","","","","","",""
"null","../img/tt/477tt.jpg","null","mooney2","image-keyboard-response","361","1214703","0.0-6.0-5.50","2913130","co39448","norming","","","","","","",""
"3035.284999999916","","","post_reveal_questions","survey-likert","362","1217740","0.0-6.0-6.50","2913130","co39448","norming","","","{""aha"":4}","[0]","../img/tt/477tt.jpg","",""
"null","<div style=""font-size:60px;""> </div>","null","fixation","html-keyboard-response","363","1217948","0.0-6.0-0.51","2913130","co39448","norming","","","","","","",""
"null","../img/tt/1012tt.jpg","null","mooney1","image-keyboard-response","364","1220954","0.0-6.0-1.51","2913130","co39448","norming","","","","","","",""
"5014.689999999944","","","post_mooney1_questions","survey-likert","365","1225971","0.0-6.0-2.51","2913130","co39448","norming","","","{""curiosity"":3,""confidence"":1}","[0,1]","../img/tt/1012tt.jpg","",""
"7886.424999999814","","","recognition","survey-text","366","1233853","0.0-6.0-3.51","2913130","co39448","norming","","","{""guess"":""a camel""}","","../img/tt/1012tt.jpg","",""
"null","../img/gs/1012gs.jpg","null","reveal","image-keyboard-response","367","1235864","0.0-6.0-4.51","2913130","co39448","norming","","","","","","",""
"null","../img/tt/1012tt.jpg","null","mooney2","image-keyboard-response","368","1237876","0.0-6.0-5.51","2913130","co39448","norming","","","","","","",""
"4031.320000000065","","","post_reveal_questions","survey-likert","369","1241909","0.0-6.0-6.51","2913130","co39448","norming","","","{""aha"":3}","[0]","../img/tt/1012tt.jpg","",""
"null","<div style=""font-size:60px;""> </div>","null","fixation","html-keyboard-response","370","1242115","0.0-6.0-0.52","2913130","co39448","norming","","","","","","",""
"null","../img/tt/135tt.jpg","null","mooney1","image-keyboard-response","371","1245118","0.0-6.0-1.52","2913130","co39448","norming","","","","","","",""
"3948.730000000214","","","post_mooney1_questions","survey-likert","372","1249070","0.0-6.0-2.52","2913130","co39448","norming","","","{""curiosity"":2,""confidence"":3}","[0,1]","../img/tt/135tt.jpg","",""
"2814.1299999998882","","","recognition","survey-text","373","1251885","0.0-6.0-3.52","2913130","co39448","norming","","","{""guess"":""toiletseat""}","","../img/tt/135tt.jpg","",""
"null","../img/gs/135gs.jpg","null","reveal","image-keyboard-response","374","1253892","0.0-6.0-4.52","2913130","co39448","norming","","","","","","",""
"null","../img/tt/135tt.jpg","null","mooney2","image-keyboard-response","375","1255902","0.0-6.0-5.52","2913130","co39448","norming","","","","","","",""
"2843.9899999999907","","","post_reveal_questions","survey-likert","376","1258749","0.0-6.0-6.52","2913130","co39448","norming","","","{""aha"":4}","[0]","../img/tt/135tt.jpg","",""
"null","<div style=""font-size:60px;""> </div>","null","fixation","html-keyboard-response","377","1258953","0.0-6.0-0.53","2913130","co39448","norming","","","","","","",""
"null","../img/tt/053tt.jpg","null","mooney1","image-keyboard-response","378","1261964","0.0-6.0-1.53","2913130","co39448","norming","","","","","","",""
"3896.405000000028","","","post_mooney1_questions","survey-likert","379","1265861","0.0-6.0-2.53","2913130","co39448","norming","","","{""curiosity"":3,""confidence"":1}","[0,1]","../img/tt/053tt.jpg","",""
"2566.2150000003166","","","recognition","survey-text","380","1268429","0.0-6.0-3.53","2913130","co39448","norming","","","{""guess"":""cornfield""}","","../img/tt/053tt.jpg","",""
"null","../img/gs/053gs.jpg","null","reveal","image-keyboard-response","381","1270433","0.0-6.0-4.53","2913130","co39448","norming","","","","","","",""
"null","../img/tt/053tt.jpg","null","mooney2","image-keyboard-response","382","1272436","0.0-6.0-5.53","2913130","co39448","norming","","","","","","",""
"3390.1400000001304","","","post_reveal_questions","survey-likert","383","1275829","0.0-6.0-6.53","2913130","co39448","norming","","","{""aha"":2}","[0]","../img/tt/053tt.jpg","",""
"null","<div style=""font-size:60px;""> </div>","null","fixation","html-keyboard-response","384","1276032","0.0-6.0-0.54","2913130","co39448","norming","","","","","","",""
"null","../img/tt/1268tt.jpg","null","mooney1","image-keyboard-response","385","1279037","0.0-6.0-1.54","2913130","co39448","norming","","","","","","",""
"4692.665000000037","","","post_mooney1_questions","survey-likert","386","1283733","0.0-6.0-2.54","2913130","co39448","norming","","","{""curiosity"":3,""confidence"":0}","[0,1]","../img/tt/1268tt.jpg","",""
"11053.9449999996","","","recognition","survey-text","387","1294795","0.0-6.0-3.54","2913130","co39448","norming","","","{""guess"":""shooting man""}","","../img/tt/1268tt.jpg","",""
"null","../img/gs/1268gs.jpg","null","reveal","image-keyboard-response","388","1296804","0.0-6.0-4.54","2913130","co39448","norming","","","","","","",""
"null","../img/tt/1268tt.jpg","null","mooney2","image-keyboard-response","389","1298805","0.0-6.0-5.54","2913130","co39448","norming","","","","","","",""
"2780.880000000121","","","post_reveal_questions","survey-likert","390","1301587","0.0-6.0-6.54","2913130","co39448","norming","","","{""aha"":1}","[0]","../img/tt/1268tt.jpg","",""
"null","<div style=""font-size:60px;""> </div>","null","fixation","html-keyboard-response","391","1301797","0.0-6.0-0.55","2913130","co39448","norming","","","","","","",""
"null","../img/tt/1040tt.jpg","null","mooney1","image-keyboard-response","392","1304806","0.0-6.0-1.55","2913130","co39448","norming","","","","","","",""
"4828.48499999987","","","post_mooney1_questions","survey-likert","393","1309635","0.0-6.0-2.55","2913130","co39448","norming","","","{""curiosity"":3,""confidence"":0}","[0,1]","../img/tt/1040tt.jpg","",""
"3630.219999999972","","","recognition","survey-text","394","1313267","0.0-6.0-3.55","2913130","co39448","norming","","","{""guess"":""branches""}","","../img/tt/1040tt.jpg","",""
"null","../img/gs/1040gs.jpg","null","reveal","image-keyboard-response","395","1315272","0.0-6.0-4.55","2913130","co39448","norming","","","","","","",""
"null","../img/tt/1040tt.jpg","null","mooney2","image-keyboard-response","396","1317273","0.0-6.0-5.55","2913130","co39448","norming","","","","","","",""
"1919.8649999997579","","","post_reveal_questions","survey-likert","397","1319196","0.0-6.0-6.55","2913130","co39448","norming","","","{""aha"":1}","[0]","../img/tt/1040tt.jpg","",""
"null","<div style=""font-size:60px;""> </div>","null","fixation","html-keyboard-response","398","1319397","0.0-6.0-0.56","2913130","co39448","norming","","","","","","",""
"null","../img/tt/079tt.jpg","null","mooney1","image-keyboard-response","399","1322405","0.0-6.0-1.56","2913130","co39448","norming","","","","","","",""
"3595.2700000002515","","","post_mooney1_questions","survey-likert","400","1326003","0.0-6.0-2.56","2913130","co39448","norming","","","{""curiosity"":2,""confidence"":1}","[0,1]","../img/tt/079tt.jpg","",""
"2717.9500000001863","","","recognition","survey-text","401","1328723","0.0-6.0-3.56","2913130","co39448","norming","","","{""guess"":""a mountain""}","","../img/tt/079tt.jpg","",""
"null","../img/gs/079gs.jpg","null","reveal","image-keyboard-response","402","1330726","0.0-6.0-4.56","2913130","co39448","norming","","","","","","",""
"null","../img/tt/079tt.jpg","null","mooney2","image-keyboard-response","403","1332733","0.0-6.0-5.56","2913130","co39448","norming","","","","","","",""
"2107.6800000001676","","","post_reveal_questions","survey-likert","404","1334843","0.0-6.0-6.56","2913130","co39448","norming","","","{""aha"":1}","[0]","../img/tt/079tt.jpg","",""
"null","<div style=""font-size:60px;""> </div>","null","fixation","html-keyboard-response","405","1335049","0.0-6.0-0.57","2913130","co39448","norming","","","","","","",""
"null","../img/tt/353tt.jpg","null","mooney1","image-keyboard-response","406","1338053","0.0-6.0-1.57","2913130","co39448","norming","","","","","","",""
"3172.910000000149","","","post_mooney1_questions","survey-likert","407","1341227","0.0-6.0-2.57","2913130","co39448","norming","","","{""curiosity"":3,""confidence"":3}","[0,1]","../img/tt/353tt.jpg","",""
"2886.274999999907","","","recognition","survey-text","408","1344115","0.0-6.0-3.57","2913130","co39448","norming","","","{""guess"":""a pinguin""}","","../img/tt/353tt.jpg","",""
"null","../img/gs/353gs.jpg","null","reveal","image-keyboard-response","409","1346118","0.0-6.0-4.57","2913130","co39448","norming","","","","","","",""
"null","../img/tt/353tt.jpg","null","mooney2","image-keyboard-response","410","1348126","0.0-6.0-5.57","2913130","co39448","norming","","","","","","",""
"4323.89000000013","","","post_reveal_questions","survey-likert","411","1352444","0.0-6.0-6.57","2913130","co39448","norming","","","{""aha"":4}","[0]","../img/tt/353tt.jpg","",""
"null","<div style=""font-size:60px;""> </div>","null","fixation","html-keyboard-response","412","1352646","0.0-6.0-0.58","2913130","co39448","norming","","","","","","",""
"null","../img/tt/1154tt.jpg","null","mooney1","image-keyboard-response","413","1355653","0.0-6.0-1.58","2913130","co39448","norming","","","","","","",""
"6452.3300000000745","","","post_mooney1_questions","survey-likert","414","1362109","0.0-6.0-2.58","2913130","co39448","norming","","","{""curiosity"":3,""confidence"":2}","[0,1]","../img/tt/1154tt.jpg","",""
"5030.235000000102","","","recognition","survey-text","415","1367140","0.0-6.0-3.58","2913130","co39448","norming","","","{""guess"":""mountain goat""}","","../img/tt/1154tt.jpg","",""
"null","../img/gs/1154gs.jpg","null","reveal","image-keyboard-response","416","1369150","0.0-6.0-4.58","2913130","co39448","norming","","","","","","",""
"null","../img/tt/1154tt.jpg","null","mooney2","image-keyboard-response","417","1371151","0.0-6.0-5.58","2913130","co39448","norming","","","","","","",""
"1794.9749999998603","","","post_reveal_questions","survey-likert","418","1372948","0.0-6.0-6.58","2913130","co39448","norming","","","{""aha"":1}","[0]","../img/tt/1154tt.jpg","",""
"null","<div style=""font-size:60px;""> </div>","null","fixation","html-keyboard-response","419","1373149","0.0-6.0-0.59","2913130","co39448","norming","","","","","","",""
"null","../img/tt/049tt.jpg","null","mooney1","image-keyboard-response","420","1376154","0.0-6.0-1.59","2913130","co39448","norming","","","","","","",""
"3783.4749999998603","","","post_mooney1_questions","survey-likert","421","1379941","0.0-6.0-2.59","2913130","co39448","norming","","","{""curiosity"":2,""confidence"":3}","[0,1]","../img/tt/049tt.jpg","",""
"1574.2249999998603","","","recognition","survey-text","422","1381516","0.0-6.0-3.59","2913130","co39448","norming","","","{""guess"":""a pig""}","","../img/tt/049tt.jpg","",""
"null","../img/gs/049gs.jpg","null","reveal","image-keyboard-response","423","1383521","0.0-6.0-4.59","2913130","co39448","norming","","","","","","",""
"null","../img/tt/049tt.jpg","null","mooney2","image-keyboard-response","424","1385525","0.0-6.0-5.59","2913130","co39448","norming","","","","","","",""
"3772.3000000000466","","","post_reveal_questions","survey-likert","425","1389300","0.0-6.0-6.59","2913130","co39448","norming","","","{""aha"":2}","[0]","../img/tt/049tt.jpg","",""
"null","<div style=""font-size:60px;""> </div>","null","fixation","html-keyboard-response","426","1389506","0.0-6.0-0.60","2913130","co39448","norming","","","","","","",""
"null","../img/tt/082tt.jpg","null","mooney1","image-keyboard-response","427","1392508","0.0-6.0-1.60","2913130","co39448","norming","","","","","","",""
"3420.8349999999627","","","post_mooney1_questions","survey-likert","428","1395933","0.0-6.0-2.60","2913130","co39448","norming","","","{""curiosity"":1,""confidence"":3}","[0,1]","../img/tt/082tt.jpg","",""
"2245.844999999972","","","recognition","survey-text","429","1398180","0.0-6.0-3.60","2913130","co39448","norming","","","{""guess"":""candels""}","","../img/tt/082tt.jpg","",""
"null","../img/gs/082gs.jpg","null","reveal","image-keyboard-response","430","1400186","0.0-6.0-4.60","2913130","co39448","norming","","","","","","",""
"null","../img/tt/082tt.jpg","null","mooney2","image-keyboard-response","431","1402197","0.0-6.0-5.60","2913130","co39448","norming","","","","","","",""
"4052.374999999767","","","post_reveal_questions","survey-likert","432","1406252","0.0-6.0-6.60","2913130","co39448","norming","","","{""aha"":0}","[0]","../img/tt/082tt.jpg","",""
"null","<div style=""font-size:60px;""> </div>","null","fixation","html-keyboard-response","433","1406462","0.0-6.0-0.61","2913130","co39448","norming","","","","","","",""
"null","../img/tt/040tt.jpg","null","mooney1","image-keyboard-response","434","1409471","0.0-6.0-1.61","2913130","co39448","norming","","","","","","",""
"5283.034999999916","","","post_mooney1_questions","survey-likert","435","1414757","0.0-6.0-2.61","2913130","co39448","norming","","","{""curiosity"":3,""confidence"":0}","[0,1]","../img/tt/040tt.jpg","",""
"5774.130000000121","","","recognition","survey-text","436","1420533","0.0-6.0-3.61","2913130","co39448","norming","","","{""guess"":""a branch""}","","../img/tt/040tt.jpg","",""
"null","../img/gs/040gs.jpg","null","reveal","image-keyboard-response","437","1422535","0.0-6.0-4.61","2913130","co39448","norming","","","","","","",""
"null","../img/tt/040tt.jpg","null","mooney2","image-keyboard-response","438","1424543","0.0-6.0-5.61","2913130","co39448","norming","","","","","","",""
"3154.7800000002608","","","post_reveal_questions","survey-likert","439","1427701","0.0-6.0-6.61","2913130","co39448","norming","","","{""aha"":0}","[0]","../img/tt/040tt.jpg","",""
"null","<div style=""font-size:60px;""> </div>","null","fixation","html-keyboard-response","440","1427911","0.0-6.0-0.62","2913130","co39448","norming","","","","","","",""
"null","../img/tt/534tt.jpg","null","mooney1","image-keyboard-response","441","1430915","0.0-6.0-1.62","2913130","co39448","norming","","","","","","",""
"5287.449999999953","","","post_mooney1_questions","survey-likert","442","1436205","0.0-6.0-2.62","2913130","co39448","norming","","","{""curiosity"":2,""confidence"":3}","[0,1]","../img/tt/534tt.jpg","",""
"2101.9249999998137","","","recognition","survey-text","443","1438309","0.0-6.0-3.62","2913130","co39448","norming","","","{""guess"":""cactus""}","","../img/tt/534tt.jpg","",""
"null","../img/gs/534gs.jpg","null","reveal","image-keyboard-response","444","1440318","0.0-6.0-4.62","2913130","co39448","norming","","","","","","",""
"null","../img/tt/534tt.jpg","null","mooney2","image-keyboard-response","445","1442321","0.0-6.0-5.62","2913130","co39448","norming","","","","","","",""
"2745.6450000000186","","","post_reveal_questions","survey-likert","446","1445069","0.0-6.0-6.62","2913130","co39448","norming","","","{""aha"":4}","[0]","../img/tt/534tt.jpg","",""
"null","<div style=""font-size:60px;""> </div>","null","fixation","html-keyboard-response","447","1445274","0.0-6.0-0.63","2913130","co39448","norming","","","","","","",""
"null","../img/tt/524tt.jpg","null","mooney1","image-keyboard-response","448","1448282","0.0-6.0-1.63","2913130","co39448","norming","","","","","","",""
"3183.5300000002608","","","post_mooney1_questions","survey-likert","449","1451469","0.0-6.0-2.63","2913130","co39448","norming","","","{""curiosity"":1,""confidence"":3}","[0,1]","../img/tt/524tt.jpg","",""
"1958.0400000000373","","","recognition","survey-text","450","1453429","0.0-6.0-3.63","2913130","co39448","norming","","","{""guess"":""bear""}","","../img/tt/524tt.jpg","",""
"null","../img/gs/524gs.jpg","null","reveal","image-keyboard-response","451","1455435","0.0-6.0-4.63","2913130","co39448","norming","","","","","","",""
"null","../img/tt/524tt.jpg","null","mooney2","image-keyboard-response","452","1457437","0.0-6.0-5.63","2913130","co39448","norming","","","","","","",""
"3404.859999999637","","","post_reveal_questions","survey-likert","453","1460845","0.0-6.0-6.63","2913130","co39448","norming","","","{""aha"":0}","[0]","../img/tt/524tt.jpg","",""
"null","<div style=""font-size:60px;""> </div>","null","fixation","html-keyboard-response","454","1461046","0.0-6.0-0.64","2913130","co39448","norming","","","","","","",""
"null","../img/tt/1078tt.jpg","null","mooney1","image-keyboard-response","455","1464056","0.0-6.0-1.64","2913130","co39448","norming","","","","","","",""
"3784.265000000363","","","post_mooney1_questions","survey-likert","456","1467845","0.0-6.0-2.64","2913130","co39448","norming","","","{""curiosity"":1,""confidence"":3}","[0,1]","../img/tt/1078tt.jpg","",""
"4558.3100000005215","","","recognition","survey-text","457","1472408","0.0-6.0-3.64","2913130","co39448","norming","","","{""guess"":""skating person""}","","../img/tt/1078tt.jpg","",""
"null","../img/gs/1078gs.jpg","null","reveal","image-keyboard-response","458","1474412","0.0-6.0-4.64","2913130","co39448","norming","","","","","","",""
"null","../img/tt/1078tt.jpg","null","mooney2","image-keyboard-response","459","1476413","0.0-6.0-5.64","2913130","co39448","norming","","","","","","",""
"3080.8249999999534","","","post_reveal_questions","survey-likert","460","1479496","0.0-6.0-6.64","2913130","co39448","norming","","","{""aha"":4}","[0]","../img/tt/1078tt.jpg","",""
"null","<div style=""font-size:60px;""> </div>","null","fixation","html-keyboard-response","461","1479702","0.0-6.0-0.65","2913130","co39448","norming","","","","","","",""
"null","../img/tt/436tt.jpg","null","mooney1","image-keyboard-response","462","1482706","0.0-6.0-1.65","2913130","co39448","norming","","","","","","",""
"2995.155000000028","","","post_mooney1_questions","survey-likert","463","1485705","0.0-6.0-2.65","2913130","co39448","norming","","","{""curiosity"":4,""confidence"":2}","[0,1]","../img/tt/436tt.jpg","",""
"1742.1249999995343","","","recognition","survey-text","464","1487448","0.0-6.0-3.65","2913130","co39448","norming","","","{""guess"":""a cat""}","","../img/tt/436tt.jpg","",""
"null","../img/gs/436gs.jpg","null","reveal","image-keyboard-response","465","1489455","0.0-6.0-4.65","2913130","co39448","norming","","","","","","",""
"null","../img/tt/436tt.jpg","null","mooney2","image-keyboard-response","466","1491466","0.0-6.0-5.65","2913130","co39448","norming","","","","","","",""
"2355.6750000002794","","","post_reveal_questions","survey-likert","467","1493824","0.0-6.0-6.65","2913130","co39448","norming","","","{""aha"":2}","[0]","../img/tt/436tt.jpg","",""
"null","<div style=""font-size:60px;""> </div>","null","fixation","html-keyboard-response","468","1494026","0.0-6.0-0.66","2913130","co39448","norming","","","","","","",""
"null","../img/tt/1070tt.jpg","null","mooney1","image-keyboard-response","469","1497033","0.0-6.0-1.66","2913130","co39448","norming","","","","","","",""
"5243.814999999711","","","post_mooney1_questions","survey-likert","470","1502280","0.0-6.0-2.66","2913130","co39448","norming","","","{""curiosity"":3,""confidence"":2}","[0,1]","../img/tt/1070tt.jpg","",""
"2894.0450000001583","","","recognition","survey-text","471","1505176","0.0-6.0-3.66","2913130","co39448","norming","","","{""guess"":""food plate""}","","../img/tt/1070tt.jpg","",""
"null","../img/gs/1070gs.jpg","null","reveal","image-keyboard-response","472","1507186","0.0-6.0-4.66","2913130","co39448","norming","","","","","","",""
"null","../img/tt/1070tt.jpg","null","mooney2","image-keyboard-response","473","1509188","0.0-6.0-5.66","2913130","co39448","norming","","","","","","",""
"3105.779999999795","","","post_reveal_questions","survey-likert","474","1512296","0.0-6.0-6.66","2913130","co39448","norming","","","{""aha"":4}","[0]","../img/tt/1070tt.jpg","",""
"null","<div style=""font-size:60px;""> </div>","null","fixation","html-keyboard-response","475","1512500","0.0-6.0-0.67","2913130","co39448","norming","","","","","","",""
"null","../img/tt/1254tt.jpg","null","mooney1","image-keyboard-response","476","1515509","0.0-6.0-1.67","2913130","co39448","norming","","","","","","",""
"3127.8850000000093","","","post_mooney1_questions","survey-likert","477","1518640","0.0-6.0-2.67","2913130","co39448","norming","","","{""curiosity"":2,""confidence"":1}","[0,1]","../img/tt/1254tt.jpg","",""
"3230.1800000001676","","","recognition","survey-text","478","1521872","0.0-6.0-3.67","2913130","co39448","norming","","","{""guess"":""an ostrich""}","","../img/tt/1254tt.jpg","",""
"null","../img/gs/1254gs.jpg","null","reveal","image-keyboard-response","479","1523876","0.0-6.0-4.67","2913130","co39448","norming","","","","","","",""
"null","../img/tt/1254tt.jpg","null","mooney2","image-keyboard-response","480","1525887","0.0-6.0-5.67","2913130","co39448","norming","","","","","","",""
"2152.374999999767","","","post_reveal_questions","survey-likert","481","1528040","0.0-6.0-6.67","2913130","co39448","norming","","","{""aha"":2}","[0]","../img/tt/1254tt.jpg","",""
"null","<div style=""font-size:60px;""> </div>","null","fixation","html-keyboard-response","482","1528249","0.0-6.0-0.68","2913130","co39448","norming","","","","","","",""
"null","../img/tt/007tt.jpg","null","mooney1","image-keyboard-response","483","1531252","0.0-6.0-1.68","2913130","co39448","norming","","","","","","",""
"3721.5799999998417","","","post_mooney1_questions","survey-likert","484","1534976","0.0-6.0-2.68","2913130","co39448","norming","","","{""curiosity"":3,""confidence"":3}","[0,1]","../img/tt/007tt.jpg","",""
"6582.229999999981","","","recognition","survey-text","485","1541559","0.0-6.0-3.68","2913130","co39448","norming","","","{""guess"":""an mamot""}","","../img/tt/007tt.jpg","",""
"null","../img/gs/007gs.jpg","null","reveal","image-keyboard-response","486","1543570","0.0-6.0-4.68","2913130","co39448","norming","","","","","","",""
"null","../img/tt/007tt.jpg","null","mooney2","image-keyboard-response","487","1545579","0.0-6.0-5.68","2913130","co39448","norming","","","","","","",""
"4225.179999999935","","","post_reveal_questions","survey-likert","488","1549807","0.0-6.0-6.68","2913130","co39448","norming","","","{""aha"":1}","[0]","../img/tt/007tt.jpg","",""
"null","<div style=""font-size:60px;""> </div>","null","fixation","html-keyboard-response","489","1550011","0.0-6.0-0.69","2913130","co39448","norming","","","","","","",""
"null","../img/tt/194tt.jpg","null","mooney1","image-keyboard-response","490","1553015","0.0-6.0-1.69","2913130","co39448","norming","","","","","","",""
"6797.654999999795","","","post_mooney1_questions","survey-likert","491","1559815","0.0-6.0-2.69","2913130","co39448","norming","","","{""curiosity"":2,""confidence"":3}","[0,1]","../img/tt/194tt.jpg","",""
"3126.679999999935","","","recognition","survey-text","492","1562944","0.0-6.0-3.69","2913130","co39448","norming","","","{""guess"":""harp player""}","","../img/tt/194tt.jpg","",""
"null","../img/gs/194gs.jpg","null","reveal","image-keyboard-response","493","1564947","0.0-6.0-4.69","2913130","co39448","norming","","","","","","",""
"null","../img/tt/194tt.jpg","null","mooney2","image-keyboard-response","494","1566949","0.0-6.0-5.69","2913130","co39448","norming","","","","","","",""
"3807.7099999999627","","","post_reveal_questions","survey-likert","495","1570760","0.0-6.0-6.69","2913130","co39448","norming","","","{""aha"":4}","[0]","../img/tt/194tt.jpg","",""
"null","<div style=""font-size:60px;""> </div>","null","fixation","html-keyboard-response","496","1570966","0.0-6.0-0.70","2913130","co39448","norming","","","","","","",""
"null","../img/tt/1148tt.jpg","null","mooney1","image-keyboard-response","497","1573971","0.0-6.0-1.70","2913130","co39448","norming","","","","","","",""
"5313.094999999972","","","post_mooney1_questions","survey-likert","498","1579287","0.0-6.0-2.70","2913130","co39448","norming","","","{""curiosity"":2,""confidence"":3}","[0,1]","../img/tt/1148tt.jpg","",""
"7438.175000000279","","","recognition","survey-text","499","1586727","0.0-6.0-3.70","2913130","co39448","norming","","","{""guess"":""swimming man""}","","../img/tt/1148tt.jpg","",""
"null","../img/gs/1148gs.jpg","null","reveal","image-keyboard-response","500","1588729","0.0-6.0-4.70","2913130","co39448","norming","","","","","","",""
"null","../img/tt/1148tt.jpg","null","mooney2","image-keyboard-response","501","1590739","0.0-6.0-5.70","2913130","co39448","norming","","","","","","",""
"3139.644999999786","","","post_reveal_questions","survey-likert","502","1593883","0.0-6.0-6.70","2913130","co39448","norming","","","{""aha"":5}","[0]","../img/tt/1148tt.jpg","",""
"null","<div style=""font-size:60px;""> </div>","null","fixation","html-keyboard-response","503","1594090","0.0-6.0-0.71","2913130","co39448","norming","","","","","","",""
"null","../img/tt/111tt.jpg","null","mooney1","image-keyboard-response","504","1597098","0.0-6.0-1.71","2913130","co39448","norming","","","","","","",""
"4245.570000000065","","","post_mooney1_questions","survey-likert","505","1601347","0.0-6.0-2.71","2913130","co39448","norming","","","{""curiosity"":3,""confidence"":2}","[0,1]","../img/tt/111tt.jpg","",""
"3693.924999999581","","","recognition","survey-text","506","1605043","0.0-6.0-3.71","2913130","co39448","norming","","","{""guess"":""skeleton""}","","../img/tt/111tt.jpg","",""
"null","../img/gs/111gs.jpg","null","reveal","image-keyboard-response","507","1607050","0.0-6.0-4.71","2913130","co39448","norming","","","","","","",""
"null","../img/tt/111tt.jpg","null","mooney2","image-keyboard-response","508","1609060","0.0-6.0-5.71","2913130","co39448","norming","","","","","","",""
"2835.945000000298","","","post_reveal_questions","survey-likert","509","1611899","0.0-6.0-6.71","2913130","co39448","norming","","","{""aha"":0}","[0]","../img/tt/111tt.jpg","",""
"null","<div style=""font-size:60px;""> </div>","null","fixation","html-keyboard-response","510","1612108","0.0-6.0-0.72","2913130","co39448","norming","","","","","","",""
"null","../img/tt/1362tt.jpg","null","mooney1","image-keyboard-response","511","1615113","0.0-6.0-1.72","2913130","co39448","norming","","","","","","",""
"3693.749999999767","","","post_mooney1_questions","survey-likert","512","1618811","0.0-6.0-2.72","2913130","co39448","norming","","","{""curiosity"":3,""confidence"":1}","[0,1]","../img/tt/1362tt.jpg","",""
"2470.2549999998882","","","recognition","survey-text","513","1621283","0.0-6.0-3.72","2913130","co39448","norming","","","{""guess"":""violin""}","","../img/tt/1362tt.jpg","",""
"null","../img/gs/1362gs.jpg","null","reveal","image-keyboard-response","514","1623289","0.0-6.0-4.72","2913130","co39448","norming","","","","","","",""
"null","../img/tt/1362tt.jpg","null","mooney2","image-keyboard-response","515","1625291","0.0-6.0-5.72","2913130","co39448","norming","","","","","","",""
"3406.2450000001118","","","post_reveal_questions","survey-likert","516","1628699","0.0-6.0-6.72","2913130","co39448","norming","","","{""aha"":0}","[0]","../img/tt/1362tt.jpg","",""
"null","<div style=""font-size:60px;""> </div>","null","fixation","html-keyboard-response","517","1628901","0.0-6.0-0.73","2913130","co39448","norming","","","","","","",""
"null","../img/tt/1089tt.jpg","null","mooney1","image-keyboard-response","518","1631910","0.0-6.0-1.73","2913130","co39448","norming","","","","","","",""
"3849.519999999786","","","post_mooney1_questions","survey-likert","519","1635763","0.0-6.0-2.73","2913130","co39448","norming","","","{""curiosity"":1,""confidence"":2}","[0,1]","../img/tt/1089tt.jpg","",""
"4190.139999999665","","","recognition","survey-text","520","1639955","0.0-6.0-3.73","2913130","co39448","norming","","","{""guess"":""cow""}","","../img/tt/1089tt.jpg","",""
"null","../img/gs/1089gs.jpg","null","reveal","image-keyboard-response","521","1641958","0.0-6.0-4.73","2913130","co39448","norming","","","","","","",""
"null","../img/tt/1089tt.jpg","null","mooney2","image-keyboard-response","522","1643962","0.0-6.0-5.73","2913130","co39448","norming","","","","","","",""
"2853.1899999997113","","","post_reveal_questions","survey-likert","523","1646818","0.0-6.0-6.73","2913130","co39448","norming","","","{""aha"":3}","[0]","../img/tt/1089tt.jpg","",""
"null","<div style=""font-size:60px;""> </div>","null","fixation","html-keyboard-response","524","1647024","0.0-6.0-0.74","2913130","co39448","norming","","","","","","",""
"null","../img/tt/273tt.jpg","null","mooney1","image-keyboard-response","525","1650031","0.0-6.0-1.74","2913130","co39448","norming","","","","","","",""
"7088.5","","","post_mooney1_questions","survey-likert","526","1657122","0.0-6.0-2.74","2913130","co39448","norming","","","{""curiosity"":1,""confidence"":5}","[0,1]","../img/tt/273tt.jpg","",""
"2062.20999999973","","","recognition","survey-text","527","1659186","0.0-6.0-3.74","2913130","co39448","norming","","","{""guess"":""braces""}","","../img/tt/273tt.jpg","",""
"null","../img/gs/273gs.jpg","null","reveal","image-keyboard-response","528","1661191","0.0-6.0-4.74","2913130","co39448","norming","","","","","","",""
"null","../img/tt/273tt.jpg","null","mooney2","image-keyboard-response","529","1663193","0.0-6.0-5.74","2913130","co39448","norming","","","","","","",""
"2597.6049999997485","","","post_reveal_questions","survey-likert","530","1665794","0.0-6.0-6.74","2913130","co39448","norming","","","{""aha"":4}","[0]","../img/tt/273tt.jpg","",""
"null","<div style=""font-size:60px;""> </div>","null","fixation","html-keyboard-response","531","1665998","0.0-6.0-0.75","2913130","co39448","norming","","","","","","",""
"null","../img/tt/1055tt.jpg","null","mooney1","image-keyboard-response","532","1669009","0.0-6.0-1.75","2913130","co39448","norming","","","","","","",""
"6286.130000000121","","","post_mooney1_questions","survey-likert","533","1675298","0.0-6.0-2.75","2913130","co39448","norming","","","{""curiosity"":3,""confidence"":2}","[0,1]","../img/tt/1055tt.jpg","",""
"2230.030000000028","","","recognition","survey-text","534","1677530","0.0-6.0-3.75","2913130","co39448","norming","","","{""guess"":""tunnel""}","","../img/tt/1055tt.jpg","",""
"null","../img/gs/1055gs.jpg","null","reveal","image-keyboard-response","535","1679540","0.0-6.0-4.75","2913130","co39448","norming","","","","","","",""
"null","../img/tt/1055tt.jpg","null","mooney2","image-keyboard-response","536","1681550","0.0-6.0-5.75","2913130","co39448","norming","","","","","","",""
"3561.000000000233","","","post_reveal_questions","survey-likert","537","1685114","0.0-6.0-6.75","2913130","co39448","norming","","","{""aha"":1}","[0]","../img/tt/1055tt.jpg","",""
"null","<div style=""font-size:60px;""> </div>","null","fixation","html-keyboard-response","538","1685317","0.0-6.0-0.76","2913130","co39448","norming","","","","","","",""
"null","../img/tt/1061tt.jpg","null","mooney1","image-keyboard-response","539","1688324","0.0-6.0-1.76","2913130","co39448","norming","","","","","","",""
"4218.785000000149","","","post_mooney1_questions","survey-likert","540","1692546","0.0-6.0-2.76","2913130","co39448","norming","","","{""curiosity"":2,""confidence"":1}","[0,1]","../img/tt/1061tt.jpg","",""
"5485.840000000084","","","recognition","survey-text","541","1698034","0.0-6.0-3.76","2913130","co39448","norming","","","{""guess"":""working man""}","","../img/tt/1061tt.jpg","",""
"null","../img/gs/1061gs.jpg","null","reveal","image-keyboard-response","542","1700045","0.0-6.0-4.76","2913130","co39448","norming","","","","","","",""
"null","../img/tt/1061tt.jpg","null","mooney2","image-keyboard-response","543","1702048","0.0-6.0-5.76","2913130","co39448","norming","","","","","","",""
"4887.314999999944","","","post_reveal_questions","survey-likert","544","1706938","0.0-6.0-6.76","2913130","co39448","norming","","","{""aha"":0}","[0]","../img/tt/1061tt.jpg","",""
"null","<div style=""font-size:60px;""> </div>","null","fixation","html-keyboard-response","545","1707143","0.0-6.0-0.77","2913130","co39448","norming","","","","","","",""
"null","../img/tt/1181tt.jpg","null","mooney1","image-keyboard-response","546","1710155","0.0-6.0-1.77","2913130","co39448","norming","","","","","","",""
"4283.179999999935","","","post_mooney1_questions","survey-likert","547","1714442","0.0-6.0-2.77","2913130","co39448","norming","","","{""curiosity"":2,""confidence"":1}","[0,1]","../img/tt/1181tt.jpg","",""
"1973.8149999997113","","","recognition","survey-text","548","1716419","0.0-6.0-3.77","2913130","co39448","norming","","","{""guess"":""hugging""}","","../img/tt/1181tt.jpg","",""
"null","../img/gs/1181gs.jpg","null","reveal","image-keyboard-response","549","1718427","0.0-6.0-4.77","2913130","co39448","norming","","","","","","",""
"null","../img/tt/1181tt.jpg","null","mooney2","image-keyboard-response","550","1720438","0.0-6.0-5.77","2913130","co39448","norming","","","","","","",""
