"rt","stimulus","key_press","test_part","trial_type","trial_index","time_elapsed","internal_node_id","totalTime","subject","experiment_name","button_pressed","success","responses","question_order","currentStim","old","correct"
"10941.609999999855","Welcome to the experiment. This is an online experiment so please don't close the tab/window until we say goodbye.  Press any key to begin.","13","instructions","html-keyboard-response","0","10955","0.0-0.0","3278645","co40294","norming","","","","","","",""
"20158.194999999978","<div style='word-wrap: break-word; width: 900px'><h3>Please consider this information carefully before deciding whether to participate in this research</h3><ul style='text-align: left; font-size: .8em;'><li><b>Purpose of the research</b>: To examine how people process images.</li><li><b>What you will do in this research</b>:  Stimuli (images) will be presented on the computer and you will be asked different questions about them.</li><li><b>Time required</b>: Participation will take between 45 and 60 minutes to complete.</li><li><b>Risks</b>:  There are no anticipated risks associated with participating in this study. The effects of participating should be comparable to those you would experience from viewing a computer monitor for 30 minutes and using a mouse or keyboard.</li><li><b>Benefits</b>:  This study provides no benefits to you individually except for the credit. The study provides important information about the nature of perception and learning.</li><li><b>Confidentiality</b>:  Your participation in this study will remain confidential. No personally identifiable information will be associated with your data. Your de-identified data may be shared with other researchers and used in future projects.</li><li><b>Participation and withdrawal</b>:  Your participation in this study is completely voluntary and you may refuse to participate or you may choose to withdraw at any time without penalty.</li><li><b>How to contact the researchers</b>: If you have questions or concerns about your participation or payment, or want to request a summary of research findings, please contact Sander Van de Cruys (KU Leuven), at sander.vandecruys@kuleuven.be.</li></ul><p>The nature and purpose of this research have been sufficiently explained and I agree to participate in this study.  I understand that I am free to withdraw at any time without incurring any penalty.</p><p>Please consent by clicking the button below to continue. Otherwise, please exit the study at this time.</p></div>","","instructions","html-button-response","1","31114","0.0-1.0","3278645","co40294","norming","0","","","","","",""
"","","","instructions","fullscreen","2","37721","0.0-2.0","3278645","co40294","norming","","true","","","","",""
"83604.12499999983","","","sona","survey-html-form","3","121331","0.0-3.0","3278645","co40294","norming","","","[{""name"":""sonaid"",""value"":""40294""},{""name"":""debrief"",""value"":""yes""},{""name"":""datajoin"",""value"":""yes""}]","","","",""
"57986.86999999973","<div style='word-wrap: break-word; width: 900px'><h3>Instructions</h3><p>This experiment will have 3 parts. In the first part you will see a series of distorted images like the one below on the left. As you can see in the righthand image, the distorted images are derived from actual photographs. In what follows, you will <strong>briefly</strong> be presented with <strong>only</strong> the distorted image.</p> <div style='float: left; margin-right: 20px;'><img src='../img/018tt.jpg' height='250' width='250'></img></div><div style='float: right; margin-left: 20px;'><img src='../img/018gs.jpg' height='250' width='250'></img></div><p>Subsequently you will be asked a few questions about the image: One question on how <strong>curious</strong> you are about the solution and one on how <strong>confident</strong> you are that you know the solution.</p>Next, we ask you to make a guess on what is in the image. Note that it is OK to name just the <strong>basic level category</strong>. For example when you see a parrot in the image, 'parrot' will obviously be a correct answer but also correct is 'bird'. However, 'animal' will <strong>not</strong> be counted as a correct response. For the example above, 'rose' would be correct or 'flower', but not 'plant'. When soccer players are depicted, 'soccer', 'football', 'soccer players' will be correct, but not 'humans', 'outdoors', or 'sports'. You do not need to describe the image in full, just name the main object in it <strong>in one or two words</strong>. All images depict objects from one of the following broad level categories: animals, inanimate objects, plants, sports, vehicles, and food. Recognizing means knowing <strong>more</strong> than these broad labels for a given image. But we always encourage you to <strong>make a guess</strong> if you can. Note that you are allowed to use <strong>Dutch and English</strong> in your answers, whatever comes easiest for you.</p><p>Press any key to continue.</p></div>","13","instructions","html-keyboard-response","4","179319","0.0-4.0","3278645","co40294","norming","","","","","","",""
"1615.0299999999406","<div style='word-wrap: break-word; width: 900px'><h3>Instructions</h3> <p>Next, the solution image will be revealed to you and you'll be asked to indicate how strong your <strong>aha-experience</strong> was after seeing the solution. This describes the positive feeling of the 'click' you sometimes experience, when the pieces of the 'puzzle' fall together and you suddenly have 'insight' in the image.</p><img src='aha.jpg' height='188' width='250'></img><p>Note that there are no right or wrong answers. We are interested in what <strong>you</strong> see in the image and how <strong>you</strong> feel about it.</p><p>Press any key to start the experiment.</p></div>","13","instructions","html-keyboard-response","5","180934","0.0-5.0","3278645","co40294","norming","","","","","","",""
"null","<div style=""font-size:60px;""> </div>","null","fixation","html-keyboard-response","6","181137","0.0-6.0-0.0","3278645","co40294","norming","","","","","","",""
"null","../img/tt/1070tt.jpg","null","mooney1","image-keyboard-response","7","184144","0.0-6.0-1.0","3278645","co40294","norming","","","","","","",""
"7843.095000000147","","","post_mooney1_questions","survey-likert","8","191991","0.0-6.0-2.0","3278645","co40294","norming","","","{""curiosity"":3,""confidence"":5}","[0,1]","../img/tt/1070tt.jpg","",""
"9765.499999999534","","","recognition","survey-text","9","201758","0.0-6.0-3.0","3278645","co40294","norming","","","{""guess"":""cake""}","","../img/tt/1070tt.jpg","",""
"null","../img/gs/1070gs.jpg","null","reveal","image-keyboard-response","10","203766","0.0-6.0-4.0","3278645","co40294","norming","","","","","","",""
"null","../img/tt/1070tt.jpg","null","mooney2","image-keyboard-response","11","205777","0.0-6.0-5.0","3278645","co40294","norming","","","","","","",""
"5578.975000000355","","","post_reveal_questions","survey-likert","12","211358","0.0-6.0-6.0","3278645","co40294","norming","","","{""aha"":4}","[0]","../img/tt/1070tt.jpg","",""
"null","<div style=""font-size:60px;""> </div>","null","fixation","html-keyboard-response","13","211561","0.0-6.0-0.1","3278645","co40294","norming","","","","","","",""
"null","../img/tt/105tt.jpg","null","mooney1","image-keyboard-response","14","214565","0.0-6.0-1.1","3278645","co40294","norming","","","","","","",""
"9751.40499999997","","","post_mooney1_questions","survey-likert","15","224318","0.0-6.0-2.1","3278645","co40294","norming","","","{""curiosity"":6,""confidence"":1}","[0,1]","../img/tt/105tt.jpg","",""
"5061.824999999779","","","recognition","survey-text","16","229382","0.0-6.0-3.1","3278645","co40294","norming","","","{""guess"":""field""}","","../img/tt/105tt.jpg","",""
"null","../img/gs/105gs.jpg","null","reveal","image-keyboard-response","17","231383","0.0-6.0-4.1","3278645","co40294","norming","","","","","","",""
"null","../img/tt/105tt.jpg","null","mooney2","image-keyboard-response","18","233385","0.0-6.0-5.1","3278645","co40294","norming","","","","","","",""
"12868.585000000166","","","post_reveal_questions","survey-likert","19","246257","0.0-6.0-6.1","3278645","co40294","norming","","","{""aha"":3}","[0]","../img/tt/105tt.jpg","",""
"null","<div style=""font-size:60px;""> </div>","null","fixation","html-keyboard-response","20","246463","0.0-6.0-0.2","3278645","co40294","norming","","","","","","",""
"null","../img/tt/079tt.jpg","null","mooney1","image-keyboard-response","21","249465","0.0-6.0-1.2","3278645","co40294","norming","","","","","","",""
"7510.874999999942","","","post_mooney1_questions","survey-likert","22","256977","0.0-6.0-2.2","3278645","co40294","norming","","","{""curiosity"":4,""confidence"":3}","[0,1]","../img/tt/079tt.jpg","",""
"3550.0899999997346","","","recognition","survey-text","23","260528","0.0-6.0-3.2","3278645","co40294","norming","","","{""guess"":""mountain""}","","../img/tt/079tt.jpg","",""
"null","../img/gs/079gs.jpg","null","reveal","image-keyboard-response","24","262539","0.0-6.0-4.2","3278645","co40294","norming","","","","","","",""
"null","../img/tt/079tt.jpg","null","mooney2","image-keyboard-response","25","264542","0.0-6.0-5.2","3278645","co40294","norming","","","","","","",""
"2808.0749999999534","","","post_reveal_questions","survey-likert","26","267352","0.0-6.0-6.2","3278645","co40294","norming","","","{""aha"":5}","[0]","../img/tt/079tt.jpg","",""
"null","<div style=""font-size:60px;""> </div>","null","fixation","html-keyboard-response","27","267560","0.0-6.0-0.3","3278645","co40294","norming","","","","","","",""
"null","../img/tt/603tt.jpg","null","mooney1","image-keyboard-response","28","270568","0.0-6.0-1.3","3278645","co40294","norming","","","","","","",""
"11605.629999999132","","","post_mooney1_questions","survey-likert","29","282177","0.0-6.0-2.3","3278645","co40294","norming","","","{""curiosity"":6,""confidence"":2}","[0,1]","../img/tt/603tt.jpg","",""
"3501.9300000003423","","","recognition","survey-text","30","285680","0.0-6.0-3.3","3278645","co40294","norming","","","{""guess"":""monkey""}","","../img/tt/603tt.jpg","",""
"null","../img/gs/603gs.jpg","null","reveal","image-keyboard-response","31","287687","0.0-6.0-4.3","3278645","co40294","norming","","","","","","",""
"null","../img/tt/603tt.jpg","null","mooney2","image-keyboard-response","32","289689","0.0-6.0-5.3","3278645","co40294","norming","","","","","","",""
"2452.945000000007","","","post_reveal_questions","survey-likert","33","292144","0.0-6.0-6.3","3278645","co40294","norming","","","{""aha"":3}","[0]","../img/tt/603tt.jpg","",""
"null","<div style=""font-size:60px;""> </div>","null","fixation","html-keyboard-response","34","292348","0.0-6.0-0.4","3278645","co40294","norming","","","","","","",""
"null","../img/tt/1279tt.jpg","null","mooney1","image-keyboard-response","35","295358","0.0-6.0-1.4","3278645","co40294","norming","","","","","","",""
"6033.515000000072","","","post_mooney1_questions","survey-likert","36","301392","0.0-6.0-2.4","3278645","co40294","norming","","","{""curiosity"":5,""confidence"":1}","[0,1]","../img/tt/1279tt.jpg","",""
"8582.275000000664","","","recognition","survey-text","37","309979","0.0-6.0-3.4","3278645","co40294","norming","","","{""guess"":""cows""}","","../img/tt/1279tt.jpg","",""
"null","../img/gs/1279gs.jpg","null","reveal","image-keyboard-response","38","311981","0.0-6.0-4.4","3278645","co40294","norming","","","","","","",""
"null","../img/tt/1279tt.jpg","null","mooney2","image-keyboard-response","39","313995","0.0-6.0-5.4","3278645","co40294","norming","","","","","","",""
"2124.8349999996135","","","post_reveal_questions","survey-likert","40","316123","0.0-6.0-6.4","3278645","co40294","norming","","","{""aha"":4}","[0]","../img/tt/1279tt.jpg","",""
"null","<div style=""font-size:60px;""> </div>","null","fixation","html-keyboard-response","41","316324","0.0-6.0-0.5","3278645","co40294","norming","","","","","","",""
"null","../img/tt/031tt.jpg","null","mooney1","image-keyboard-response","42","319328","0.0-6.0-1.5","3278645","co40294","norming","","","","","","",""
"8328.080000000191","","","post_mooney1_questions","survey-likert","43","327659","0.0-6.0-2.5","3278645","co40294","norming","","","{""curiosity"":5,""confidence"":1}","[0,1]","../img/tt/031tt.jpg","",""
"2670.3150000002934","","","recognition","survey-text","44","330331","0.0-6.0-3.5","3278645","co40294","norming","","","{""guess"":""bear""}","","../img/tt/031tt.jpg","",""
"null","../img/gs/031gs.jpg","null","reveal","image-keyboard-response","45","332333","0.0-6.0-4.5","3278645","co40294","norming","","","","","","",""
"null","../img/tt/031tt.jpg","null","mooney2","image-keyboard-response","46","334342","0.0-6.0-5.5","3278645","co40294","norming","","","","","","",""
"4450.919999999343","","","post_reveal_questions","survey-likert","47","338795","0.0-6.0-6.5","3278645","co40294","norming","","","{""aha"":2}","[0]","../img/tt/031tt.jpg","",""
"null","<div style=""font-size:60px;""> </div>","null","fixation","html-keyboard-response","48","338997","0.0-6.0-0.6","3278645","co40294","norming","","","","","","",""
"null","../img/tt/380tt.jpg","null","mooney1","image-keyboard-response","49","342001","0.0-6.0-1.6","3278645","co40294","norming","","","","","","",""
"6678.854999999225","","","post_mooney1_questions","survey-likert","50","348683","0.0-6.0-2.6","3278645","co40294","norming","","","{""curiosity"":5,""confidence"":2}","[0,1]","../img/tt/380tt.jpg","",""
"3598.025000000198","","","recognition","survey-text","51","352282","0.0-6.0-3.6","3278645","co40294","norming","","","{""guess"":""mouse""}","","../img/tt/380tt.jpg","",""
"null","../img/gs/380gs.jpg","null","reveal","image-keyboard-response","52","354284","0.0-6.0-4.6","3278645","co40294","norming","","","","","","",""
"null","../img/tt/380tt.jpg","null","mooney2","image-keyboard-response","53","356285","0.0-6.0-5.6","3278645","co40294","norming","","","","","","",""
"3028.479999999923","","","post_reveal_questions","survey-likert","54","359315","0.0-6.0-6.6","3278645","co40294","norming","","","{""aha"":4}","[0]","../img/tt/380tt.jpg","",""
"null","<div style=""font-size:60px;""> </div>","null","fixation","html-keyboard-response","55","359517","0.0-6.0-0.7","3278645","co40294","norming","","","","","","",""
"null","../img/tt/1033tt.jpg","null","mooney1","image-keyboard-response","56","362520","0.0-6.0-1.7","3278645","co40294","norming","","","","","","",""
"6161.600000000384","","","post_mooney1_questions","survey-likert","57","368686","0.0-6.0-2.7","3278645","co40294","norming","","","{""curiosity"":5,""confidence"":0}","[0,1]","../img/tt/1033tt.jpg","",""
"7774.115000000165","","","recognition","survey-text","58","376462","0.0-6.0-3.7","3278645","co40294","norming","","","{""guess"":""/""}","","../img/tt/1033tt.jpg","",""
"null","../img/gs/1033gs.jpg","null","reveal","image-keyboard-response","59","378471","0.0-6.0-4.7","3278645","co40294","norming","","","","","","",""
"null","../img/tt/1033tt.jpg","null","mooney2","image-keyboard-response","60","380473","0.0-6.0-5.7","3278645","co40294","norming","","","","","","",""
"2210.1450000000186","","","post_reveal_questions","survey-likert","61","382686","0.0-6.0-6.7","3278645","co40294","norming","","","{""aha"":5}","[0]","../img/tt/1033tt.jpg","",""
"null","<div style=""font-size:60px;""> </div>","null","fixation","html-keyboard-response","62","382887","0.0-6.0-0.8","3278645","co40294","norming","","","","","","",""
"null","../img/tt/273tt.jpg","null","mooney1","image-keyboard-response","63","385889","0.0-6.0-1.8","3278645","co40294","norming","","","","","","",""
"6282.229999999807","","","post_mooney1_questions","survey-likert","64","392174","0.0-6.0-2.8","3278645","co40294","norming","","","{""curiosity"":1,""confidence"":6}","[0,1]","../img/tt/273tt.jpg","",""
"8294.360000000801","","","recognition","survey-text","65","400470","0.0-6.0-3.8","3278645","co40294","norming","","","{""guess"":""mouth""}","","../img/tt/273tt.jpg","",""
"null","../img/gs/273gs.jpg","null","reveal","image-keyboard-response","66","402472","0.0-6.0-4.8","3278645","co40294","norming","","","","","","",""
"null","../img/tt/273tt.jpg","null","mooney2","image-keyboard-response","67","404480","0.0-6.0-5.8","3278645","co40294","norming","","","","","","",""
"15307.099999999977","","","post_reveal_questions","survey-likert","68","419790","0.0-6.0-6.8","3278645","co40294","norming","","","{""aha"":1}","[0]","../img/tt/273tt.jpg","",""
"null","<div style=""font-size:60px;""> </div>","null","fixation","html-keyboard-response","69","419991","0.0-6.0-0.9","3278645","co40294","norming","","","","","","",""
"null","../img/tt/1101tt.jpg","null","mooney1","image-keyboard-response","70","423000","0.0-6.0-1.9","3278645","co40294","norming","","","","","","",""
"7828.654999999329","","","post_mooney1_questions","survey-likert","71","430829","0.0-6.0-2.9","3278645","co40294","norming","","","{""curiosity"":2,""confidence"":5}","[0,1]","../img/tt/1101tt.jpg","",""
"3758.0049999996554","","","recognition","survey-text","72","434589","0.0-6.0-3.9","3278645","co40294","norming","","","{""guess"":""person relaxing""}","","../img/tt/1101tt.jpg","",""
"null","../img/gs/1101gs.jpg","null","reveal","image-keyboard-response","73","436590","0.0-6.0-4.9","3278645","co40294","norming","","","","","","",""
"null","../img/tt/1101tt.jpg","null","mooney2","image-keyboard-response","74","438592","0.0-6.0-5.9","3278645","co40294","norming","","","","","","",""
"1283.1800000003423","","","post_reveal_questions","survey-likert","75","439877","0.0-6.0-6.9","3278645","co40294","norming","","","{""aha"":5}","[0]","../img/tt/1101tt.jpg","",""
"null","<div style=""font-size:60px;""> </div>","null","fixation","html-keyboard-response","76","440079","0.0-6.0-0.10","3278645","co40294","norming","","","","","","",""
"null","../img/tt/1307tt.jpg","null","mooney1","image-keyboard-response","77","443083","0.0-6.0-1.10","3278645","co40294","norming","","","","","","",""
"7431.839999999269","","","post_mooney1_questions","survey-likert","78","450517","0.0-6.0-2.10","3278645","co40294","norming","","","{""curiosity"":5,""confidence"":1}","[0,1]","../img/tt/1307tt.jpg","",""
"3972.9299999998766","","","recognition","survey-text","79","454492","0.0-6.0-3.10","3278645","co40294","norming","","","{""guess"":""painting""}","","../img/tt/1307tt.jpg","",""
"null","../img/gs/1307gs.jpg","null","reveal","image-keyboard-response","80","456494","0.0-6.0-4.10","3278645","co40294","norming","","","","","","",""
"null","../img/tt/1307tt.jpg","null","mooney2","image-keyboard-response","81","458505","0.0-6.0-5.10","3278645","co40294","norming","","","","","","",""
"1873.8549999998068","","","post_reveal_questions","survey-likert","82","460381","0.0-6.0-6.10","3278645","co40294","norming","","","{""aha"":4}","[0]","../img/tt/1307tt.jpg","",""
"null","<div style=""font-size:60px;""> </div>","null","fixation","html-keyboard-response","83","460582","0.0-6.0-0.11","3278645","co40294","norming","","","","","","",""
"null","../img/tt/1118tt.jpg","null","mooney1","image-keyboard-response","84","463592","0.0-6.0-1.11","3278645","co40294","norming","","","","","","",""
"4506.319999999541","","","post_mooney1_questions","survey-likert","85","468101","0.0-6.0-2.11","3278645","co40294","norming","","","{""curiosity"":4,""confidence"":2}","[0,1]","../img/tt/1118tt.jpg","",""
"942.0200000004261","","","recognition","survey-text","86","469045","0.0-6.0-3.11","3278645","co40294","norming","","","{""guess"":""car""}","","../img/tt/1118tt.jpg","",""
"null","../img/gs/1118gs.jpg","null","reveal","image-keyboard-response","87","471055","0.0-6.0-4.11","3278645","co40294","norming","","","","","","",""
"null","../img/tt/1118tt.jpg","null","mooney2","image-keyboard-response","88","473056","0.0-6.0-5.11","3278645","co40294","norming","","","","","","",""
"1482.4600000001374","","","post_reveal_questions","survey-likert","89","474541","0.0-6.0-6.11","3278645","co40294","norming","","","{""aha"":5}","[0]","../img/tt/1118tt.jpg","",""
"null","<div style=""font-size:60px;""> </div>","null","fixation","html-keyboard-response","90","474742","0.0-6.0-0.12","3278645","co40294","norming","","","","","","",""
"null","../img/tt/184tt.jpg","null","mooney1","image-keyboard-response","91","477752","0.0-6.0-1.12","3278645","co40294","norming","","","","","","",""
"6425.900000000198","","","post_mooney1_questions","survey-likert","92","484181","0.0-6.0-2.12","3278645","co40294","norming","","","{""curiosity"":4,""confidence"":1}","[0,1]","../img/tt/184tt.jpg","",""
"5919.179999999877","","","recognition","survey-text","93","490097","0.0-6.0-3.12","3278645","co40294","norming","","","{""guess"":""landscape""}","","../img/tt/184tt.jpg","",""
"null","../img/gs/184gs.jpg","null","reveal","image-keyboard-response","94","492100","0.0-6.0-4.12","3278645","co40294","norming","","","","","","",""
"null","../img/tt/184tt.jpg","null","mooney2","image-keyboard-response","95","494110","0.0-6.0-5.12","3278645","co40294","norming","","","","","","",""
"1936.3399999993271","","","post_reveal_questions","survey-likert","96","496048","0.0-6.0-6.12","3278645","co40294","norming","","","{""aha"":5}","[0]","../img/tt/184tt.jpg","",""
"null","<div style=""font-size:60px;""> </div>","null","fixation","html-keyboard-response","97","496257","0.0-6.0-0.13","3278645","co40294","norming","","","","","","",""
"null","../img/tt/1196tt.jpg","null","mooney1","image-keyboard-response","98","499266","0.0-6.0-1.13","3278645","co40294","norming","","","","","","",""
"6971.534999999683","","","post_mooney1_questions","survey-likert","99","506240","0.0-6.0-2.13","3278645","co40294","norming","","","{""curiosity"":4,""confidence"":4}","[0,1]","../img/tt/1196tt.jpg","",""
"3101.8450000001467","","","recognition","survey-text","100","509344","0.0-6.0-3.13","3278645","co40294","norming","","","{""guess"":""movie theater""}","","../img/tt/1196tt.jpg","",""
"null","../img/gs/1196gs.jpg","null","reveal","image-keyboard-response","101","511345","0.0-6.0-4.13","3278645","co40294","norming","","","","","","",""
"null","../img/tt/1196tt.jpg","null","mooney2","image-keyboard-response","102","513347","0.0-6.0-5.13","3278645","co40294","norming","","","","","","",""
"1442.5899999996764","","","post_reveal_questions","survey-likert","103","514792","0.0-6.0-6.13","3278645","co40294","norming","","","{""aha"":6}","[0]","../img/tt/1196tt.jpg","",""
"null","<div style=""font-size:60px;""> </div>","null","fixation","html-keyboard-response","104","514994","0.0-6.0-0.14","3278645","co40294","norming","","","","","","",""
"null","../img/tt/442tt.jpg","null","mooney1","image-keyboard-response","105","518005","0.0-6.0-1.14","3278645","co40294","norming","","","","","","",""
"5952.750000000407","","","post_mooney1_questions","survey-likert","106","523960","0.0-6.0-2.14","3278645","co40294","norming","","","{""curiosity"":5,""confidence"":0}","[0,1]","../img/tt/442tt.jpg","",""
"2438.175000000163","","","recognition","survey-text","107","526400","0.0-6.0-3.14","3278645","co40294","norming","","","{""guess"":"".""}","","../img/tt/442tt.jpg","",""
"null","../img/gs/442gs.jpg","null","reveal","image-keyboard-response","108","528408","0.0-6.0-4.14","3278645","co40294","norming","","","","","","",""
"null","../img/tt/442tt.jpg","null","mooney2","image-keyboard-response","109","530409","0.0-6.0-5.14","3278645","co40294","norming","","","","","","",""
"1628.244999999879","","","post_reveal_questions","survey-likert","110","532040","0.0-6.0-6.14","3278645","co40294","norming","","","{""aha"":4}","[0]","../img/tt/442tt.jpg","",""
"null","<div style=""font-size:60px;""> </div>","null","fixation","html-keyboard-response","111","532242","0.0-6.0-0.15","3278645","co40294","norming","","","","","","",""
"null","../img/tt/1089tt.jpg","null","mooney1","image-keyboard-response","112","535248","0.0-6.0-1.15","3278645","co40294","norming","","","","","","",""
"8213.38500000001","","","post_mooney1_questions","survey-likert","113","543464","0.0-6.0-2.15","3278645","co40294","norming","","","{""curiosity"":6,""confidence"":3}","[0,1]","../img/tt/1089tt.jpg","",""
"4606.200000000186","","","recognition","survey-text","114","548072","0.0-6.0-3.15","3278645","co40294","norming","","","{""guess"":""traffic jam""}","","../img/tt/1089tt.jpg","",""
"null","../img/gs/1089gs.jpg","null","reveal","image-keyboard-response","115","550091","0.0-6.0-4.15","3278645","co40294","norming","","","","","","",""
"null","../img/tt/1089tt.jpg","null","mooney2","image-keyboard-response","116","552092","0.0-6.0-5.15","3278645","co40294","norming","","","","","","",""
"3154.4899999999907","","","post_reveal_questions","survey-likert","117","555248","0.0-6.0-6.15","3278645","co40294","norming","","","{""aha"":5}","[0]","../img/tt/1089tt.jpg","",""
"null","<div style=""font-size:60px;""> </div>","null","fixation","html-keyboard-response","118","555451","0.0-6.0-0.16","3278645","co40294","norming","","","","","","",""
"null","../img/tt/1235tt.jpg","null","mooney1","image-keyboard-response","119","558457","0.0-6.0-1.16","3278645","co40294","norming","","","","","","",""
"8476.51999999932","","","post_mooney1_questions","survey-likert","120","566937","0.0-6.0-2.16","3278645","co40294","norming","","","{""curiosity"":5,""confidence"":1}","[0,1]","../img/tt/1235tt.jpg","",""
"3334.305000000284","","","recognition","survey-text","121","570272","0.0-6.0-3.16","3278645","co40294","norming","","","{""guess"":""gorilla""}","","../img/tt/1235tt.jpg","",""
"null","../img/gs/1235gs.jpg","null","reveal","image-keyboard-response","122","572280","0.0-6.0-4.16","3278645","co40294","norming","","","","","","",""
"null","../img/tt/1235tt.jpg","null","mooney2","image-keyboard-response","123","574285","0.0-6.0-5.16","3278645","co40294","norming","","","","","","",""
"4872.940000000177","","","post_reveal_questions","survey-likert","124","579160","0.0-6.0-6.16","3278645","co40294","norming","","","{""aha"":4}","[0]","../img/tt/1235tt.jpg","",""
"null","<div style=""font-size:60px;""> </div>","null","fixation","html-keyboard-response","125","579368","0.0-6.0-0.17","3278645","co40294","norming","","","","","","",""
"null","../img/tt/108tt.jpg","null","mooney1","image-keyboard-response","126","582373","0.0-6.0-1.17","3278645","co40294","norming","","","","","","",""
"4345.155000000028","","","post_mooney1_questions","survey-likert","127","586721","0.0-6.0-2.17","3278645","co40294","norming","","","{""curiosity"":4,""confidence"":1}","[0,1]","../img/tt/108tt.jpg","",""
"1918.1749999998137","","","recognition","survey-text","128","588640","0.0-6.0-3.17","3278645","co40294","norming","","","{""guess"":"".""}","","../img/tt/108tt.jpg","",""
"null","../img/gs/108gs.jpg","null","reveal","image-keyboard-response","129","590648","0.0-6.0-4.17","3278645","co40294","norming","","","","","","",""
"null","../img/tt/108tt.jpg","null","mooney2","image-keyboard-response","130","592650","0.0-6.0-5.17","3278645","co40294","norming","","","","","","",""
"4060.3899999996647","","","post_reveal_questions","survey-likert","131","596712","0.0-6.0-6.17","3278645","co40294","norming","","","{""aha"":6}","[0]","../img/tt/108tt.jpg","",""
"null","<div style=""font-size:60px;""> </div>","null","fixation","html-keyboard-response","132","596921","0.0-6.0-0.18","3278645","co40294","norming","","","","","","",""
"null","../img/tt/329tt.jpg","null","mooney1","image-keyboard-response","133","599924","0.0-6.0-1.18","3278645","co40294","norming","","","","","","",""
"7866.070000000065","","","post_mooney1_questions","survey-likert","134","607793","0.0-6.0-2.18","3278645","co40294","norming","","","{""curiosity"":5,""confidence"":2}","[0,1]","../img/tt/329tt.jpg","",""
"2318.1750000002794","","","recognition","survey-text","135","610108","0.0-6.0-3.18","3278645","co40294","norming","","","{""guess"":""person relacing""}","","../img/tt/329tt.jpg","",""
"null","../img/gs/329gs.jpg","null","reveal","image-keyboard-response","136","612116","0.0-6.0-4.18","3278645","co40294","norming","","","","","","",""
"null","../img/tt/329tt.jpg","null","mooney2","image-keyboard-response","137","614118","0.0-6.0-5.18","3278645","co40294","norming","","","","","","",""
"2579.7300000003306","","","post_reveal_questions","survey-likert","138","616700","0.0-6.0-6.18","3278645","co40294","norming","","","{""aha"":5}","[0]","../img/tt/329tt.jpg","",""
"null","<div style=""font-size:60px;""> </div>","null","fixation","html-keyboard-response","139","616901","0.0-6.0-0.19","3278645","co40294","norming","","","","","","",""
"null","../img/tt/1199tt.jpg","null","mooney1","image-keyboard-response","140","619904","0.0-6.0-1.19","3278645","co40294","norming","","","","","","",""
"4881.3950000002515","","","post_mooney1_questions","survey-likert","141","624788","0.0-6.0-2.19","3278645","co40294","norming","","","{""curiosity"":5,""confidence"":2}","[0,1]","../img/tt/1199tt.jpg","",""
"4486.264999999548","","","recognition","survey-text","142","629276","0.0-6.0-3.19","3278645","co40294","norming","","","{""guess"":""chauffeur""}","","../img/tt/1199tt.jpg","",""
"null","../img/gs/1199gs.jpg","null","reveal","image-keyboard-response","143","631283","0.0-6.0-4.19","3278645","co40294","norming","","","","","","",""
"null","../img/tt/1199tt.jpg","null","mooney2","image-keyboard-response","144","633285","0.0-6.0-5.19","3278645","co40294","norming","","","","","","",""
"1421.2400000005728","","","post_reveal_questions","survey-likert","145","634708","0.0-6.0-6.19","3278645","co40294","norming","","","{""aha"":5}","[0]","../img/tt/1199tt.jpg","",""
"null","<div style=""font-size:60px;""> </div>","null","fixation","html-keyboard-response","146","634913","0.0-6.0-0.20","3278645","co40294","norming","","","","","","",""
"null","../img/tt/1224tt.jpg","null","mooney1","image-keyboard-response","147","637919","0.0-6.0-1.20","3278645","co40294","norming","","","","","","",""
"4001.999999999418","","","post_mooney1_questions","survey-likert","148","641924","0.0-6.0-2.20","3278645","co40294","norming","","","{""curiosity"":5,""confidence"":1}","[0,1]","../img/tt/1224tt.jpg","",""
"3350.080000000191","","","recognition","survey-text","149","645276","0.0-6.0-3.20","3278645","co40294","norming","","","{""guess"":""person dining""}","","../img/tt/1224tt.jpg","",""
"null","../img/gs/1224gs.jpg","null","reveal","image-keyboard-response","150","647280","0.0-6.0-4.20","3278645","co40294","norming","","","","","","",""
"null","../img/tt/1224tt.jpg","null","mooney2","image-keyboard-response","151","649284","0.0-6.0-5.20","3278645","co40294","norming","","","","","","",""
"3221.999999999767","","","post_reveal_questions","survey-likert","152","652508","0.0-6.0-6.20","3278645","co40294","norming","","","{""aha"":5}","[0]","../img/tt/1224tt.jpg","",""
"null","<div style=""font-size:60px;""> </div>","null","fixation","html-keyboard-response","153","652715","0.0-6.0-0.21","3278645","co40294","norming","","","","","","",""
"null","../img/tt/584tt.jpg","null","mooney1","image-keyboard-response","154","655723","0.0-6.0-1.21","3278645","co40294","norming","","","","","","",""
"6558.650000000023","","","post_mooney1_questions","survey-likert","155","662284","0.0-6.0-2.21","3278645","co40294","norming","","","{""curiosity"":4,""confidence"":3}","[0,1]","../img/tt/584tt.jpg","",""
"17630.015000000712","","","recognition","survey-text","156","679921","0.0-6.0-3.21","3278645","co40294","norming","","","{""guess"":""scissors""}","","../img/tt/584tt.jpg","",""
"null","../img/gs/584gs.jpg","null","reveal","image-keyboard-response","157","681923","0.0-6.0-4.21","3278645","co40294","norming","","","","","","",""
"null","../img/tt/584tt.jpg","null","mooney2","image-keyboard-response","158","683925","0.0-6.0-5.21","3278645","co40294","norming","","","","","","",""
"2481.9349999997066","","","post_reveal_questions","survey-likert","159","686409","0.0-6.0-6.21","3278645","co40294","norming","","","{""aha"":2}","[0]","../img/tt/584tt.jpg","",""
"null","<div style=""font-size:60px;""> </div>","null","fixation","html-keyboard-response","160","686610","0.0-6.0-0.22","3278645","co40294","norming","","","","","","",""
"null","../img/tt/126tt.jpg","null","mooney1","image-keyboard-response","161","689615","0.0-6.0-1.22","3278645","co40294","norming","","","","","","",""
"5095.500000000349","","","post_mooney1_questions","survey-likert","162","694713","0.0-6.0-2.22","3278645","co40294","norming","","","{""curiosity"":5,""confidence"":1}","[0,1]","../img/tt/126tt.jpg","",""
"2486.394999999786","","","recognition","survey-text","163","697201","0.0-6.0-3.22","3278645","co40294","norming","","","{""guess"":""desert""}","","../img/tt/126tt.jpg","",""
"null","../img/gs/126gs.jpg","null","reveal","image-keyboard-response","164","699204","0.0-6.0-4.22","3278645","co40294","norming","","","","","","",""
"null","../img/tt/126tt.jpg","null","mooney2","image-keyboard-response","165","701214","0.0-6.0-5.22","3278645","co40294","norming","","","","","","",""
"2041.034999999334","","","post_reveal_questions","survey-likert","166","703257","0.0-6.0-6.22","3278645","co40294","norming","","","{""aha"":4}","[0]","../img/tt/126tt.jpg","",""
"null","<div style=""font-size:60px;""> </div>","null","fixation","html-keyboard-response","167","703459","0.0-6.0-0.23","3278645","co40294","norming","","","","","","",""
"null","../img/tt/306tt.jpg","null","mooney1","image-keyboard-response","168","706460","0.0-6.0-1.23","3278645","co40294","norming","","","","","","",""
"5258.039999999688","","","post_mooney1_questions","survey-likert","169","711721","0.0-6.0-2.23","3278645","co40294","norming","","","{""curiosity"":4,""confidence"":1}","[0,1]","../img/tt/306tt.jpg","",""
"1046.13499999966","","","recognition","survey-text","170","712769","0.0-6.0-3.23","3278645","co40294","norming","","","{""guess"":""frog""}","","../img/tt/306tt.jpg","",""
"null","../img/gs/306gs.jpg","null","reveal","image-keyboard-response","171","714770","0.0-6.0-4.23","3278645","co40294","norming","","","","","","",""
"null","../img/tt/306tt.jpg","null","mooney2","image-keyboard-response","172","716773","0.0-6.0-5.23","3278645","co40294","norming","","","","","","",""
"1401.3199999999488","","","post_reveal_questions","survey-likert","173","718177","0.0-6.0-6.23","3278645","co40294","norming","","","{""aha"":6}","[0]","../img/tt/306tt.jpg","",""
"null","<div style=""font-size:60px;""> </div>","null","fixation","html-keyboard-response","174","718378","0.0-6.0-0.24","3278645","co40294","norming","","","","","","",""
"null","../img/tt/552tt.jpg","null","mooney1","image-keyboard-response","175","721382","0.0-6.0-1.24","3278645","co40294","norming","","","","","","",""
"4265.250000000349","","","post_mooney1_questions","survey-likert","176","725649","0.0-6.0-2.24","3278645","co40294","norming","","","{""curiosity"":4,""confidence"":2}","[0,1]","../img/tt/552tt.jpg","",""
"4118.285000000498","","","recognition","survey-text","177","729769","0.0-6.0-3.24","3278645","co40294","norming","","","{""guess"":""butterfly""}","","../img/tt/552tt.jpg","",""
"null","../img/gs/552gs.jpg","null","reveal","image-keyboard-response","178","731773","0.0-6.0-4.24","3278645","co40294","norming","","","","","","",""
"null","../img/tt/552tt.jpg","null","mooney2","image-keyboard-response","179","733775","0.0-6.0-5.24","3278645","co40294","norming","","","","","","",""
"3038.3750000001164","","","post_reveal_questions","survey-likert","180","736817","0.0-6.0-6.24","3278645","co40294","norming","","","{""aha"":4}","[0]","../img/tt/552tt.jpg","",""
"null","<div style=""font-size:60px;""> </div>","null","fixation","html-keyboard-response","181","737018","0.0-6.0-0.25","3278645","co40294","norming","","","","","","",""
"null","../img/tt/020tt.jpg","null","mooney1","image-keyboard-response","182","740025","0.0-6.0-1.25","3278645","co40294","norming","","","","","","",""
"7428.89999999979","","","post_mooney1_questions","survey-likert","183","747457","0.0-6.0-2.25","3278645","co40294","norming","","","{""curiosity"":5,""confidence"":0}","[0,1]","../img/tt/020tt.jpg","",""
"1949.7650000002468","","","recognition","survey-text","184","749409","0.0-6.0-3.25","3278645","co40294","norming","","","{""guess"":""cliff""}","","../img/tt/020tt.jpg","",""
"null","../img/gs/020gs.jpg","null","reveal","image-keyboard-response","185","751417","0.0-6.0-4.25","3278645","co40294","norming","","","","","","",""
"null","../img/tt/020tt.jpg","null","mooney2","image-keyboard-response","186","753417","0.0-6.0-5.25","3278645","co40294","norming","","","","","","",""
"2422.864999999525","","","post_reveal_questions","survey-likert","187","755841","0.0-6.0-6.25","3278645","co40294","norming","","","{""aha"":3}","[0]","../img/tt/020tt.jpg","",""
"null","<div style=""font-size:60px;""> </div>","null","fixation","html-keyboard-response","188","756042","0.0-6.0-0.26","3278645","co40294","norming","","","","","","",""
"null","../img/tt/301tt.jpg","null","mooney1","image-keyboard-response","189","759050","0.0-6.0-1.26","3278645","co40294","norming","","","","","","",""
"4892.394999999902","","","post_mooney1_questions","survey-likert","190","763945","0.0-6.0-2.26","3278645","co40294","norming","","","{""curiosity"":4,""confidence"":1}","[0,1]","../img/tt/301tt.jpg","",""
"1366.2599999997765","","","recognition","survey-text","191","765313","0.0-6.0-3.26","3278645","co40294","norming","","","{""guess"":""room""}","","../img/tt/301tt.jpg","",""
"null","../img/gs/301gs.jpg","null","reveal","image-keyboard-response","192","767320","0.0-6.0-4.26","3278645","co40294","norming","","","","","","",""
"null","../img/tt/301tt.jpg","null","mooney2","image-keyboard-response","193","769322","0.0-6.0-5.26","3278645","co40294","norming","","","","","","",""
"3708.359999999637","","","post_reveal_questions","survey-likert","194","773033","0.0-6.0-6.26","3278645","co40294","norming","","","{""aha"":5}","[0]","../img/tt/301tt.jpg","",""
"null","<div style=""font-size:60px;""> </div>","null","fixation","html-keyboard-response","195","773234","0.0-6.0-0.27","3278645","co40294","norming","","","","","","",""
"null","../img/tt/270tt.jpg","null","mooney1","image-keyboard-response","196","776240","0.0-6.0-1.27","3278645","co40294","norming","","","","","","",""
"8526.494999999995","","","post_mooney1_questions","survey-likert","197","784769","0.0-6.0-2.27","3278645","co40294","norming","","","{""curiosity"":6,""confidence"":1}","[0,1]","../img/tt/270tt.jpg","",""
"14926.005000000237","","","recognition","survey-text","198","799688","0.0-6.0-3.27","3278645","co40294","norming","","","{""guess"":""stokstaartjes""}","","../img/tt/270tt.jpg","",""
"null","../img/gs/270gs.jpg","null","reveal","image-keyboard-response","199","801698","0.0-6.0-4.27","3278645","co40294","norming","","","","","","",""
"null","../img/tt/270tt.jpg","null","mooney2","image-keyboard-response","200","803708","0.0-6.0-5.27","3278645","co40294","norming","","","","","","",""
"2650.055000000051","","","post_reveal_questions","survey-likert","201","806361","0.0-6.0-6.27","3278645","co40294","norming","","","{""aha"":4}","[0]","../img/tt/270tt.jpg","",""
"null","<div style=""font-size:60px;""> </div>","null","fixation","html-keyboard-response","202","806568","0.0-6.0-0.28","3278645","co40294","norming","","","","","","",""
"null","../img/tt/1227tt.jpg","null","mooney1","image-keyboard-response","203","809571","0.0-6.0-1.28","3278645","co40294","norming","","","","","","",""
"3842.8200000007637","","","post_mooney1_questions","survey-likert","204","813417","0.0-6.0-2.28","3278645","co40294","norming","","","{""curiosity"":5,""confidence"":1}","[0,1]","../img/tt/1227tt.jpg","",""
"3102.300000000396","","","recognition","survey-text","205","816521","0.0-6.0-3.28","3278645","co40294","norming","","","{""guess"":""landscape""}","","../img/tt/1227tt.jpg","",""
"null","../img/gs/1227gs.jpg","null","reveal","image-keyboard-response","206","818528","0.0-6.0-4.28","3278645","co40294","norming","","","","","","",""
"null","../img/tt/1227tt.jpg","null","mooney2","image-keyboard-response","207","820533","0.0-6.0-5.28","3278645","co40294","norming","","","","","","",""
"2689.3700000001118","","","post_reveal_questions","survey-likert","208","823224","0.0-6.0-6.28","3278645","co40294","norming","","","{""aha"":2}","[0]","../img/tt/1227tt.jpg","",""
"null","<div style=""font-size:60px;""> </div>","null","fixation","html-keyboard-response","209","823427","0.0-6.0-0.29","3278645","co40294","norming","","","","","","",""
"null","../img/tt/194tt.jpg","null","mooney1","image-keyboard-response","210","826429","0.0-6.0-1.29","3278645","co40294","norming","","","","","","",""
"7329.649999999674","","","post_mooney1_questions","survey-likert","211","833761","0.0-6.0-2.29","3278645","co40294","norming","","","{""curiosity"":4,""confidence"":5}","[0,1]","../img/tt/194tt.jpg","",""
"9669.585000000545","","","recognition","survey-text","212","843432","0.0-6.0-3.29","3278645","co40294","norming","","","{""guess"":""woman/ instrument""}","","../img/tt/194tt.jpg","",""
"null","../img/gs/194gs.jpg","null","reveal","image-keyboard-response","213","845433","0.0-6.0-4.29","3278645","co40294","norming","","","","","","",""
"null","../img/tt/194tt.jpg","null","mooney2","image-keyboard-response","214","847438","0.0-6.0-5.29","3278645","co40294","norming","","","","","","",""
"4921.099999999511","","","post_reveal_questions","survey-likert","215","852361","0.0-6.0-6.29","3278645","co40294","norming","","","{""aha"":0}","[0]","../img/tt/194tt.jpg","",""
"null","<div style=""font-size:60px;""> </div>","null","fixation","html-keyboard-response","216","852562","0.0-6.0-0.30","3278645","co40294","norming","","","","","","",""
"null","../img/tt/378tt.jpg","null","mooney1","image-keyboard-response","217","855571","0.0-6.0-1.30","3278645","co40294","norming","","","","","","",""
"5028.339999999851","","","post_mooney1_questions","survey-likert","218","860602","0.0-6.0-2.30","3278645","co40294","norming","","","{""curiosity"":5,""confidence"":1}","[0,1]","../img/tt/378tt.jpg","",""
"3022.184999999823","","","recognition","survey-text","219","863626","0.0-6.0-3.30","3278645","co40294","norming","","","{""guess"":""skunk""}","","../img/tt/378tt.jpg","",""
"null","../img/gs/378gs.jpg","null","reveal","image-keyboard-response","220","865635","0.0-6.0-4.30","3278645","co40294","norming","","","","","","",""
"null","../img/tt/378tt.jpg","null","mooney2","image-keyboard-response","221","867637","0.0-6.0-5.30","3278645","co40294","norming","","","","","","",""
"2947.2949999999255","","","post_reveal_questions","survey-likert","222","870585","0.0-6.0-6.30","3278645","co40294","norming","","","{""aha"":5}","[0]","../img/tt/378tt.jpg","",""
"null","<div style=""font-size:60px;""> </div>","null","fixation","html-keyboard-response","223","870786","0.0-6.0-0.31","3278645","co40294","norming","","","","","","",""
"null","../img/tt/1066tt.jpg","null","mooney1","image-keyboard-response","224","873791","0.0-6.0-1.31","3278645","co40294","norming","","","","","","",""
"4744.329999999609","","","post_mooney1_questions","survey-likert","225","878538","0.0-6.0-2.31","3278645","co40294","norming","","","{""curiosity"":1,""confidence"":6}","[0,1]","../img/tt/1066tt.jpg","",""
"4181.945000000298","","","recognition","survey-text","226","882721","0.0-6.0-3.31","3278645","co40294","norming","","","{""guess"":""bus/ street""}","","../img/tt/1066tt.jpg","",""
"null","../img/gs/1066gs.jpg","null","reveal","image-keyboard-response","227","884731","0.0-6.0-4.31","3278645","co40294","norming","","","","","","",""
"null","../img/tt/1066tt.jpg","null","mooney2","image-keyboard-response","228","886736","0.0-6.0-5.31","3278645","co40294","norming","","","","","","",""
"1095.3349999999627","","","post_reveal_questions","survey-likert","229","887833","0.0-6.0-6.31","3278645","co40294","norming","","","{""aha"":0}","[0]","../img/tt/1066tt.jpg","",""
"null","<div style=""font-size:60px;""> </div>","null","fixation","html-keyboard-response","230","888035","0.0-6.0-0.32","3278645","co40294","norming","","","","","","",""
"null","../img/tt/049tt.jpg","null","mooney1","image-keyboard-response","231","891038","0.0-6.0-1.32","3278645","co40294","norming","","","","","","",""
"2775.760000000475","","","post_mooney1_questions","survey-likert","232","893818","0.0-6.0-2.32","3278645","co40294","norming","","","{""curiosity"":5,""confidence"":1}","[0,1]","../img/tt/049tt.jpg","",""
"2286.264999999781","","","recognition","survey-text","233","896106","0.0-6.0-3.32","3278645","co40294","norming","","","{""guess"":""armadillo""}","","../img/tt/049tt.jpg","",""
"null","../img/gs/049gs.jpg","null","reveal","image-keyboard-response","234","898107","0.0-6.0-4.32","3278645","co40294","norming","","","","","","",""
"null","../img/tt/049tt.jpg","null","mooney2","image-keyboard-response","235","900109","0.0-6.0-5.32","3278645","co40294","norming","","","","","","",""
"1650.1599999992177","","","post_reveal_questions","survey-likert","236","901762","0.0-6.0-6.32","3278645","co40294","norming","","","{""aha"":4}","[0]","../img/tt/049tt.jpg","",""
"null","<div style=""font-size:60px;""> </div>","null","fixation","html-keyboard-response","237","901963","0.0-6.0-0.33","3278645","co40294","norming","","","","","","",""
"null","../img/tt/1091tt.jpg","null","mooney1","image-keyboard-response","238","904968","0.0-6.0-1.33","3278645","co40294","norming","","","","","","",""
"3366.25","","","post_mooney1_questions","survey-likert","239","908338","0.0-6.0-2.33","3278645","co40294","norming","","","{""curiosity"":2,""confidence"":6}","[0,1]","../img/tt/1091tt.jpg","",""
"3718.045000000624","","","recognition","survey-text","240","912063","0.0-6.0-3.33","3278645","co40294","norming","","","{""guess"":""horse/ fence""}","","../img/tt/1091tt.jpg","",""
"null","../img/gs/1091gs.jpg","null","reveal","image-keyboard-response","241","914066","0.0-6.0-4.33","3278645","co40294","norming","","","","","","",""
"null","../img/tt/1091tt.jpg","null","mooney2","image-keyboard-response","242","916075","0.0-6.0-5.33","3278645","co40294","norming","","","","","","",""
"1841.6799999995856","","","post_reveal_questions","survey-likert","243","917919","0.0-6.0-6.33","3278645","co40294","norming","","","{""aha"":3}","[0]","../img/tt/1091tt.jpg","",""
"null","<div style=""font-size:60px;""> </div>","null","fixation","html-keyboard-response","244","918120","0.0-6.0-0.34","3278645","co40294","norming","","","","","","",""
"null","../img/tt/1175tt.jpg","null","mooney1","image-keyboard-response","245","921130","0.0-6.0-1.34","3278645","co40294","norming","","","","","","",""
"5266.090000000084","","","post_mooney1_questions","survey-likert","246","926399","0.0-6.0-2.34","3278645","co40294","norming","","","{""curiosity"":5,""confidence"":4}","[0,1]","../img/tt/1175tt.jpg","",""
"4157.724999999977","","","recognition","survey-text","247","930559","0.0-6.0-3.34","3278645","co40294","norming","","","{""guess"":""crowd of people""}","","../img/tt/1175tt.jpg","",""
"null","../img/gs/1175gs.jpg","null","reveal","image-keyboard-response","248","932565","0.0-6.0-4.34","3278645","co40294","norming","","","","","","",""
"null","../img/tt/1175tt.jpg","null","mooney2","image-keyboard-response","249","934576","0.0-6.0-5.34","3278645","co40294","norming","","","","","","",""
"1941.8750000004657","","","post_reveal_questions","survey-likert","250","936519","0.0-6.0-6.34","3278645","co40294","norming","","","{""aha"":4}","[0]","../img/tt/1175tt.jpg","",""
"null","<div style=""font-size:60px;""> </div>","null","fixation","html-keyboard-response","251","936721","0.0-6.0-0.35","3278645","co40294","norming","","","","","","",""
"null","../img/tt/1228tt.jpg","null","mooney1","image-keyboard-response","252","939725","0.0-6.0-1.35","3278645","co40294","norming","","","","","","",""
"3567.0550000004005","","","post_mooney1_questions","survey-likert","253","943295","0.0-6.0-2.35","3278645","co40294","norming","","","{""curiosity"":5,""confidence"":1}","[0,1]","../img/tt/1228tt.jpg","",""
"29733.94000000006","","","recognition","survey-text","254","973034","0.0-6.0-3.35","3278645","co40294","norming","","","{""guess"":""pond/ flamingo""}","","../img/tt/1228tt.jpg","",""
"null","../img/gs/1228gs.jpg","null","reveal","image-keyboard-response","255","975036","0.0-6.0-4.35","3278645","co40294","norming","","","","","","",""
"null","../img/tt/1228tt.jpg","null","mooney2","image-keyboard-response","256","977039","0.0-6.0-5.35","3278645","co40294","norming","","","","","","",""
"1209.1799999998184","","","post_reveal_questions","survey-likert","257","978250","0.0-6.0-6.35","3278645","co40294","norming","","","{""aha"":4}","[0]","../img/tt/1228tt.jpg","",""
"null","<div style=""font-size:60px;""> </div>","null","fixation","html-keyboard-response","258","978452","0.0-6.0-0.36","3278645","co40294","norming","","","","","","",""
"null","../img/tt/1234tt.jpg","null","mooney1","image-keyboard-response","259","981459","0.0-6.0-1.36","3278645","co40294","norming","","","","","","",""
"5685.824999999604","","","post_mooney1_questions","survey-likert","260","987146","0.0-6.0-2.36","3278645","co40294","norming","","","{""curiosity"":5,""confidence"":1}","[0,1]","../img/tt/1234tt.jpg","",""
"4870.190000000526","","","recognition","survey-text","261","992018","0.0-6.0-3.36","3278645","co40294","norming","","","{""guess"":""cliff/ gorilla""}","","../img/tt/1234tt.jpg","",""
"null","../img/gs/1234gs.jpg","null","reveal","image-keyboard-response","262","994028","0.0-6.0-4.36","3278645","co40294","norming","","","","","","",""
"null","../img/tt/1234tt.jpg","null","mooney2","image-keyboard-response","263","996031","0.0-6.0-5.36","3278645","co40294","norming","","","","","","",""
"1776.8549999999814","","","post_reveal_questions","survey-likert","264","997810","0.0-6.0-6.36","3278645","co40294","norming","","","{""aha"":3}","[0]","../img/tt/1234tt.jpg","",""
"null","<div style=""font-size:60px;""> </div>","null","fixation","html-keyboard-response","265","998012","0.0-6.0-0.37","3278645","co40294","norming","","","","","","",""
"null","../img/tt/1102tt.jpg","null","mooney1","image-keyboard-response","266","1001013","0.0-6.0-1.37","3278645","co40294","norming","","","","","","",""
"5322.47499999986","","","post_mooney1_questions","survey-likert","267","1006339","0.0-6.0-2.37","3278645","co40294","norming","","","{""curiosity"":5,""confidence"":4}","[0,1]","../img/tt/1102tt.jpg","",""
"3117.5949999997392","","","recognition","survey-text","268","1009458","0.0-6.0-3.37","3278645","co40294","norming","","","{""guess"":""crocodile""}","","../img/tt/1102tt.jpg","",""
"null","../img/gs/1102gs.jpg","null","reveal","image-keyboard-response","269","1011461","0.0-6.0-4.37","3278645","co40294","norming","","","","","","",""
"null","../img/tt/1102tt.jpg","null","mooney2","image-keyboard-response","270","1013462","0.0-6.0-5.37","3278645","co40294","norming","","","","","","",""
"1667.2400000006892","","","post_reveal_questions","survey-likert","271","1015130","0.0-6.0-6.37","3278645","co40294","norming","","","{""aha"":5}","[0]","../img/tt/1102tt.jpg","",""
"null","<div style=""font-size:60px;""> </div>","null","fixation","html-keyboard-response","272","1015336","0.0-6.0-0.38","3278645","co40294","norming","","","","","","",""
"null","../img/tt/1123tt.jpg","null","mooney1","image-keyboard-response","273","1018348","0.0-6.0-1.38","3278645","co40294","norming","","","","","","",""
"4547.859999999637","","","post_mooney1_questions","survey-likert","274","1022898","0.0-6.0-2.38","3278645","co40294","norming","","","{""curiosity"":4,""confidence"":2}","[0,1]","../img/tt/1123tt.jpg","",""
"9166.054999999702","","","recognition","survey-text","275","1032062","0.0-6.0-3.38","3278645","co40294","norming","","","{""guess"":""soccer/ field""}","","../img/tt/1123tt.jpg","",""
"null","../img/gs/1123gs.jpg","null","reveal","image-keyboard-response","276","1034063","0.0-6.0-4.38","3278645","co40294","norming","","","","","","",""
"null","../img/tt/1123tt.jpg","null","mooney2","image-keyboard-response","277","1036071","0.0-6.0-5.38","3278645","co40294","norming","","","","","","",""
"4356.414999999339","","","post_reveal_questions","survey-likert","278","1040430","0.0-6.0-6.38","3278645","co40294","norming","","","{""aha"":6}","[0]","../img/tt/1123tt.jpg","",""
"null","<div style=""font-size:60px;""> </div>","null","fixation","html-keyboard-response","279","1040631","0.0-6.0-0.39","3278645","co40294","norming","","","","","","",""
"null","../img/tt/052tt.jpg","null","mooney1","image-keyboard-response","280","1043639","0.0-6.0-1.39","3278645","co40294","norming","","","","","","",""
"8771.91999999911","","","post_mooney1_questions","survey-likert","281","1052414","0.0-6.0-2.39","3278645","co40294","norming","","","{""curiosity"":5,""confidence"":2}","[0,1]","../img/tt/052tt.jpg","",""
"5181.845000000205","","","recognition","survey-text","282","1057598","0.0-6.0-3.39","3278645","co40294","norming","","","{""guess"":""pastry/ food""}","","../img/tt/052tt.jpg","",""
"null","../img/gs/052gs.jpg","null","reveal","image-keyboard-response","283","1059607","0.0-6.0-4.39","3278645","co40294","norming","","","","","","",""
"null","../img/tt/052tt.jpg","null","mooney2","image-keyboard-response","284","1061610","0.0-6.0-5.39","3278645","co40294","norming","","","","","","",""
"1225.9450000000652","","","post_reveal_questions","survey-likert","285","1062838","0.0-6.0-6.39","3278645","co40294","norming","","","{""aha"":5}","[0]","../img/tt/052tt.jpg","",""
"null","<div style=""font-size:60px;""> </div>","null","fixation","html-keyboard-response","286","1063046","0.0-6.0-0.40","3278645","co40294","norming","","","","","","",""
"null","../img/tt/1250tt.jpg","null","mooney1","image-keyboard-response","287","1066051","0.0-6.0-1.40","3278645","co40294","norming","","","","","","",""
"4231.899999999907","","","post_mooney1_questions","survey-likert","288","1070286","0.0-6.0-2.40","3278645","co40294","norming","","","{""curiosity"":5,""confidence"":1}","[0,1]","../img/tt/1250tt.jpg","",""
"4261.954999999842","","","recognition","survey-text","289","1074550","0.0-6.0-3.40","3278645","co40294","norming","","","{""guess"":""seamonsters""}","","../img/tt/1250tt.jpg","",""
"null","../img/gs/1250gs.jpg","null","reveal","image-keyboard-response","290","1076557","0.0-6.0-4.40","3278645","co40294","norming","","","","","","",""
"null","../img/tt/1250tt.jpg","null","mooney2","image-keyboard-response","291","1078558","0.0-6.0-5.40","3278645","co40294","norming","","","","","","",""
"2693.0800000000745","","","post_reveal_questions","survey-likert","292","1081253","0.0-6.0-6.40","3278645","co40294","norming","","","{""aha"":3}","[0]","../img/tt/1250tt.jpg","",""
"null","<div style=""font-size:60px;""> </div>","null","fixation","html-keyboard-response","293","1081456","0.0-6.0-0.41","3278645","co40294","norming","","","","","","",""
"null","../img/tt/040tt.jpg","null","mooney1","image-keyboard-response","294","1084462","0.0-6.0-1.41","3278645","co40294","norming","","","","","","",""
"5149.20999999973","","","post_mooney1_questions","survey-likert","295","1089614","0.0-6.0-2.41","3278645","co40294","norming","","","{""curiosity"":6,""confidence"":5}","[0,1]","../img/tt/040tt.jpg","",""
"2558.150000000838","","","recognition","survey-text","296","1092171","0.0-6.0-3.41","3278645","co40294","norming","","","{""guess"":""crocodile""}","","../img/tt/040tt.jpg","",""
"null","../img/gs/040gs.jpg","null","reveal","image-keyboard-response","297","1094176","0.0-6.0-4.41","3278645","co40294","norming","","","","","","",""
"null","../img/tt/040tt.jpg","null","mooney2","image-keyboard-response","298","1096180","0.0-6.0-5.41","3278645","co40294","norming","","","","","","",""
"2948.409999999916","","","post_reveal_questions","survey-likert","299","1099131","0.0-6.0-6.41","3278645","co40294","norming","","","{""aha"":5}","[0]","../img/tt/040tt.jpg","",""
"null","<div style=""font-size:60px;""> </div>","null","fixation","html-keyboard-response","300","1099333","0.0-6.0-0.42","3278645","co40294","norming","","","","","","",""
"null","../img/tt/315tt.jpg","null","mooney1","image-keyboard-response","301","1102339","0.0-6.0-1.42","3278645","co40294","norming","","","","","","",""
"3516.7750000001397","","","post_mooney1_questions","survey-likert","302","1105859","0.0-6.0-2.42","3278645","co40294","norming","","","{""curiosity"":4,""confidence"":5}","[0,1]","../img/tt/315tt.jpg","",""
"7046.3750000006985","","","recognition","survey-text","303","1112907","0.0-6.0-3.42","3278645","co40294","norming","","","{""guess"":""bird""}","","../img/tt/315tt.jpg","",""
"null","../img/gs/315gs.jpg","null","reveal","image-keyboard-response","304","1114914","0.0-6.0-4.42","3278645","co40294","norming","","","","","","",""
"null","../img/tt/315tt.jpg","null","mooney2","image-keyboard-response","305","1116922","0.0-6.0-5.42","3278645","co40294","norming","","","","","","",""
"1163.7399999999907","","","post_reveal_questions","survey-likert","306","1118091","0.0-6.0-6.42","3278645","co40294","norming","","","{""aha"":3}","[0]","../img/tt/315tt.jpg","",""
"null","<div style=""font-size:60px;""> </div>","null","fixation","html-keyboard-response","307","1118293","0.0-6.0-0.43","3278645","co40294","norming","","","","","","",""
"null","../img/tt/140tt.jpg","null","mooney1","image-keyboard-response","308","1121296","0.0-6.0-1.43","3278645","co40294","norming","","","","","","",""
"4624.719999999972","","","post_mooney1_questions","survey-likert","309","1125923","0.0-6.0-2.43","3278645","co40294","norming","","","{""curiosity"":5,""confidence"":2}","[0,1]","../img/tt/140tt.jpg","",""
"2037.9800000002142","","","recognition","survey-text","310","1127963","0.0-6.0-3.43","3278645","co40294","norming","","","{""guess"":""birds""}","","../img/tt/140tt.jpg","",""
"null","../img/gs/140gs.jpg","null","reveal","image-keyboard-response","311","1129969","0.0-6.0-4.43","3278645","co40294","norming","","","","","","",""
"null","../img/tt/140tt.jpg","null","mooney2","image-keyboard-response","312","1131971","0.0-6.0-5.43","3278645","co40294","norming","","","","","","",""
"1509.7800000002608","","","post_reveal_questions","survey-likert","313","1133483","0.0-6.0-6.43","3278645","co40294","norming","","","{""aha"":5}","[0]","../img/tt/140tt.jpg","",""
"null","<div style=""font-size:60px;""> </div>","null","fixation","html-keyboard-response","314","1133684","0.0-6.0-0.44","3278645","co40294","norming","","","","","","",""
"null","../img/tt/096tt.jpg","null","mooney1","image-keyboard-response","315","1136690","0.0-6.0-1.44","3278645","co40294","norming","","","","","","",""
"5190.1349999997765","","","post_mooney1_questions","survey-likert","316","1141883","0.0-6.0-2.44","3278645","co40294","norming","","","{""curiosity"":5,""confidence"":3}","[0,1]","../img/tt/096tt.jpg","",""
"3549.9799999997485","","","recognition","survey-text","317","1145435","0.0-6.0-3.44","3278645","co40294","norming","","","{""guess"":""metro/ tram""}","","../img/tt/096tt.jpg","",""
"null","../img/gs/096gs.jpg","null","reveal","image-keyboard-response","318","1147446","0.0-6.0-4.44","3278645","co40294","norming","","","","","","",""
"null","../img/tt/096tt.jpg","null","mooney2","image-keyboard-response","319","1149454","0.0-6.0-5.44","3278645","co40294","norming","","","","","","",""
"1251.6499999992084","","","post_reveal_questions","survey-likert","320","1150707","0.0-6.0-6.44","3278645","co40294","norming","","","{""aha"":5}","[0]","../img/tt/096tt.jpg","",""
"null","<div style=""font-size:60px;""> </div>","null","fixation","html-keyboard-response","321","1150908","0.0-6.0-0.45","3278645","co40294","norming","","","","","","",""
"null","../img/tt/1128tt.jpg","null","mooney1","image-keyboard-response","322","1153923","0.0-6.0-1.45","3278645","co40294","norming","","","","","","",""
"4068.1949999998324","","","post_mooney1_questions","survey-likert","323","1157995","0.0-6.0-2.45","3278645","co40294","norming","","","{""curiosity"":5,""confidence"":1}","[0,1]","../img/tt/1128tt.jpg","",""
"2166.140000000363","","","recognition","survey-text","324","1160163","0.0-6.0-3.45","3278645","co40294","norming","","","{""guess"":""dancing people""}","","../img/tt/1128tt.jpg","",""
"null","../img/gs/1128gs.jpg","null","reveal","image-keyboard-response","325","1162169","0.0-6.0-4.45","3278645","co40294","norming","","","","","","",""
"null","../img/tt/1128tt.jpg","null","mooney2","image-keyboard-response","326","1164172","0.0-6.0-5.45","3278645","co40294","norming","","","","","","",""
"3164.199999999255","","","post_reveal_questions","survey-likert","327","1167339","0.0-6.0-6.45","3278645","co40294","norming","","","{""aha"":4}","[0]","../img/tt/1128tt.jpg","",""
"null","<div style=""font-size:60px;""> </div>","null","fixation","html-keyboard-response","328","1167539","0.0-6.0-0.46","3278645","co40294","norming","","","","","","",""
"null","../img/tt/055tt.jpg","null","mooney1","image-keyboard-response","329","1170546","0.0-6.0-1.46","3278645","co40294","norming","","","","","","",""
"3837.309999999823","","","post_mooney1_questions","survey-likert","330","1174387","0.0-6.0-2.46","3278645","co40294","norming","","","{""curiosity"":5,""confidence"":1}","[0,1]","../img/tt/055tt.jpg","",""
"1998.0699999995995","","","recognition","survey-text","331","1176387","0.0-6.0-3.46","3278645","co40294","norming","","","{""guess"":""monkeys""}","","../img/tt/055tt.jpg","",""
"null","../img/gs/055gs.jpg","null","reveal","image-keyboard-response","332","1178391","0.0-6.0-4.46","3278645","co40294","norming","","","","","","",""
"null","../img/tt/055tt.jpg","null","mooney2","image-keyboard-response","333","1180393","0.0-6.0-5.46","3278645","co40294","norming","","","","","","",""
"2551.214999999618","","","post_reveal_questions","survey-likert","334","1182947","0.0-6.0-6.46","3278645","co40294","norming","","","{""aha"":4}","[0]","../img/tt/055tt.jpg","",""
"null","<div style=""font-size:60px;""> </div>","null","fixation","html-keyboard-response","335","1183151","0.0-6.0-0.47","3278645","co40294","norming","","","","","","",""
"null","../img/tt/416tt.jpg","null","mooney1","image-keyboard-response","336","1186154","0.0-6.0-1.47","3278645","co40294","norming","","","","","","",""
"4293.325000000652","","","post_mooney1_questions","survey-likert","337","1190451","0.0-6.0-2.47","3278645","co40294","norming","","","{""curiosity"":6,""confidence"":4}","[0,1]","../img/tt/416tt.jpg","",""
"2973.5799999998417","","","recognition","survey-text","338","1193426","0.0-6.0-3.47","3278645","co40294","norming","","","{""guess"":""ostriches""}","","../img/tt/416tt.jpg","",""
"null","../img/gs/416gs.jpg","null","reveal","image-keyboard-response","339","1195432","0.0-6.0-4.47","3278645","co40294","norming","","","","","","",""
"null","../img/tt/416tt.jpg","null","mooney2","image-keyboard-response","340","1197440","0.0-6.0-5.47","3278645","co40294","norming","","","","","","",""
"2601.2899999995716","","","post_reveal_questions","survey-likert","341","1200042","0.0-6.0-6.47","3278645","co40294","norming","","","{""aha"":2}","[0]","../img/tt/416tt.jpg","",""
"null","<div style=""font-size:60px;""> </div>","null","fixation","html-keyboard-response","342","1200243","0.0-6.0-0.48","3278645","co40294","norming","","","","","","",""
"null","../img/tt/1161tt.jpg","null","mooney1","image-keyboard-response","343","1203246","0.0-6.0-1.48","3278645","co40294","norming","","","","","","",""
"3106.1049999999814","","","post_mooney1_questions","survey-likert","344","1206355","0.0-6.0-2.48","3278645","co40294","norming","","","{""curiosity"":5,""confidence"":1}","[0,1]","../img/tt/1161tt.jpg","",""
"2574.109999999637","","","recognition","survey-text","345","1208930","0.0-6.0-3.48","3278645","co40294","norming","","","{""guess"":""cliff""}","","../img/tt/1161tt.jpg","",""
"null","../img/gs/1161gs.jpg","null","reveal","image-keyboard-response","346","1210938","0.0-6.0-4.48","3278645","co40294","norming","","","","","","",""
"null","../img/tt/1161tt.jpg","null","mooney2","image-keyboard-response","347","1212941","0.0-6.0-5.48","3278645","co40294","norming","","","","","","",""
"2539.244999999879","","","post_reveal_questions","survey-likert","348","1215483","0.0-6.0-6.48","3278645","co40294","norming","","","{""aha"":4}","[0]","../img/tt/1161tt.jpg","",""
"null","<div style=""font-size:60px;""> </div>","null","fixation","html-keyboard-response","349","1215684","0.0-6.0-0.49","3278645","co40294","norming","","","","","","",""
"null","../img/tt/053tt.jpg","null","mooney1","image-keyboard-response","350","1218689","0.0-6.0-1.49","3278645","co40294","norming","","","","","","",""
"2823.0100000000093","","","post_mooney1_questions","survey-likert","351","1221515","0.0-6.0-2.49","3278645","co40294","norming","","","{""curiosity"":6,""confidence"":5}","[0,1]","../img/tt/053tt.jpg","",""
"1558.3250000001863","","","recognition","survey-text","352","1223075","0.0-6.0-3.49","3278645","co40294","norming","","","{""guess"":""waves""}","","../img/tt/053tt.jpg","",""
"null","../img/gs/053gs.jpg","null","reveal","image-keyboard-response","353","1225078","0.0-6.0-4.49","3278645","co40294","norming","","","","","","",""
"null","../img/tt/053tt.jpg","null","mooney2","image-keyboard-response","354","1227087","0.0-6.0-5.49","3278645","co40294","norming","","","","","","",""
"1961.5100000000093","","","post_reveal_questions","survey-likert","355","1229051","0.0-6.0-6.49","3278645","co40294","norming","","","{""aha"":5}","[0]","../img/tt/053tt.jpg","",""
"null","<div style=""font-size:60px;""> </div>","null","fixation","html-keyboard-response","356","1229253","0.0-6.0-0.50","3278645","co40294","norming","","","","","","",""
"null","../img/tt/001tt.jpg","null","mooney1","image-keyboard-response","357","1232257","0.0-6.0-1.50","3278645","co40294","norming","","","","","","",""
"6462.980000000214","","","post_mooney1_questions","survey-likert","358","1238723","0.0-6.0-2.50","3278645","co40294","norming","","","{""curiosity"":5,""confidence"":4}","[0,1]","../img/tt/001tt.jpg","",""
"12070.159999999218","","","recognition","survey-text","359","1250795","0.0-6.0-3.50","3278645","co40294","norming","","","{""guess"":""cat type animal""}","","../img/tt/001tt.jpg","",""
"null","../img/gs/001gs.jpg","null","reveal","image-keyboard-response","360","1252797","0.0-6.0-4.50","3278645","co40294","norming","","","","","","",""
"null","../img/tt/001tt.jpg","null","mooney2","image-keyboard-response","361","1254800","0.0-6.0-5.50","3278645","co40294","norming","","","","","","",""
"977.315000000177","","","post_reveal_questions","survey-likert","362","1255779","0.0-6.0-6.50","3278645","co40294","norming","","","{""aha"":5}","[0]","../img/tt/001tt.jpg","",""
"null","<div style=""font-size:60px;""> </div>","null","fixation","html-keyboard-response","363","1255981","0.0-6.0-0.51","3278645","co40294","norming","","","","","","",""
"null","../img/tt/036tt.jpg","null","mooney1","image-keyboard-response","364","1258984","0.0-6.0-1.51","3278645","co40294","norming","","","","","","",""
"7664.450000000186","","","post_mooney1_questions","survey-likert","365","1266651","0.0-6.0-2.51","3278645","co40294","norming","","","{""curiosity"":6,""confidence"":2}","[0,1]","../img/tt/036tt.jpg","",""
"4694.274999999907","","","recognition","survey-text","366","1271347","0.0-6.0-3.51","3278645","co40294","norming","","","{""guess"":""branches""}","","../img/tt/036tt.jpg","",""
"null","../img/gs/036gs.jpg","null","reveal","image-keyboard-response","367","1273354","0.0-6.0-4.51","3278645","co40294","norming","","","","","","",""
"null","../img/tt/036tt.jpg","null","mooney2","image-keyboard-response","368","1275356","0.0-6.0-5.51","3278645","co40294","norming","","","","","","",""
"2253.6699999999255","","","post_reveal_questions","survey-likert","369","1277612","0.0-6.0-6.51","3278645","co40294","norming","","","{""aha"":6}","[0]","../img/tt/036tt.jpg","",""
"null","<div style=""font-size:60px;""> </div>","null","fixation","html-keyboard-response","370","1277821","0.0-6.0-0.52","3278645","co40294","norming","","","","","","",""
"null","../img/tt/1261tt.jpg","null","mooney1","image-keyboard-response","371","1280830","0.0-6.0-1.52","3278645","co40294","norming","","","","","","",""
"3131.204999999609","","","post_mooney1_questions","survey-likert","372","1283965","0.0-6.0-2.52","3278645","co40294","norming","","","{""curiosity"":5,""confidence"":1}","[0,1]","../img/tt/1261tt.jpg","",""
"6933.910000000615","","","recognition","survey-text","373","1290900","0.0-6.0-3.52","3278645","co40294","norming","","","{""guess"":""ventilation shaft""}","","../img/tt/1261tt.jpg","",""
"null","../img/gs/1261gs.jpg","null","reveal","image-keyboard-response","374","1292902","0.0-6.0-4.52","3278645","co40294","norming","","","","","","",""
"null","../img/tt/1261tt.jpg","null","mooney2","image-keyboard-response","375","1294904","0.0-6.0-5.52","3278645","co40294","norming","","","","","","",""
"1994.1749999998137","","","post_reveal_questions","survey-likert","376","1296900","0.0-6.0-6.52","3278645","co40294","norming","","","{""aha"":4}","[0]","../img/tt/1261tt.jpg","",""
"null","<div style=""font-size:60px;""> </div>","null","fixation","html-keyboard-response","377","1297102","0.0-6.0-0.53","3278645","co40294","norming","","","","","","",""
"null","../img/tt/1254tt.jpg","null","mooney1","image-keyboard-response","378","1300113","0.0-6.0-1.53","3278645","co40294","norming","","","","","","",""
"3520.3549999995157","","","post_mooney1_questions","survey-likert","379","1303636","0.0-6.0-2.53","3278645","co40294","norming","","","{""curiosity"":5,""confidence"":0}","[0,1]","../img/tt/1254tt.jpg","",""
"6662.204999999609","","","recognition","survey-text","380","1310300","0.0-6.0-3.53","3278645","co40294","norming","","","{""guess"":""sea/ boats""}","","../img/tt/1254tt.jpg","",""
"null","../img/gs/1254gs.jpg","null","reveal","image-keyboard-response","381","1312308","0.0-6.0-4.53","3278645","co40294","norming","","","","","","",""
"null","../img/tt/1254tt.jpg","null","mooney2","image-keyboard-response","382","1314314","0.0-6.0-5.53","3278645","co40294","norming","","","","","","",""
"1504.445000000298","","","post_reveal_questions","survey-likert","383","1315820","0.0-6.0-6.53","3278645","co40294","norming","","","{""aha"":4}","[0]","../img/tt/1254tt.jpg","",""
"null","<div style=""font-size:60px;""> </div>","null","fixation","html-keyboard-response","384","1316022","0.0-6.0-0.54","3278645","co40294","norming","","","","","","",""
"null","../img/tt/357tt.jpg","null","mooney1","image-keyboard-response","385","1319024","0.0-6.0-1.54","3278645","co40294","norming","","","","","","",""
"2473.505000000121","","","post_mooney1_questions","survey-likert","386","1321500","0.0-6.0-2.54","3278645","co40294","norming","","","{""curiosity"":5,""confidence"":5}","[0,1]","../img/tt/357tt.jpg","",""
"1990.2000000001863","","","recognition","survey-text","387","1323492","0.0-6.0-3.54","3278645","co40294","norming","","","{""guess"":""hedgehog""}","","../img/tt/357tt.jpg","",""
"null","../img/gs/357gs.jpg","null","reveal","image-keyboard-response","388","1325499","0.0-6.0-4.54","3278645","co40294","norming","","","","","","",""
"null","../img/tt/357tt.jpg","null","mooney2","image-keyboard-response","389","1327500","0.0-6.0-5.54","3278645","co40294","norming","","","","","","",""
"1119.0250000001397","","","post_reveal_questions","survey-likert","390","1328620","0.0-6.0-6.54","3278645","co40294","norming","","","{""aha"":1}","[0]","../img/tt/357tt.jpg","",""
"null","<div style=""font-size:60px;""> </div>","null","fixation","html-keyboard-response","391","1328822","0.0-6.0-0.55","3278645","co40294","norming","","","","","","",""
"null","../img/tt/515tt.jpg","null","mooney1","image-keyboard-response","392","1331824","0.0-6.0-1.55","3278645","co40294","norming","","","","","","",""
"3176.95999999973","","","post_mooney1_questions","survey-likert","393","1335005","0.0-6.0-2.55","3278645","co40294","norming","","","{""curiosity"":5,""confidence"":1}","[0,1]","../img/tt/515tt.jpg","",""
"2790.315000000177","","","recognition","survey-text","394","1337797","0.0-6.0-3.55","3278645","co40294","norming","","","{""guess"":""desk""}","","../img/tt/515tt.jpg","",""
"null","../img/gs/515gs.jpg","null","reveal","image-keyboard-response","395","1339802","0.0-6.0-4.55","3278645","co40294","norming","","","","","","",""
"null","../img/tt/515tt.jpg","null","mooney2","image-keyboard-response","396","1341804","0.0-6.0-5.55","3278645","co40294","norming","","","","","","",""
"2078.925000000745","","","post_reveal_questions","survey-likert","397","1343885","0.0-6.0-6.55","3278645","co40294","norming","","","{""aha"":3}","[0]","../img/tt/515tt.jpg","",""
"null","<div style=""font-size:60px;""> </div>","null","fixation","html-keyboard-response","398","1344086","0.0-6.0-0.56","3278645","co40294","norming","","","","","","",""
"null","../img/tt/1130tt.jpg","null","mooney1","image-keyboard-response","399","1347089","0.0-6.0-1.56","3278645","co40294","norming","","","","","","",""
"3977.230000000447","","","post_mooney1_questions","survey-likert","400","1351069","0.0-6.0-2.56","3278645","co40294","norming","","","{""curiosity"":0,""confidence"":6}","[0,1]","../img/tt/1130tt.jpg","",""
"2326.06500000041","","","recognition","survey-text","401","1353397","0.0-6.0-3.56","3278645","co40294","norming","","","{""guess"":""cyclist""}","","../img/tt/1130tt.jpg","",""
"null","../img/gs/1130gs.jpg","null","reveal","image-keyboard-response","402","1355400","0.0-6.0-4.56","3278645","co40294","norming","","","","","","",""
"null","../img/tt/1130tt.jpg","null","mooney2","image-keyboard-response","403","1357401","0.0-6.0-5.56","3278645","co40294","norming","","","","","","",""
"1217.3700000001118","","","post_reveal_questions","survey-likert","404","1358621","0.0-6.0-6.56","3278645","co40294","norming","","","{""aha"":0}","[0]","../img/tt/1130tt.jpg","",""
"null","<div style=""font-size:60px;""> </div>","null","fixation","html-keyboard-response","405","1358823","0.0-6.0-0.57","3278645","co40294","norming","","","","","","",""
"null","../img/tt/1122tt.jpg","null","mooney1","image-keyboard-response","406","1361825","0.0-6.0-1.57","3278645","co40294","norming","","","","","","",""
"3409.7500000006985","","","post_mooney1_questions","survey-likert","407","1365237","0.0-6.0-2.57","3278645","co40294","norming","","","{""curiosity"":5,""confidence"":6}","[0,1]","../img/tt/1122tt.jpg","",""
"4613.945000000065","","","recognition","survey-text","408","1369853","0.0-6.0-3.57","3278645","co40294","norming","","","{""guess"":""boats""}","","../img/tt/1122tt.jpg","",""
"null","../img/gs/1122gs.jpg","null","reveal","image-keyboard-response","409","1371857","0.0-6.0-4.57","3278645","co40294","norming","","","","","","",""
"null","../img/tt/1122tt.jpg","null","mooney2","image-keyboard-response","410","1373863","0.0-6.0-5.57","3278645","co40294","norming","","","","","","",""
"1267.730000000447","","","post_reveal_questions","survey-likert","411","1375133","0.0-6.0-6.57","3278645","co40294","norming","","","{""aha"":2}","[0]","../img/tt/1122tt.jpg","",""
"null","<div style=""font-size:60px;""> </div>","null","fixation","html-keyboard-response","412","1375334","0.0-6.0-0.58","3278645","co40294","norming","","","","","","",""
"null","../img/tt/046tt.jpg","null","mooney1","image-keyboard-response","413","1378336","0.0-6.0-1.58","3278645","co40294","norming","","","","","","",""
"5178.535000000149","","","post_mooney1_questions","survey-likert","414","1383517","0.0-6.0-2.58","3278645","co40294","norming","","","{""curiosity"":5,""confidence"":1}","[0,1]","../img/tt/046tt.jpg","",""
"1925.889999999432","","","recognition","survey-text","415","1385445","0.0-6.0-3.58","3278645","co40294","norming","","","{""guess"":""faces""}","","../img/tt/046tt.jpg","",""
"null","../img/gs/046gs.jpg","null","reveal","image-keyboard-response","416","1387447","0.0-6.0-4.58","3278645","co40294","norming","","","","","","",""
"null","../img/tt/046tt.jpg","null","mooney2","image-keyboard-response","417","1389449","0.0-6.0-5.58","3278645","co40294","norming","","","","","","",""
"1371.1999999994878","","","post_reveal_questions","survey-likert","418","1390821","0.0-6.0-6.58","3278645","co40294","norming","","","{""aha"":3}","[0]","../img/tt/046tt.jpg","",""
"null","<div style=""font-size:60px;""> </div>","null","fixation","html-keyboard-response","419","1391023","0.0-6.0-0.59","3278645","co40294","norming","","","","","","",""
"null","../img/tt/1236tt.jpg","null","mooney1","image-keyboard-response","420","1394025","0.0-6.0-1.59","3278645","co40294","norming","","","","","","",""
"2644.770000000717","","","post_mooney1_questions","survey-likert","421","1396673","0.0-6.0-2.59","3278645","co40294","norming","","","{""curiosity"":5,""confidence"":5}","[0,1]","../img/tt/1236tt.jpg","",""
"3374.3199999998324","","","recognition","survey-text","422","1400049","0.0-6.0-3.59","3278645","co40294","norming","","","{""guess"":""wet woman""}","","../img/tt/1236tt.jpg","",""
"null","../img/gs/1236gs.jpg","null","reveal","image-keyboard-response","423","1402052","0.0-6.0-4.59","3278645","co40294","norming","","","","","","",""
"null","../img/tt/1236tt.jpg","null","mooney2","image-keyboard-response","424","1404055","0.0-6.0-5.59","3278645","co40294","norming","","","","","","",""
"1365.8649999997579","","","post_reveal_questions","survey-likert","425","1405425","0.0-6.0-6.59","3278645","co40294","norming","","","{""aha"":5}","[0]","../img/tt/1236tt.jpg","",""
"null","<div style=""font-size:60px;""> </div>","null","fixation","html-keyboard-response","426","1405626","0.0-6.0-0.60","3278645","co40294","norming","","","","","","",""
"null","../img/tt/1211tt.jpg","null","mooney1","image-keyboard-response","427","1408628","0.0-6.0-1.60","3278645","co40294","norming","","","","","","",""
"3546.29000000027","","","post_mooney1_questions","survey-likert","428","1412177","0.0-6.0-2.60","3278645","co40294","norming","","","{""curiosity"":5,""confidence"":2}","[0,1]","../img/tt/1211tt.jpg","",""
"6158.5699999995995","","","recognition","survey-text","429","1418337","0.0-6.0-3.60","3278645","co40294","norming","","","{""guess"":""swimming pool""}","","../img/tt/1211tt.jpg","",""
"null","../img/gs/1211gs.jpg","null","reveal","image-keyboard-response","430","1420340","0.0-6.0-4.60","3278645","co40294","norming","","","","","","",""
"null","../img/tt/1211tt.jpg","null","mooney2","image-keyboard-response","431","1422341","0.0-6.0-5.60","3278645","co40294","norming","","","","","","",""
"1409.0000000004657","","","post_reveal_questions","survey-likert","432","1423753","0.0-6.0-6.60","3278645","co40294","norming","","","{""aha"":6}","[0]","../img/tt/1211tt.jpg","",""
"null","<div style=""font-size:60px;""> </div>","null","fixation","html-keyboard-response","433","1423954","0.0-6.0-0.61","3278645","co40294","norming","","","","","","",""
"null","../img/tt/590tt.jpg","null","mooney1","image-keyboard-response","434","1426957","0.0-6.0-1.61","3278645","co40294","norming","","","","","","",""
"3345.174999999581","","","post_mooney1_questions","survey-likert","435","1430305","0.0-6.0-2.61","3278645","co40294","norming","","","{""curiosity"":4,""confidence"":6}","[0,1]","../img/tt/590tt.jpg","",""
"2110.274999999907","","","recognition","survey-text","436","1432417","0.0-6.0-3.61","3278645","co40294","norming","","","{""guess"":""cannon""}","","../img/tt/590tt.jpg","",""
"null","../img/gs/590gs.jpg","null","reveal","image-keyboard-response","437","1434418","0.0-6.0-4.61","3278645","co40294","norming","","","","","","",""
"null","../img/tt/590tt.jpg","null","mooney2","image-keyboard-response","438","1436421","0.0-6.0-5.61","3278645","co40294","norming","","","","","","",""
"2697.6299999996554","","","post_reveal_questions","survey-likert","439","1439121","0.0-6.0-6.61","3278645","co40294","norming","","","{""aha"":2}","[0]","../img/tt/590tt.jpg","",""
"null","<div style=""font-size:60px;""> </div>","null","fixation","html-keyboard-response","440","1439322","0.0-6.0-0.62","3278645","co40294","norming","","","","","","",""
"null","../img/tt/580tt.jpg","null","mooney1","image-keyboard-response","441","1442331","0.0-6.0-1.62","3278645","co40294","norming","","","","","","",""
"3538.380000000121","","","post_mooney1_questions","survey-likert","442","1445873","0.0-6.0-2.62","3278645","co40294","norming","","","{""curiosity"":5,""confidence"":1}","[0,1]","../img/tt/580tt.jpg","",""
"8173.995000000112","","","recognition","survey-text","443","1454052","0.0-6.0-3.62","3278645","co40294","norming","","","{""guess"":""animal in jungle""}","","../img/tt/580tt.jpg","",""
"null","../img/gs/580gs.jpg","null","reveal","image-keyboard-response","444","1456053","0.0-6.0-4.62","3278645","co40294","norming","","","","","","",""
"null","../img/tt/580tt.jpg","null","mooney2","image-keyboard-response","445","1458056","0.0-6.0-5.62","3278645","co40294","norming","","","","","","",""
"1594.1050000002142","","","post_reveal_questions","survey-likert","446","1459652","0.0-6.0-6.62","3278645","co40294","norming","","","{""aha"":5}","[0]","../img/tt/580tt.jpg","",""
"null","<div style=""font-size:60px;""> </div>","null","fixation","html-keyboard-response","447","1459854","0.0-6.0-0.63","3278645","co40294","norming","","","","","","",""
"null","../img/tt/300tt.jpg","null","mooney1","image-keyboard-response","448","1462858","0.0-6.0-1.63","3278645","co40294","norming","","","","","","",""
"4630.495000000345","","","post_mooney1_questions","survey-likert","449","1467492","0.0-6.0-2.63","3278645","co40294","norming","","","{""curiosity"":4,""confidence"":5}","[0,1]","../img/tt/300tt.jpg","",""
"3710.070000000065","","","recognition","survey-text","450","1471204","0.0-6.0-3.63","3278645","co40294","norming","","","{""guess"":""dancing woman""}","","../img/tt/300tt.jpg","",""
"null","../img/gs/300gs.jpg","null","reveal","image-keyboard-response","451","1473206","0.0-6.0-4.63","3278645","co40294","norming","","","","","","",""
"null","../img/tt/300tt.jpg","null","mooney2","image-keyboard-response","452","1475211","0.0-6.0-5.63","3278645","co40294","norming","","","","","","",""
"1470.1099999991711","","","post_reveal_questions","survey-likert","453","1476684","0.0-6.0-6.63","3278645","co40294","norming","","","{""aha"":6}","[0]","../img/tt/300tt.jpg","",""
"null","<div style=""font-size:60px;""> </div>","null","fixation","html-keyboard-response","454","1476886","0.0-6.0-0.64","3278645","co40294","norming","","","","","","",""
"null","../img/tt/1125tt.jpg","null","mooney1","image-keyboard-response","455","1479896","0.0-6.0-1.64","3278645","co40294","norming","","","","","","",""
"3888.304999999469","","","post_mooney1_questions","survey-likert","456","1483789","0.0-6.0-2.64","3278645","co40294","norming","","","{""curiosity"":6,""confidence"":3}","[0,1]","../img/tt/1125tt.jpg","",""
"2662.174999999348","","","recognition","survey-text","457","1486452","0.0-6.0-3.64","3278645","co40294","norming","","","{""guess"":""little kid""}","","../img/tt/1125tt.jpg","",""
"null","../img/gs/1125gs.jpg","null","reveal","image-keyboard-response","458","1488457","0.0-6.0-4.64","3278645","co40294","norming","","","","","","",""
"null","../img/tt/1125tt.jpg","null","mooney2","image-keyboard-response","459","1490459","0.0-6.0-5.64","3278645","co40294","norming","","","","","","",""
"966.3449999997392","","","post_reveal_questions","survey-likert","460","1491428","0.0-6.0-6.64","3278645","co40294","norming","","","{""aha"":4}","[0]","../img/tt/1125tt.jpg","",""
"null","<div style=""font-size:60px;""> </div>","null","fixation","html-keyboard-response","461","1491629","0.0-6.0-0.65","3278645","co40294","norming","","","","","","",""
"null","../img/tt/358tt.jpg","null","mooney1","image-keyboard-response","462","1494633","0.0-6.0-1.65","3278645","co40294","norming","","","","","","",""
"4183.7599999997765","","","post_mooney1_questions","survey-likert","463","1498820","0.0-6.0-2.65","3278645","co40294","norming","","","{""curiosity"":4,""confidence"":3}","[0,1]","../img/tt/358tt.jpg","",""
"1950.1399999998976","","","recognition","survey-text","464","1500772","0.0-6.0-3.65","3278645","co40294","norming","","","{""guess"":""dog""}","","../img/tt/358tt.jpg","",""
"null","../img/gs/358gs.jpg","null","reveal","image-keyboard-response","465","1502776","0.0-6.0-4.65","3278645","co40294","norming","","","","","","",""
"null","../img/tt/358tt.jpg","null","mooney2","image-keyboard-response","466","1504783","0.0-6.0-5.65","3278645","co40294","norming","","","","","","",""
"1707.20999999973","","","post_reveal_questions","survey-likert","467","1506492","0.0-6.0-6.65","3278645","co40294","norming","","","{""aha"":5}","[0]","../img/tt/358tt.jpg","",""
"null","<div style=""font-size:60px;""> </div>","null","fixation","html-keyboard-response","468","1506694","0.0-6.0-0.66","3278645","co40294","norming","","","","","","",""
"null","../img/tt/1272tt.jpg","null","mooney1","image-keyboard-response","469","1509697","0.0-6.0-1.66","3278645","co40294","norming","","","","","","",""
"6728.664999999572","","","post_mooney1_questions","survey-likert","470","1516428","0.0-6.0-2.66","3278645","co40294","norming","","","{""curiosity"":6,""confidence"":3}","[0,1]","../img/tt/1272tt.jpg","",""
"7373.905000000494","","","recognition","survey-text","471","1523803","0.0-6.0-3.66","3278645","co40294","norming","","","{""guess"":""someone behind fence""}","","../img/tt/1272tt.jpg","",""
"null","../img/gs/1272gs.jpg","null","reveal","image-keyboard-response","472","1525805","0.0-6.0-4.66","3278645","co40294","norming","","","","","","",""
"null","../img/tt/1272tt.jpg","null","mooney2","image-keyboard-response","473","1527808","0.0-6.0-5.66","3278645","co40294","norming","","","","","","",""
"1312.904999999795","","","post_reveal_questions","survey-likert","474","1529124","0.0-6.0-6.66","3278645","co40294","norming","","","{""aha"":5}","[0]","../img/tt/1272tt.jpg","",""
"null","<div style=""font-size:60px;""> </div>","null","fixation","html-keyboard-response","475","1529325","0.0-6.0-0.67","3278645","co40294","norming","","","","","","",""
"null","../img/tt/1247tt.jpg","null","mooney1","image-keyboard-response","476","1532328","0.0-6.0-1.67","3278645","co40294","norming","","","","","","",""
"4928.060000000056","","","post_mooney1_questions","survey-likert","477","1537259","0.0-6.0-2.67","3278645","co40294","norming","","","{""curiosity"":5,""confidence"":1}","[0,1]","../img/tt/1247tt.jpg","",""
"1830.3550000002142","","","recognition","survey-text","478","1539092","0.0-6.0-3.67","3278645","co40294","norming","","","{""guess"":""bulls""}","","../img/tt/1247tt.jpg","",""
"null","../img/gs/1247gs.jpg","null","reveal","image-keyboard-response","479","1541099","0.0-6.0-4.67","3278645","co40294","norming","","","","","","",""
"null","../img/tt/1247tt.jpg","null","mooney2","image-keyboard-response","480","1543109","0.0-6.0-5.67","3278645","co40294","norming","","","","","","",""
"2556.239999999758","","","post_reveal_questions","survey-likert","481","1545667","0.0-6.0-6.67","3278645","co40294","norming","","","{""aha"":4}","[0]","../img/tt/1247tt.jpg","",""
"null","<div style=""font-size:60px;""> </div>","null","fixation","html-keyboard-response","482","1545869","0.0-6.0-0.68","3278645","co40294","norming","","","","","","",""
"null","../img/tt/1096tt.jpg","null","mooney1","image-keyboard-response","483","1548873","0.0-6.0-1.68","3278645","co40294","norming","","","","","","",""
"3686.980000000447","","","post_mooney1_questions","survey-likert","484","1552564","0.0-6.0-2.68","3278645","co40294","norming","","","{""curiosity"":6,""confidence"":3}","[0,1]","../img/tt/1096tt.jpg","",""
"3550.105000000214","","","recognition","survey-text","485","1556115","0.0-6.0-3.68","3278645","co40294","norming","","","{""guess"":""living room""}","","../img/tt/1096tt.jpg","",""
"null","../img/gs/1096gs.jpg","null","reveal","image-keyboard-response","486","1558121","0.0-6.0-4.68","3278645","co40294","norming","","","","","","",""
"null","../img/tt/1096tt.jpg","null","mooney2","image-keyboard-response","487","1560122","0.0-6.0-5.68","3278645","co40294","norming","","","","","","",""
"1550.505000000121","","","post_reveal_questions","survey-likert","488","1561676","0.0-6.0-6.68","3278645","co40294","norming","","","{""aha"":4}","[0]","../img/tt/1096tt.jpg","",""
"null","<div style=""font-size:60px;""> </div>","null","fixation","html-keyboard-response","489","1561877","0.0-6.0-0.69","3278645","co40294","norming","","","","","","",""
"null","../img/tt/121tt.jpg","null","mooney1","image-keyboard-response","490","1564880","0.0-6.0-1.69","3278645","co40294","norming","","","","","","",""
"2778.240000000689","","","post_mooney1_questions","survey-likert","491","1567660","0.0-6.0-2.69","3278645","co40294","norming","","","{""curiosity"":5,""confidence"":1}","[0,1]","../img/tt/121tt.jpg","",""
"5094.2599999997765","","","recognition","survey-text","492","1572756","0.0-6.0-3.69","3278645","co40294","norming","","","{""guess"":""whale""}","","../img/tt/121tt.jpg","",""
"null","../img/gs/121gs.jpg","null","reveal","image-keyboard-response","493","1574769","0.0-6.0-4.69","3278645","co40294","norming","","","","","","",""
"null","../img/tt/121tt.jpg","null","mooney2","image-keyboard-response","494","1576770","0.0-6.0-5.69","3278645","co40294","norming","","","","","","",""
"1556.6050000006799","","","post_reveal_questions","survey-likert","495","1578330","0.0-6.0-6.69","3278645","co40294","norming","","","{""aha"":3}","[0]","../img/tt/121tt.jpg","",""
"null","<div style=""font-size:60px;""> </div>","null","fixation","html-keyboard-response","496","1578532","0.0-6.0-0.70","3278645","co40294","norming","","","","","","",""
"null","../img/tt/1037tt.jpg","null","mooney1","image-keyboard-response","497","1581537","0.0-6.0-1.70","3278645","co40294","norming","","","","","","",""
"4295.525000000605","","","post_mooney1_questions","survey-likert","498","1585834","0.0-6.0-2.70","3278645","co40294","norming","","","{""curiosity"":5,""confidence"":1}","[0,1]","../img/tt/1037tt.jpg","",""
"3453.9599999999627","","","recognition","survey-text","499","1589290","0.0-6.0-3.70","3278645","co40294","norming","","","{""guess"":""surfers""}","","../img/tt/1037tt.jpg","",""
"null","../img/gs/1037gs.jpg","null","reveal","image-keyboard-response","500","1591298","0.0-6.0-4.70","3278645","co40294","norming","","","","","","",""
"null","../img/tt/1037tt.jpg","null","mooney2","image-keyboard-response","501","1593300","0.0-6.0-5.70","3278645","co40294","norming","","","","","","",""
"2299.015000000596","","","post_reveal_questions","survey-likert","502","1595602","0.0-6.0-6.70","3278645","co40294","norming","","","{""aha"":5}","[0]","../img/tt/1037tt.jpg","",""
"null","<div style=""font-size:60px;""> </div>","null","fixation","html-keyboard-response","503","1595803","0.0-6.0-0.71","3278645","co40294","norming","","","","","","",""
"null","../img/tt/1078tt.jpg","null","mooney1","image-keyboard-response","504","1598814","0.0-6.0-1.71","3278645","co40294","norming","","","","","","",""
"3962.609999999637","","","post_mooney1_questions","survey-likert","505","1602778","0.0-6.0-2.71","3278645","co40294","norming","","","{""curiosity"":5,""confidence"":3}","[0,1]","../img/tt/1078tt.jpg","",""
"5534.199999999953","","","recognition","survey-text","506","1608314","0.0-6.0-3.71","3278645","co40294","norming","","","{""guess"":""people on a stand""}","","../img/tt/1078tt.jpg","",""
"null","../img/gs/1078gs.jpg","null","reveal","image-keyboard-response","507","1610321","0.0-6.0-4.71","3278645","co40294","norming","","","","","","",""
"null","../img/tt/1078tt.jpg","null","mooney2","image-keyboard-response","508","1612327","0.0-6.0-5.71","3278645","co40294","norming","","","","","","",""
"1455.5799999998417","","","post_reveal_questions","survey-likert","509","1613786","0.0-6.0-6.71","3278645","co40294","norming","","","{""aha"":5}","[0]","../img/tt/1078tt.jpg","",""
"null","<div style=""font-size:60px;""> </div>","null","fixation","html-keyboard-response","510","1613987","0.0-6.0-0.72","3278645","co40294","norming","","","","","","",""
"null","../img/tt/1173tt.jpg","null","mooney1","image-keyboard-response","511","1616990","0.0-6.0-1.72","3278645","co40294","norming","","","","","","",""
"4448.354999999516","","","post_mooney1_questions","survey-likert","512","1621442","0.0-6.0-2.72","3278645","co40294","norming","","","{""curiosity"":6,""confidence"":4}","[0,1]","../img/tt/1173tt.jpg","",""
"7254.209999999963","","","recognition","survey-text","513","1628698","0.0-6.0-3.72","3278645","co40294","norming","","","{""guess"":""hockey players""}","","../img/tt/1173tt.jpg","",""
"null","../img/gs/1173gs.jpg","null","reveal","image-keyboard-response","514","1630700","0.0-6.0-4.72","3278645","co40294","norming","","","","","","",""
"null","../img/tt/1173tt.jpg","null","mooney2","image-keyboard-response","515","1632702","0.0-6.0-5.72","3278645","co40294","norming","","","","","","",""
"5209.37999999919","","","post_reveal_questions","survey-likert","516","1637912","0.0-6.0-6.72","3278645","co40294","norming","","","{""aha"":3}","[0]","../img/tt/1173tt.jpg","",""
"null","<div style=""font-size:60px;""> </div>","null","fixation","html-keyboard-response","517","1638114","0.0-6.0-0.73","3278645","co40294","norming","","","","","","",""
"null","../img/tt/1148tt.jpg","null","mooney1","image-keyboard-response","518","1641117","0.0-6.0-1.73","3278645","co40294","norming","","","","","","",""
"2634.2899999998044","","","post_mooney1_questions","survey-likert","519","1643753","0.0-6.0-2.73","3278645","co40294","norming","","","{""curiosity"":5,""confidence"":5}","[0,1]","../img/tt/1148tt.jpg","",""
"1869.9599999999627","","","recognition","survey-text","520","1645624","0.0-6.0-3.73","3278645","co40294","norming","","","{""guess"":""kanoeing""}","","../img/tt/1148tt.jpg","",""
"null","../img/gs/1148gs.jpg","null","reveal","image-keyboard-response","521","1647632","0.0-6.0-4.73","3278645","co40294","norming","","","","","","",""
"null","../img/tt/1148tt.jpg","null","mooney2","image-keyboard-response","522","1649634","0.0-6.0-5.73","3278645","co40294","norming","","","","","","",""
"1410.1600000003818","","","post_reveal_questions","survey-likert","523","1651049","0.0-6.0-6.73","3278645","co40294","norming","","","{""aha"":5}","[0]","../img/tt/1148tt.jpg","",""
"null","<div style=""font-size:60px;""> </div>","null","fixation","html-keyboard-response","524","1651250","0.0-6.0-0.74","3278645","co40294","norming","","","","","","",""
"null","../img/tt/1283tt.jpg","null","mooney1","image-keyboard-response","525","1654261","0.0-6.0-1.74","3278645","co40294","norming","","","","","","",""
"3441.6550000004936","","","post_mooney1_questions","survey-likert","526","1657706","0.0-6.0-2.74","3278645","co40294","norming","","","{""curiosity"":5,""confidence"":1}","[0,1]","../img/tt/1283tt.jpg","",""
"5212.409999999916","","","recognition","survey-text","527","1662920","0.0-6.0-3.74","3278645","co40294","norming","","","{""guess"":""pack of wolfs""}","","../img/tt/1283tt.jpg","",""
"null","../img/gs/1283gs.jpg","null","reveal","image-keyboard-response","528","1664928","0.0-6.0-4.74","3278645","co40294","norming","","","","","","",""
"null","../img/tt/1283tt.jpg","null","mooney2","image-keyboard-response","529","1666930","0.0-6.0-5.74","3278645","co40294","norming","","","","","","",""
"2123.5000000004657","","","post_reveal_questions","survey-likert","530","1669056","0.0-6.0-6.74","3278645","co40294","norming","","","{""aha"":5}","[0]","../img/tt/1283tt.jpg","",""
"null","<div style=""font-size:60px;""> </div>","null","fixation","html-keyboard-response","531","1669258","0.0-6.0-0.75","3278645","co40294","norming","","","","","","",""
"null","../img/tt/1126tt.jpg","null","mooney1","image-keyboard-response","532","1672260","0.0-6.0-1.75","3278645","co40294","norming","","","","","","",""
"4056.94000000041","","","post_mooney1_questions","survey-likert","533","1676321","0.0-6.0-2.75","3278645","co40294","norming","","","{""curiosity"":6,""confidence"":5}","[0,1]","../img/tt/1126tt.jpg","",""
"4598.004999999888","","","recognition","survey-text","534","1680920","0.0-6.0-3.75","3278645","co40294","norming","","","{""guess"":""rock climber""}","","../img/tt/1126tt.jpg","",""
"null","../img/gs/1126gs.jpg","null","reveal","image-keyboard-response","535","1682924","0.0-6.0-4.75","3278645","co40294","norming","","","","","","",""
"null","../img/tt/1126tt.jpg","null","mooney2","image-keyboard-response","536","1684927","0.0-6.0-5.75","3278645","co40294","norming","","","","","","",""
"2245.9399999997113","","","post_reveal_questions","survey-likert","537","1687176","0.0-6.0-6.75","3278645","co40294","norming","","","{""aha"":2}","[0]","../img/tt/1126tt.jpg","",""
"null","<div style=""font-size:60px;""> </div>","null","fixation","html-keyboard-response","538","1687378","0.0-6.0-0.76","3278645","co40294","norming","","","","","","",""
"null","../img/tt/534tt.jpg","null","mooney1","image-keyboard-response","539","1690381","0.0-6.0-1.76","3278645","co40294","norming","","","","","","",""
"2487.7950000001583","","","post_mooney1_questions","survey-likert","540","1692873","0.0-6.0-2.76","3278645","co40294","norming","","","{""curiosity"":6,""confidence"":6}","[0,1]","../img/tt/534tt.jpg","",""
"1742.0300000002608","","","recognition","survey-text","541","1694616","0.0-6.0-3.76","3278645","co40294","norming","","","{""guess"":""cacti""}","","../img/tt/534tt.jpg","",""
"null","../img/gs/534gs.jpg","null","reveal","image-keyboard-response","542","1696621","0.0-6.0-4.76","3278645","co40294","norming","","","","","","",""
"null","../img/tt/534tt.jpg","null","mooney2","image-keyboard-response","543","1698624","0.0-6.0-5.76","3278645","co40294","norming","","","","","","",""
"2807.8099999993574","","","post_reveal_questions","survey-likert","544","1701435","0.0-6.0-6.76","3278645","co40294","norming","","","{""aha"":1}","[0]","../img/tt/534tt.jpg","",""
"null","<div style=""font-size:60px;""> </div>","null","fixation","html-keyboard-response","545","1701636","0.0-6.0-0.77","3278645","co40294","norming","","","","","","",""
"null","../img/tt/1107tt.jpg","null","mooney1","image-keyboard-response","546","1704640","0.0-6.0-1.77","3278645","co40294","norming","","","","","","",""
"4776.089999999385","","","post_mooney1_questions","survey-likert","547","1709419","0.0-6.0-2.77","3278645","co40294","norming","","","{""curiosity"":5,""confidence"":2}","[0,1]","../img/tt/1107tt.jpg","",""
"1742.1400000003632","","","recognition","survey-text","548","1711163","0.0-6.0-3.77","3278645","co40294","norming","","","{""guess"":""fruit bowl""}","","../img/tt/1107tt.jpg","",""
"null","../img/gs/1107gs.jpg","null","reveal","image-keyboard-response","549","1713164","0.0-6.0-4.77","3278645","co40294","norming","","","","","","",""
"null","../img/tt/1107tt.jpg","null","mooney2","image-keyboard-response","550","1715166","0.0-6.0-5.77","3278645","co40294","norming","","","","","","",""
