"rt","stimulus","key_press","test_part","trial_type","trial_index","time_elapsed","internal_node_id","totalTime","subject","experiment_name","button_pressed","success","responses","question_order","currentStim","old","correct"
"9835.36500000082","Welcome to the experiment. This is an online experiment so please don't close the tab/window until we say goodbye.  Press any key to begin.","32","instructions","html-keyboard-response","0","9855","0.0-0.0","3411512","coCA","norming","","","","","","",""
"84392.76999999856","<div style='word-wrap: break-word; width: 900px'><h3>Please consider this information carefully before deciding whether to participate in this research</h3><ul style='text-align: left; font-size: .8em;'><li><b>Purpose of the research</b>: To examine how people process images.</li><li><b>What you will do in this research</b>:  Stimuli (images) will be presented on the computer and you will be asked different questions about them.</li><li><b>Time required</b>: Participation will take between 45 and 60 minutes to complete.</li><li><b>Risks</b>:  There are no anticipated risks associated with participating in this study. The effects of participating should be comparable to those you would experience from viewing a computer monitor for 30 minutes and using a mouse or keyboard.</li><li><b>Benefits</b>:  This study provides no benefits to you individually except for the credit. The study provides important information about the nature of perception and learning.</li><li><b>Confidentiality</b>:  Your participation in this study will remain confidential. No personally identifiable information will be associated with your data. Your de-identified data may be shared with other researchers and used in future projects.</li><li><b>Participation and withdrawal</b>:  Your participation in this study is completely voluntary and you may refuse to participate or you may choose to withdraw at any time without penalty.</li><li><b>How to contact the researchers</b>: If you have questions or concerns about your participation or payment, or want to request a summary of research findings, please contact Sander Van de Cruys (KU Leuven), at sander.vandecruys@kuleuven.be.</li></ul><p>The nature and purpose of this research have been sufficiently explained and I agree to participate in this study.  I understand that I am free to withdraw at any time without incurring any penalty.</p><p>Please consent by clicking the button below to continue. Otherwise, please exit the study at this time.</p></div>","","instructions","html-button-response","1","94255","0.0-1.0","3411512","coCA","norming","0","","","","","",""
"","","","instructions","fullscreen","2","101161","0.0-2.0","3411512","coCA","norming","","true","","","","",""
"27356.415000000212","","","sona","survey-html-form","3","128522","0.0-3.0","3411512","coCA","norming","","","[{""name"":""sonaid"",""value"":""CA""},{""name"":""debrief"",""value"":""no""},{""name"":""datajoin"",""value"":""no""}]","","","",""
"102355.49999999965","<div style='word-wrap: break-word; width: 900px'><h3>Instructions</h3><p>This experiment will have 3 parts. In the first part you will see a series of distorted images like the one below on the left. As you can see in the righthand image, the distorted images are derived from actual photographs. In what follows, you will <strong>briefly</strong> be presented with <strong>only</strong> the distorted image.</p> <div style='float: left; margin-right: 20px;'><img src='../img/018tt.jpg' height='250' width='250'></img></div><div style='float: right; margin-left: 20px;'><img src='../img/018gs.jpg' height='250' width='250'></img></div><p>Subsequently you will be asked a few questions about the image: One question on how <strong>curious</strong> you are about the solution and one on how <strong>confident</strong> you are that you know the solution.</p>Next, we ask you to make a guess on what is in the image. Note that it is OK to name just the <strong>basic level category</strong>. For example when you see a parrot in the image, 'parrot' will obviously be a correct answer but also correct is 'bird'. However, 'animal' will <strong>not</strong> be counted as a correct response. For the example above, 'rose' would be correct or 'flower', but not 'plant'. When soccer players are depicted, 'soccer', 'football', 'soccer players' will be correct, but not 'humans', 'outdoors', or 'sports'. You do not need to describe the image in full, just name the main object in it <strong>in one or two words</strong>. All images depict objects from one of the following broad level categories: animals, inanimate objects, plants, sports, vehicles, and food. Recognizing means knowing <strong>more</strong> than these broad labels for a given image. But we always encourage you to <strong>make a guess</strong> if you can. Note that you are allowed to use <strong>Dutch and English</strong> in your answers, whatever comes easiest for you.</p><p>Press any key to continue.</p></div>","32","instructions","html-keyboard-response","4","230878","0.0-4.0","3411512","coCA","norming","","","","","","",""
"166749.960000001","<div style='word-wrap: break-word; width: 900px'><h3>Instructions</h3> <p>Next, the solution image will be revealed to you and you'll be asked to indicate how strong your <strong>aha-experience</strong> was after seeing the solution. This describes the positive feeling of the 'click' you sometimes experience, when the pieces of the 'puzzle' fall together and you suddenly have 'insight' in the image.</p><img src='aha.jpg' height='188' width='250'></img><p>Note that there are no right or wrong answers. We are interested in what <strong>you</strong> see in the image and how <strong>you</strong> feel about it.</p><p>Press any key to start the experiment.</p></div>","32","instructions","html-keyboard-response","5","397632","0.0-5.0","3411512","coCA","norming","","","","","","",""
"null","<div style=""font-size:60px;""> </div>","null","fixation","html-keyboard-response","6","397839","0.0-6.0-0.0","3411512","coCA","norming","","","","","","",""
"null","../img/tt/063tt.jpg","null","mooney1","image-keyboard-response","7","400850","0.0-6.0-1.0","3411512","coCA","norming","","","","","","",""
"11432.950000000303","","","post_mooney1_questions","survey-likert","8","412287","0.0-6.0-2.0","3411512","coCA","norming","","","{""curiosity"":1,""confidence"":4}","[0,1]","../img/tt/063tt.jpg","",""
"5533.62000000017","","","recognition","survey-text","9","417823","0.0-6.0-3.0","3411512","coCA","norming","","","{""guess"":""acordeon""}","","../img/tt/063tt.jpg","",""
"null","../img/gs/063gs.jpg","null","reveal","image-keyboard-response","10","419832","0.0-6.0-4.0","3411512","coCA","norming","","","","","","",""
"null","../img/tt/063tt.jpg","null","mooney2","image-keyboard-response","11","421843","0.0-6.0-5.0","3411512","coCA","norming","","","","","","",""
"4257.584999999381","","","post_reveal_questions","survey-likert","12","426102","0.0-6.0-6.0","3411512","coCA","norming","","","{""aha"":0}","[0]","../img/tt/063tt.jpg","",""
"null","<div style=""font-size:60px;""> </div>","null","fixation","html-keyboard-response","13","426305","0.0-6.0-0.1","3411512","coCA","norming","","","","","","",""
"null","../img/tt/1053tt.jpg","null","mooney1","image-keyboard-response","14","429316","0.0-6.0-1.1","3411512","coCA","norming","","","","","","",""
"6736.774999999383","","","post_mooney1_questions","survey-likert","15","436055","0.0-6.0-2.1","3411512","coCA","norming","","","{""curiosity"":0,""confidence"":5}","[0,1]","../img/tt/1053tt.jpg","",""
"3774.124999999942","","","recognition","survey-text","16","439830","0.0-6.0-3.1","3411512","coCA","norming","","","{""guess"":""koeien""}","","../img/tt/1053tt.jpg","",""
"null","../img/gs/1053gs.jpg","null","reveal","image-keyboard-response","17","441832","0.0-6.0-4.1","3411512","coCA","norming","","","","","","",""
"null","../img/tt/1053tt.jpg","null","mooney2","image-keyboard-response","18","443835","0.0-6.0-5.1","3411512","coCA","norming","","","","","","",""
"2265.1600000008475","","","post_reveal_questions","survey-likert","19","446102","0.0-6.0-6.1","3411512","coCA","norming","","","{""aha"":0}","[0]","../img/tt/1053tt.jpg","",""
"null","<div style=""font-size:60px;""> </div>","null","fixation","html-keyboard-response","20","446313","0.0-6.0-0.2","3411512","coCA","norming","","","","","","",""
"null","../img/tt/378tt.jpg","null","mooney1","image-keyboard-response","21","449319","0.0-6.0-1.2","3411512","coCA","norming","","","","","","",""
"9965.374999999767","","","post_mooney1_questions","survey-likert","22","459288","0.0-6.0-2.2","3411512","coCA","norming","","","{""curiosity"":4,""confidence"":0}","[0,1]","../img/tt/378tt.jpg","",""
"12086.030000000377","","","recognition","survey-text","23","471376","0.0-6.0-3.2","3411512","coCA","norming","","","{""guess"":""""}","","../img/tt/378tt.jpg","",""
"null","../img/gs/378gs.jpg","null","reveal","image-keyboard-response","24","473378","0.0-6.0-4.2","3411512","coCA","norming","","","","","","",""
"null","../img/tt/378tt.jpg","null","mooney2","image-keyboard-response","25","475381","0.0-6.0-5.2","3411512","coCA","norming","","","","","","",""
"5808.670000000333","","","post_reveal_questions","survey-likert","26","481192","0.0-6.0-6.2","3411512","coCA","norming","","","{""aha"":4}","[0]","../img/tt/378tt.jpg","",""
"null","<div style=""font-size:60px;""> </div>","null","fixation","html-keyboard-response","27","481395","0.0-6.0-0.3","3411512","coCA","norming","","","","","","",""
"null","../img/tt/1269tt.jpg","null","mooney1","image-keyboard-response","28","484400","0.0-6.0-1.3","3411512","coCA","norming","","","","","","",""
"7958.04999999929","","","post_mooney1_questions","survey-likert","29","492361","0.0-6.0-2.3","3411512","coCA","norming","","","{""curiosity"":4,""confidence"":1}","[0,1]","../img/tt/1269tt.jpg","",""
"2845.9700000003213","","","recognition","survey-text","30","495208","0.0-6.0-3.3","3411512","coCA","norming","","","{""guess"":""kat""}","","../img/tt/1269tt.jpg","",""
"null","../img/gs/1269gs.jpg","null","reveal","image-keyboard-response","31","497210","0.0-6.0-4.3","3411512","coCA","norming","","","","","","",""
"null","../img/tt/1269tt.jpg","null","mooney2","image-keyboard-response","32","499212","0.0-6.0-5.3","3411512","coCA","norming","","","","","","",""
"2258.529999999155","","","post_reveal_questions","survey-likert","33","501472","0.0-6.0-6.3","3411512","coCA","norming","","","{""aha"":5}","[0]","../img/tt/1269tt.jpg","",""
"null","<div style=""font-size:60px;""> </div>","null","fixation","html-keyboard-response","34","501677","0.0-6.0-0.4","3411512","coCA","norming","","","","","","",""
"null","../img/tt/135tt.jpg","null","mooney1","image-keyboard-response","35","504682","0.0-6.0-1.4","3411512","coCA","norming","","","","","","",""
"4876.139999998442","","","post_mooney1_questions","survey-likert","36","509560","0.0-6.0-2.4","3411512","coCA","norming","","","{""curiosity"":5,""confidence"":2}","[0,1]","../img/tt/135tt.jpg","",""
"7478.90499999997","","","recognition","survey-text","37","517041","0.0-6.0-3.4","3411512","coCA","norming","","","{""guess"":""wc-bril""}","","../img/tt/135tt.jpg","",""
"null","../img/gs/135gs.jpg","null","reveal","image-keyboard-response","38","519050","0.0-6.0-4.4","3411512","coCA","norming","","","","","","",""
"null","../img/tt/135tt.jpg","null","mooney2","image-keyboard-response","39","521063","0.0-6.0-5.4","3411512","coCA","norming","","","","","","",""
"2683.114999999758","","","post_reveal_questions","survey-likert","40","523749","0.0-6.0-6.4","3411512","coCA","norming","","","{""aha"":2}","[0]","../img/tt/135tt.jpg","",""
"null","<div style=""font-size:60px;""> </div>","null","fixation","html-keyboard-response","41","523951","0.0-6.0-0.5","3411512","coCA","norming","","","","","","",""
"null","../img/tt/079tt.jpg","null","mooney1","image-keyboard-response","42","526961","0.0-6.0-1.5","3411512","coCA","norming","","","","","","",""
"6169.1100000006845","","","post_mooney1_questions","survey-likert","43","533132","0.0-6.0-2.5","3411512","coCA","norming","","","{""curiosity"":4,""confidence"":2}","[0,1]","../img/tt/079tt.jpg","",""
"2150.464999998687","","","recognition","survey-text","44","535284","0.0-6.0-3.5","3411512","coCA","norming","","","{""guess"":""beer""}","","../img/tt/079tt.jpg","",""
"null","../img/gs/079gs.jpg","null","reveal","image-keyboard-response","45","537291","0.0-6.0-4.5","3411512","coCA","norming","","","","","","",""
"null","../img/tt/079tt.jpg","null","mooney2","image-keyboard-response","46","539298","0.0-6.0-5.5","3411512","coCA","norming","","","","","","",""
"1927.6900000005262","","","post_reveal_questions","survey-likert","47","541228","0.0-6.0-6.5","3411512","coCA","norming","","","{""aha"":2}","[0]","../img/tt/079tt.jpg","",""
"null","<div style=""font-size:60px;""> </div>","null","fixation","html-keyboard-response","48","541433","0.0-6.0-0.6","3411512","coCA","norming","","","","","","",""
"null","../img/tt/1189tt.jpg","null","mooney1","image-keyboard-response","49","544436","0.0-6.0-1.6","3411512","coCA","norming","","","","","","",""
"9750.070000000065","","","post_mooney1_questions","survey-likert","50","554189","0.0-6.0-2.6","3411512","coCA","norming","","","{""curiosity"":2,""confidence"":0}","[0,1]","../img/tt/1189tt.jpg","",""
"3942.2599999997765","","","recognition","survey-text","51","558133","0.0-6.0-3.6","3411512","coCA","norming","","","{""guess"":""zee""}","","../img/tt/1189tt.jpg","",""
"null","../img/gs/1189gs.jpg","null","reveal","image-keyboard-response","52","560135","0.0-6.0-4.6","3411512","coCA","norming","","","","","","",""
"null","../img/tt/1189tt.jpg","null","mooney2","image-keyboard-response","53","562143","0.0-6.0-5.6","3411512","coCA","norming","","","","","","",""
"3691.3349999996135","","","post_reveal_questions","survey-likert","54","565836","0.0-6.0-6.6","3411512","coCA","norming","","","{""aha"":3}","[0]","../img/tt/1189tt.jpg","",""
"null","<div style=""font-size:60px;""> </div>","null","fixation","html-keyboard-response","55","566042","0.0-6.0-0.7","3411512","coCA","norming","","","","","","",""
"null","../img/tt/049tt.jpg","null","mooney1","image-keyboard-response","56","569046","0.0-6.0-1.7","3411512","coCA","norming","","","","","","",""
"6859.719999998575","","","post_mooney1_questions","survey-likert","57","575908","0.0-6.0-2.7","3411512","coCA","norming","","","{""curiosity"":2,""confidence"":0}","[0,1]","../img/tt/049tt.jpg","",""
"3206.1599999997998","","","recognition","survey-text","58","579116","0.0-6.0-3.7","3411512","coCA","norming","","","{""guess"":""berg""}","","../img/tt/049tt.jpg","",""
"null","../img/gs/049gs.jpg","null","reveal","image-keyboard-response","59","581124","0.0-6.0-4.7","3411512","coCA","norming","","","","","","",""
"null","../img/tt/049tt.jpg","null","mooney2","image-keyboard-response","60","583130","0.0-6.0-5.7","3411512","coCA","norming","","","","","","",""
"3887.7000000011176","","","post_reveal_questions","survey-likert","61","587020","0.0-6.0-6.7","3411512","coCA","norming","","","{""aha"":2}","[0]","../img/tt/049tt.jpg","",""
"null","<div style=""font-size:60px;""> </div>","null","fixation","html-keyboard-response","62","587230","0.0-6.0-0.8","3411512","coCA","norming","","","","","","",""
"null","../img/tt/1148tt.jpg","null","mooney1","image-keyboard-response","63","590238","0.0-6.0-1.8","3411512","coCA","norming","","","","","","",""
"5867.229999999865","","","post_mooney1_questions","survey-likert","64","596108","0.0-6.0-2.8","3411512","coCA","norming","","","{""curiosity"":1,""confidence"":0}","[0,1]","../img/tt/1148tt.jpg","",""
"3382.095000000787","","","recognition","survey-text","65","599492","0.0-6.0-3.8","3411512","coCA","norming","","","{""guess"":""auto""}","","../img/tt/1148tt.jpg","",""
"null","../img/gs/1148gs.jpg","null","reveal","image-keyboard-response","66","601496","0.0-6.0-4.8","3411512","coCA","norming","","","","","","",""
"null","../img/tt/1148tt.jpg","null","mooney2","image-keyboard-response","67","603504","0.0-6.0-5.8","3411512","coCA","norming","","","","","","",""
"3545.8149999994785","","","post_reveal_questions","survey-likert","68","607052","0.0-6.0-6.8","3411512","coCA","norming","","","{""aha"":4}","[0]","../img/tt/1148tt.jpg","",""
"null","<div style=""font-size:60px;""> </div>","null","fixation","html-keyboard-response","69","607262","0.0-6.0-0.9","3411512","coCA","norming","","","","","","",""
"null","../img/tt/1188tt.jpg","null","mooney1","image-keyboard-response","70","610273","0.0-6.0-1.9","3411512","coCA","norming","","","","","","",""
"11232.524999999441","","","post_mooney1_questions","survey-likert","71","621508","0.0-6.0-2.9","3411512","coCA","norming","","","{""curiosity"":1,""confidence"":3}","[0,1]","../img/tt/1188tt.jpg","",""
"5222.230000001262","","","recognition","survey-text","72","626732","0.0-6.0-3.9","3411512","coCA","norming","","","{""guess"":""fietser""}","","../img/tt/1188tt.jpg","",""
"null","../img/gs/1188gs.jpg","null","reveal","image-keyboard-response","73","628735","0.0-6.0-4.9","3411512","coCA","norming","","","","","","",""
"null","../img/tt/1188tt.jpg","null","mooney2","image-keyboard-response","74","630743","0.0-6.0-5.9","3411512","coCA","norming","","","","","","",""
"3595.079999999143","","","post_reveal_questions","survey-likert","75","634340","0.0-6.0-6.9","3411512","coCA","norming","","","{""aha"":0}","[0]","../img/tt/1188tt.jpg","",""
"null","<div style=""font-size:60px;""> </div>","null","fixation","html-keyboard-response","76","634549","0.0-6.0-0.10","3411512","coCA","norming","","","","","","",""
"null","../img/tt/1255tt.jpg","null","mooney1","image-keyboard-response","77","637553","0.0-6.0-1.10","3411512","coCA","norming","","","","","","",""
"9409.654999999446","","","post_mooney1_questions","survey-likert","78","646961","0.0-6.0-2.10","3411512","coCA","norming","","","{""curiosity"":3,""confidence"":0}","[0,1]","../img/tt/1255tt.jpg","",""
"2774.220000001136","","","recognition","survey-text","79","649736","0.0-6.0-3.10","3411512","coCA","norming","","","{""guess"":""mens""}","","../img/tt/1255tt.jpg","",""
"null","../img/gs/1255gs.jpg","null","reveal","image-keyboard-response","80","651739","0.0-6.0-4.10","3411512","coCA","norming","","","","","","",""
"null","../img/tt/1255tt.jpg","null","mooney2","image-keyboard-response","81","653746","0.0-6.0-5.10","3411512","coCA","norming","","","","","","",""
"2908.0600000015693","","","post_reveal_questions","survey-likert","82","656656","0.0-6.0-6.10","3411512","coCA","norming","","","{""aha"":3}","[0]","../img/tt/1255tt.jpg","",""
"null","<div style=""font-size:60px;""> </div>","null","fixation","html-keyboard-response","83","656860","0.0-6.0-0.11","3411512","coCA","norming","","","","","","",""
"null","../img/tt/1146tt.jpg","null","mooney1","image-keyboard-response","84","659868","0.0-6.0-1.11","3411512","coCA","norming","","","","","","",""
"13338.524999999208","","","post_mooney1_questions","survey-likert","85","673209","0.0-6.0-2.11","3411512","coCA","norming","","","{""curiosity"":3,""confidence"":1}","[0,1]","../img/tt/1146tt.jpg","",""
"6742.005000000121","","","recognition","survey-text","86","679952","0.0-6.0-3.11","3411512","coCA","norming","","","{""guess"":""relaxerende vrouw""}","","../img/tt/1146tt.jpg","",""
"null","../img/gs/1146gs.jpg","null","reveal","image-keyboard-response","87","681960","0.0-6.0-4.11","3411512","coCA","norming","","","","","","",""
"null","../img/tt/1146tt.jpg","null","mooney2","image-keyboard-response","88","683961","0.0-6.0-5.11","3411512","coCA","norming","","","","","","",""
"1789.6949999994831","","","post_reveal_questions","survey-likert","89","685752","0.0-6.0-6.11","3411512","coCA","norming","","","{""aha"":5}","[0]","../img/tt/1146tt.jpg","",""
"null","<div style=""font-size:60px;""> </div>","null","fixation","html-keyboard-response","90","685958","0.0-6.0-0.12","3411512","coCA","norming","","","","","","",""
"null","../img/tt/1024tt.jpg","null","mooney1","image-keyboard-response","91","688968","0.0-6.0-1.12","3411512","coCA","norming","","","","","","",""
"7853.585000000661","","","post_mooney1_questions","survey-likert","92","696824","0.0-6.0-2.12","3411512","coCA","norming","","","{""curiosity"":2,""confidence"":1}","[0,1]","../img/tt/1024tt.jpg","",""
"3734.0550000007497","","","recognition","survey-text","93","700560","0.0-6.0-3.12","3411512","coCA","norming","","","{""guess"":""tennis""}","","../img/tt/1024tt.jpg","",""
"null","../img/gs/1024gs.jpg","null","reveal","image-keyboard-response","94","702569","0.0-6.0-4.12","3411512","coCA","norming","","","","","","",""
"null","../img/tt/1024tt.jpg","null","mooney2","image-keyboard-response","95","704578","0.0-6.0-5.12","3411512","coCA","norming","","","","","","",""
"3801.265000000014","","","post_reveal_questions","survey-likert","96","708381","0.0-6.0-6.12","3411512","coCA","norming","","","{""aha"":6}","[0]","../img/tt/1024tt.jpg","",""
"null","<div style=""font-size:60px;""> </div>","null","fixation","html-keyboard-response","97","708588","0.0-6.0-0.13","3411512","coCA","norming","","","","","","",""
"null","../img/tt/1128tt.jpg","null","mooney1","image-keyboard-response","98","711593","0.0-6.0-1.13","3411512","coCA","norming","","","","","","",""
"3817.8399999997346","","","post_mooney1_questions","survey-likert","99","715413","0.0-6.0-2.13","3411512","coCA","norming","","","{""curiosity"":2,""confidence"":1}","[0,1]","../img/tt/1128tt.jpg","",""
"4006.0049999991897","","","recognition","survey-text","100","719421","0.0-6.0-3.13","3411512","coCA","norming","","","{""guess"":""zittende jongen""}","","../img/tt/1128tt.jpg","",""
"null","../img/gs/1128gs.jpg","null","reveal","image-keyboard-response","101","721423","0.0-6.0-4.13","3411512","coCA","norming","","","","","","",""
"null","../img/tt/1128tt.jpg","null","mooney2","image-keyboard-response","102","723428","0.0-6.0-5.13","3411512","coCA","norming","","","","","","",""
"3639.224999998929","","","post_reveal_questions","survey-likert","103","727069","0.0-6.0-6.13","3411512","coCA","norming","","","{""aha"":4}","[0]","../img/tt/1128tt.jpg","",""
"null","<div style=""font-size:60px;""> </div>","null","fixation","html-keyboard-response","104","727273","0.0-6.0-0.14","3411512","coCA","norming","","","","","","",""
"null","../img/tt/534tt.jpg","null","mooney1","image-keyboard-response","105","730278","0.0-6.0-1.14","3411512","coCA","norming","","","","","","",""
"5428.90500000061","","","post_mooney1_questions","survey-likert","106","735709","0.0-6.0-2.14","3411512","coCA","norming","","","{""curiosity"":4,""confidence"":0}","[0,1]","../img/tt/534tt.jpg","",""
"2806.1099999995204","","","recognition","survey-text","107","738517","0.0-6.0-3.14","3411512","coCA","norming","","","{""guess"":""cactus""}","","../img/tt/534tt.jpg","",""
"null","../img/gs/534gs.jpg","null","reveal","image-keyboard-response","108","740518","0.0-6.0-4.14","3411512","coCA","norming","","","","","","",""
"null","../img/tt/534tt.jpg","null","mooney2","image-keyboard-response","109","742520","0.0-6.0-5.14","3411512","coCA","norming","","","","","","",""
"2794.4349999997066","","","post_reveal_questions","survey-likert","110","745317","0.0-6.0-6.14","3411512","coCA","norming","","","{""aha"":5}","[0]","../img/tt/534tt.jpg","",""
"null","<div style=""font-size:60px;""> </div>","null","fixation","html-keyboard-response","111","745525","0.0-6.0-0.15","3411512","coCA","norming","","","","","","",""
"null","../img/tt/380tt.jpg","null","mooney1","image-keyboard-response","112","748534","0.0-6.0-1.15","3411512","coCA","norming","","","","","","",""
"4876.420000000508","","","post_mooney1_questions","survey-likert","113","753413","0.0-6.0-2.15","3411512","coCA","norming","","","{""curiosity"":4,""confidence"":1}","[0,1]","../img/tt/380tt.jpg","",""
"2581.6950000007637","","","recognition","survey-text","114","755997","0.0-6.0-3.15","3411512","coCA","norming","","","{""guess"":""rat""}","","../img/tt/380tt.jpg","",""
"null","../img/gs/380gs.jpg","null","reveal","image-keyboard-response","115","758007","0.0-6.0-4.15","3411512","coCA","norming","","","","","","",""
"null","../img/tt/380tt.jpg","null","mooney2","image-keyboard-response","116","760014","0.0-6.0-5.15","3411512","coCA","norming","","","","","","",""
"3006.0600000015693","","","post_reveal_questions","survey-likert","117","763021","0.0-6.0-6.15","3411512","coCA","norming","","","{""aha"":6}","[0]","../img/tt/380tt.jpg","",""
"null","<div style=""font-size:60px;""> </div>","null","fixation","html-keyboard-response","118","763226","0.0-6.0-0.16","3411512","coCA","norming","","","","","","",""
"null","../img/tt/1251tt.jpg","null","mooney1","image-keyboard-response","119","766236","0.0-6.0-1.16","3411512","coCA","norming","","","","","","",""
"5710.064999999246","","","post_mooney1_questions","survey-likert","120","771949","0.0-6.0-2.16","3411512","coCA","norming","","","{""curiosity"":2,""confidence"":0}","[0,1]","../img/tt/1251tt.jpg","",""
"2773.9299999993527","","","recognition","survey-text","121","774725","0.0-6.0-3.16","3411512","coCA","norming","","","{""guess"":""weide""}","","../img/tt/1251tt.jpg","",""
"null","../img/gs/1251gs.jpg","null","reveal","image-keyboard-response","122","776730","0.0-6.0-4.16","3411512","coCA","norming","","","","","","",""
"null","../img/tt/1251tt.jpg","null","mooney2","image-keyboard-response","123","778741","0.0-6.0-5.16","3411512","coCA","norming","","","","","","",""
"2557.9999999990687","","","post_reveal_questions","survey-likert","124","781301","0.0-6.0-6.16","3411512","coCA","norming","","","{""aha"":2}","[0]","../img/tt/1251tt.jpg","",""
"null","<div style=""font-size:60px;""> </div>","null","fixation","html-keyboard-response","125","781502","0.0-6.0-0.17","3411512","coCA","norming","","","","","","",""
"null","../img/tt/118tt.jpg","null","mooney1","image-keyboard-response","126","784509","0.0-6.0-1.17","3411512","coCA","norming","","","","","","",""
"4533.1900000000605","","","post_mooney1_questions","survey-likert","127","789045","0.0-6.0-2.17","3411512","coCA","norming","","","{""curiosity"":3,""confidence"":1}","[0,1]","../img/tt/118tt.jpg","",""
"2334.224999998696","","","recognition","survey-text","128","791381","0.0-6.0-3.17","3411512","coCA","norming","","","{""guess"":""bank""}","","../img/tt/118tt.jpg","",""
"null","../img/gs/118gs.jpg","null","reveal","image-keyboard-response","129","793388","0.0-6.0-4.17","3411512","coCA","norming","","","","","","",""
"null","../img/tt/118tt.jpg","null","mooney2","image-keyboard-response","130","795396","0.0-6.0-5.17","3411512","coCA","norming","","","","","","",""
"2462.4299999995856","","","post_reveal_questions","survey-likert","131","797861","0.0-6.0-6.17","3411512","coCA","norming","","","{""aha"":4}","[0]","../img/tt/118tt.jpg","",""
"null","<div style=""font-size:60px;""> </div>","null","fixation","html-keyboard-response","132","798069","0.0-6.0-0.18","3411512","coCA","norming","","","","","","",""
"null","../img/tt/567tt.jpg","null","mooney1","image-keyboard-response","133","801073","0.0-6.0-1.18","3411512","coCA","norming","","","","","","",""
"8921.444999999949","","","post_mooney1_questions","survey-likert","134","809997","0.0-6.0-2.18","3411512","coCA","norming","","","{""curiosity"":5,""confidence"":0}","[0,1]","../img/tt/567tt.jpg","",""
"3430.159999999916","","","recognition","survey-text","135","813429","0.0-6.0-3.18","3411512","coCA","norming","","","{""guess"":""kaasplank""}","","../img/tt/567tt.jpg","",""
"null","../img/gs/567gs.jpg","null","reveal","image-keyboard-response","136","815434","0.0-6.0-4.18","3411512","coCA","norming","","","","","","",""
"null","../img/tt/567tt.jpg","null","mooney2","image-keyboard-response","137","817436","0.0-6.0-5.18","3411512","coCA","norming","","","","","","",""
"3942.789999999106","","","post_reveal_questions","survey-likert","138","821381","0.0-6.0-6.18","3411512","coCA","norming","","","{""aha"":4}","[0]","../img/tt/567tt.jpg","",""
"null","<div style=""font-size:60px;""> </div>","null","fixation","html-keyboard-response","139","821591","0.0-6.0-0.19","3411512","coCA","norming","","","","","","",""
"null","../img/tt/194tt.jpg","null","mooney1","image-keyboard-response","140","824602","0.0-6.0-1.19","3411512","coCA","norming","","","","","","",""
"6471.965000000666","","","post_mooney1_questions","survey-likert","141","831069","0.0-6.0-2.19","3411512","coCA","norming","","","{""curiosity"":3,""confidence"":3}","[0,1]","../img/tt/194tt.jpg","",""
"6574.110000001383","","","recognition","survey-text","142","837645","0.0-6.0-3.19","3411512","coCA","norming","","","{""guess"":""vrouw harp""}","","../img/tt/194tt.jpg","",""
"null","../img/gs/194gs.jpg","null","reveal","image-keyboard-response","143","839650","0.0-6.0-4.19","3411512","coCA","norming","","","","","","",""
"null","../img/tt/194tt.jpg","null","mooney2","image-keyboard-response","144","841659","0.0-6.0-5.19","3411512","coCA","norming","","","","","","",""
"2991.7999999998137","","","post_reveal_questions","survey-likert","145","844653","0.0-6.0-6.19","3411512","coCA","norming","","","{""aha"":1}","[0]","../img/tt/194tt.jpg","",""
"null","<div style=""font-size:60px;""> </div>","null","fixation","html-keyboard-response","146","844861","0.0-6.0-0.20","3411512","coCA","norming","","","","","","",""
"null","../img/tt/1237tt.jpg","null","mooney1","image-keyboard-response","147","847865","0.0-6.0-1.20","3411512","coCA","norming","","","","","","",""
"8769.82999999926","","","post_mooney1_questions","survey-likert","148","856637","0.0-6.0-2.20","3411512","coCA","norming","","","{""curiosity"":0,""confidence"":6}","[0,1]","../img/tt/1237tt.jpg","",""
"1901.9600000010105","","","recognition","survey-text","149","858541","0.0-6.0-3.20","3411512","coCA","norming","","","{""guess"":""eend""}","","../img/tt/1237tt.jpg","",""
"null","../img/gs/1237gs.jpg","null","reveal","image-keyboard-response","150","860552","0.0-6.0-4.20","3411512","coCA","norming","","","","","","",""
"null","../img/tt/1237tt.jpg","null","mooney2","image-keyboard-response","151","862556","0.0-6.0-5.20","3411512","coCA","norming","","","","","","",""
"2518.7050000004238","","","post_reveal_questions","survey-likert","152","865077","0.0-6.0-6.20","3411512","coCA","norming","","","{""aha"":0}","[0]","../img/tt/1237tt.jpg","",""
"null","<div style=""font-size:60px;""> </div>","null","fixation","html-keyboard-response","153","865285","0.0-6.0-0.21","3411512","coCA","norming","","","","","","",""
"null","../img/tt/1290tt.jpg","null","mooney1","image-keyboard-response","154","868290","0.0-6.0-1.21","3411512","coCA","norming","","","","","","",""
"5343.989999999409","","","post_mooney1_questions","survey-likert","155","873637","0.0-6.0-2.21","3411512","coCA","norming","","","{""curiosity"":2,""confidence"":1}","[0,1]","../img/tt/1290tt.jpg","",""
"5686.055000000168","","","recognition","survey-text","156","879325","0.0-6.0-3.21","3411512","coCA","norming","","","{""guess"":""jutten zak""}","","../img/tt/1290tt.jpg","",""
"null","../img/gs/1290gs.jpg","null","reveal","image-keyboard-response","157","881334","0.0-6.0-4.21","3411512","coCA","norming","","","","","","",""
"null","../img/tt/1290tt.jpg","null","mooney2","image-keyboard-response","158","883344","0.0-6.0-5.21","3411512","coCA","norming","","","","","","",""
"2418.9500000011176","","","post_reveal_questions","survey-likert","159","885765","0.0-6.0-6.21","3411512","coCA","norming","","","{""aha"":6}","[0]","../img/tt/1290tt.jpg","",""
"null","<div style=""font-size:60px;""> </div>","null","fixation","html-keyboard-response","160","885973","0.0-6.0-0.22","3411512","coCA","norming","","","","","","",""
"null","../img/tt/358tt.jpg","null","mooney1","image-keyboard-response","161","888980","0.0-6.0-1.22","3411512","coCA","norming","","","","","","",""
"6288.034999999567","","","post_mooney1_questions","survey-likert","162","895268","0.0-6.0-2.22","3411512","coCA","norming","","","{""curiosity"":2,""confidence"":1}","[0,1]","../img/tt/358tt.jpg","",""
"1349.5999999996275","","","recognition","survey-text","163","896620","0.0-6.0-3.22","3411512","coCA","norming","","","{""guess"":""aap""}","","../img/tt/358tt.jpg","",""
"null","../img/gs/358gs.jpg","null","reveal","image-keyboard-response","164","898621","0.0-6.0-4.22","3411512","coCA","norming","","","","","","",""
"null","../img/tt/358tt.jpg","null","mooney2","image-keyboard-response","165","900627","0.0-6.0-5.22","3411512","coCA","norming","","","","","","",""
"3687.695000000531","","","post_reveal_questions","survey-likert","166","904316","0.0-6.0-6.22","3411512","coCA","norming","","","{""aha"":4}","[0]","../img/tt/358tt.jpg","",""
"null","<div style=""font-size:60px;""> </div>","null","fixation","html-keyboard-response","167","904521","0.0-6.0-0.23","3411512","coCA","norming","","","","","","",""
"null","../img/tt/123tt.jpg","null","mooney1","image-keyboard-response","168","907531","0.0-6.0-1.23","3411512","coCA","norming","","","","","","",""
"11152.435000000056","","","post_mooney1_questions","survey-likert","169","918684","0.0-6.0-2.23","3411512","coCA","norming","","","{""curiosity"":5,""confidence"":0}","[0,1]","../img/tt/123tt.jpg","",""
"12606.125000000233","","","recognition","survey-text","170","931292","0.0-6.0-3.23","3411512","coCA","norming","","","{""guess"":""biljarttafel""}","","../img/tt/123tt.jpg","",""
"null","../img/gs/123gs.jpg","null","reveal","image-keyboard-response","171","933298","0.0-6.0-4.23","3411512","coCA","norming","","","","","","",""
"null","../img/tt/123tt.jpg","null","mooney2","image-keyboard-response","172","935300","0.0-6.0-5.23","3411512","coCA","norming","","","","","","",""
"4174.315000000177","","","post_reveal_questions","survey-likert","173","939476","0.0-6.0-6.23","3411512","coCA","norming","","","{""aha"":4}","[0]","../img/tt/123tt.jpg","",""
"null","<div style=""font-size:60px;""> </div>","null","fixation","html-keyboard-response","174","939682","0.0-6.0-0.24","3411512","coCA","norming","","","","","","",""
"null","../img/tt/1224tt.jpg","null","mooney1","image-keyboard-response","175","942692","0.0-6.0-1.24","3411512","coCA","norming","","","","","","",""
"4179.669999999576","","","post_mooney1_questions","survey-likert","176","946876","0.0-6.0-2.24","3411512","coCA","norming","","","{""curiosity"":2,""confidence"":1}","[0,1]","../img/tt/1224tt.jpg","",""
"3214.059999998426","","","recognition","survey-text","177","950092","0.0-6.0-3.24","3411512","coCA","norming","","","{""guess"":""gitaar man""}","","../img/tt/1224tt.jpg","",""
"null","../img/gs/1224gs.jpg","null","reveal","image-keyboard-response","178","952093","0.0-6.0-4.24","3411512","coCA","norming","","","","","","",""
"null","../img/tt/1224tt.jpg","null","mooney2","image-keyboard-response","179","954108","0.0-6.0-5.24","3411512","coCA","norming","","","","","","",""
"2737.365000000922","","","post_reveal_questions","survey-likert","180","956847","0.0-6.0-6.24","3411512","coCA","norming","","","{""aha"":5}","[0]","../img/tt/1224tt.jpg","",""
"null","<div style=""font-size:60px;""> </div>","null","fixation","html-keyboard-response","181","957051","0.0-6.0-0.25","3411512","coCA","norming","","","","","","",""
"null","../img/tt/1044tt.jpg","null","mooney1","image-keyboard-response","182","960060","0.0-6.0-1.25","3411512","coCA","norming","","","","","","",""
"10289.984999999404","","","post_mooney1_questions","survey-likert","183","970351","0.0-6.0-2.25","3411512","coCA","norming","","","{""curiosity"":3,""confidence"":0}","[0,1]","../img/tt/1044tt.jpg","",""
"2389.905000000028","","","recognition","survey-text","184","972742","0.0-6.0-3.25","3411512","coCA","norming","","","{""guess"":""mand""}","","../img/tt/1044tt.jpg","",""
"null","../img/gs/1044gs.jpg","null","reveal","image-keyboard-response","185","974744","0.0-6.0-4.25","3411512","coCA","norming","","","","","","",""
"null","../img/tt/1044tt.jpg","null","mooney2","image-keyboard-response","186","976754","0.0-6.0-5.25","3411512","coCA","norming","","","","","","",""
"3355.480000000214","","","post_reveal_questions","survey-likert","187","980110","0.0-6.0-6.25","3411512","coCA","norming","","","{""aha"":3}","[0]","../img/tt/1044tt.jpg","",""
"null","<div style=""font-size:60px;""> </div>","null","fixation","html-keyboard-response","188","980313","0.0-6.0-0.26","3411512","coCA","norming","","","","","","",""
"null","../img/tt/273tt.jpg","null","mooney1","image-keyboard-response","189","983316","0.0-6.0-1.26","3411512","coCA","norming","","","","","","",""
"7743.634999998962","","","post_mooney1_questions","survey-likert","190","991063","0.0-6.0-2.26","3411512","coCA","norming","","","{""curiosity"":1,""confidence"":3}","[0,1]","../img/tt/273tt.jpg","",""
"3230.1999999999534","","","recognition","survey-text","191","994295","0.0-6.0-3.26","3411512","coCA","norming","","","{""guess"":""mond gezicht""}","","../img/tt/273tt.jpg","",""
"null","../img/gs/273gs.jpg","null","reveal","image-keyboard-response","192","996306","0.0-6.0-4.26","3411512","coCA","norming","","","","","","",""
"null","../img/tt/273tt.jpg","null","mooney2","image-keyboard-response","193","998316","0.0-6.0-5.26","3411512","coCA","norming","","","","","","",""
"2216.19500000088","","","post_reveal_questions","survey-likert","194","1000535","0.0-6.0-6.26","3411512","coCA","norming","","","{""aha"":0}","[0]","../img/tt/273tt.jpg","",""
"null","<div style=""font-size:60px;""> </div>","null","fixation","html-keyboard-response","195","1000736","0.0-6.0-0.27","3411512","coCA","norming","","","","","","",""
"null","../img/tt/001tt.jpg","null","mooney1","image-keyboard-response","196","1003743","0.0-6.0-1.27","3411512","coCA","norming","","","","","","",""
"5268.439999999828","","","post_mooney1_questions","survey-likert","197","1009015","0.0-6.0-2.27","3411512","coCA","norming","","","{""curiosity"":3,""confidence"":1}","[0,1]","../img/tt/001tt.jpg","",""
"3021.7599999995437","","","recognition","survey-text","198","1012038","0.0-6.0-3.27","3411512","coCA","norming","","","{""guess"":""vogel""}","","../img/tt/001tt.jpg","",""
"null","../img/gs/001gs.jpg","null","reveal","image-keyboard-response","199","1014047","0.0-6.0-4.27","3411512","coCA","norming","","","","","","",""
"null","../img/tt/001tt.jpg","null","mooney2","image-keyboard-response","200","1016052","0.0-6.0-5.27","3411512","coCA","norming","","","","","","",""
"2450.600000000093","","","post_reveal_questions","survey-likert","201","1018504","0.0-6.0-6.27","3411512","coCA","norming","","","{""aha"":6}","[0]","../img/tt/001tt.jpg","",""
"null","<div style=""font-size:60px;""> </div>","null","fixation","html-keyboard-response","202","1018715","0.0-6.0-0.28","3411512","coCA","norming","","","","","","",""
"null","../img/tt/1268tt.jpg","null","mooney1","image-keyboard-response","203","1021721","0.0-6.0-1.28","3411512","coCA","norming","","","","","","",""
"6413.779999998864","","","post_mooney1_questions","survey-likert","204","1028144","0.0-6.0-2.28","3411512","coCA","norming","","","{""curiosity"":2,""confidence"":1}","[0,1]","../img/tt/1268tt.jpg","",""
"2693.924999999581","","","recognition","survey-text","205","1030840","0.0-6.0-3.28","3411512","coCA","norming","","","{""guess"":""zandbank""}","","../img/tt/1268tt.jpg","",""
"null","../img/gs/1268gs.jpg","null","reveal","image-keyboard-response","206","1032848","0.0-6.0-4.28","3411512","coCA","norming","","","","","","",""
"null","../img/tt/1268tt.jpg","null","mooney2","image-keyboard-response","207","1034853","0.0-6.0-5.28","3411512","coCA","norming","","","","","","",""
"3184.479999999865","","","post_reveal_questions","survey-likert","208","1038040","0.0-6.0-6.28","3411512","coCA","norming","","","{""aha"":3}","[0]","../img/tt/1268tt.jpg","",""
"null","<div style=""font-size:60px;""> </div>","null","fixation","html-keyboard-response","209","1038251","0.0-6.0-0.29","3411512","coCA","norming","","","","","","",""
"null","../img/tt/1173tt.jpg","null","mooney1","image-keyboard-response","210","1041259","0.0-6.0-1.29","3411512","coCA","norming","","","","","","",""
"9818.069999999367","","","post_mooney1_questions","survey-likert","211","1051080","0.0-6.0-2.29","3411512","coCA","norming","","","{""curiosity"":2,""confidence"":2}","[0,1]","../img/tt/1173tt.jpg","",""
"9453.974999998463","","","recognition","survey-text","212","1060536","0.0-6.0-3.29","3411512","coCA","norming","","","{""guess"":""twee mensen""}","","../img/tt/1173tt.jpg","",""
"null","../img/gs/1173gs.jpg","null","reveal","image-keyboard-response","213","1062546","0.0-6.0-4.29","3411512","coCA","norming","","","","","","",""
"null","../img/tt/1173tt.jpg","null","mooney2","image-keyboard-response","214","1064549","0.0-6.0-5.29","3411512","coCA","norming","","","","","","",""
"2512.719999998808","","","post_reveal_questions","survey-likert","215","1067064","0.0-6.0-6.29","3411512","coCA","norming","","","{""aha"":3}","[0]","../img/tt/1173tt.jpg","",""
"null","<div style=""font-size:60px;""> </div>","null","fixation","html-keyboard-response","216","1067272","0.0-6.0-0.30","3411512","coCA","norming","","","","","","",""
"null","../img/tt/1171tt.jpg","null","mooney1","image-keyboard-response","217","1070280","0.0-6.0-1.30","3411512","coCA","norming","","","","","","",""
"6244.675000000047","","","post_mooney1_questions","survey-likert","218","1076522","0.0-6.0-2.30","3411512","coCA","norming","","","{""curiosity"":3,""confidence"":1}","[0,1]","../img/tt/1171tt.jpg","",""
"2614.0649999997113","","","recognition","survey-text","219","1079138","0.0-6.0-3.30","3411512","coCA","norming","","","{""guess"":""wildernis""}","","../img/tt/1171tt.jpg","",""
"null","../img/gs/1171gs.jpg","null","reveal","image-keyboard-response","220","1081149","0.0-6.0-4.30","3411512","coCA","norming","","","","","","",""
"null","../img/tt/1171tt.jpg","null","mooney2","image-keyboard-response","221","1083151","0.0-6.0-5.30","3411512","coCA","norming","","","","","","",""
"4608.905000000959","","","post_reveal_questions","survey-likert","222","1087762","0.0-6.0-6.30","3411512","coCA","norming","","","{""aha"":2}","[0]","../img/tt/1171tt.jpg","",""
"null","<div style=""font-size:60px;""> </div>","null","fixation","html-keyboard-response","223","1087971","0.0-6.0-0.31","3411512","coCA","norming","","","","","","",""
"null","../img/tt/1186tt.jpg","null","mooney1","image-keyboard-response","224","1090978","0.0-6.0-1.31","3411512","coCA","norming","","","","","","",""
"11469.225000000792","","","post_mooney1_questions","survey-likert","225","1102450","0.0-6.0-2.31","3411512","coCA","norming","","","{""curiosity"":3,""confidence"":1}","[0,1]","../img/tt/1186tt.jpg","",""
"4597.854999999981","","","recognition","survey-text","226","1107050","0.0-6.0-3.31","3411512","coCA","norming","","","{""guess"":""man trekrugzak""}","","../img/tt/1186tt.jpg","",""
"null","../img/gs/1186gs.jpg","null","reveal","image-keyboard-response","227","1109057","0.0-6.0-4.31","3411512","coCA","norming","","","","","","",""
"null","../img/tt/1186tt.jpg","null","mooney2","image-keyboard-response","228","1111061","0.0-6.0-5.31","3411512","coCA","norming","","","","","","",""
"2794.6650000012014","","","post_reveal_questions","survey-likert","229","1113858","0.0-6.0-6.31","3411512","coCA","norming","","","{""aha"":3}","[0]","../img/tt/1186tt.jpg","",""
"null","<div style=""font-size:60px;""> </div>","null","fixation","html-keyboard-response","230","1114068","0.0-6.0-0.32","3411512","coCA","norming","","","","","","",""
"null","../img/tt/1063tt.jpg","null","mooney1","image-keyboard-response","231","1117074","0.0-6.0-1.32","3411512","coCA","norming","","","","","","",""
"7149.124999999767","","","post_mooney1_questions","survey-likert","232","1124226","0.0-6.0-2.32","3411512","coCA","norming","","","{""curiosity"":3,""confidence"":2}","[0,1]","../img/tt/1063tt.jpg","",""
"2629.91999999946","","","recognition","survey-text","233","1126858","0.0-6.0-3.32","3411512","coCA","norming","","","{""guess"":""dier""}","","../img/tt/1063tt.jpg","",""
"null","../img/gs/1063gs.jpg","null","reveal","image-keyboard-response","234","1128863","0.0-6.0-4.32","3411512","coCA","norming","","","","","","",""
"null","../img/tt/1063tt.jpg","null","mooney2","image-keyboard-response","235","1130873","0.0-6.0-5.32","3411512","coCA","norming","","","","","","",""
"3150.5749999997206","","","post_reveal_questions","survey-likert","236","1134026","0.0-6.0-6.32","3411512","coCA","norming","","","{""aha"":2}","[0]","../img/tt/1063tt.jpg","",""
"null","<div style=""font-size:60px;""> </div>","null","fixation","html-keyboard-response","237","1134232","0.0-6.0-0.33","3411512","coCA","norming","","","","","","",""
"null","../img/tt/1127tt.jpg","null","mooney1","image-keyboard-response","238","1137250","0.0-6.0-1.33","3411512","coCA","norming","","","","","","",""
"6373.105000000447","","","post_mooney1_questions","survey-likert","239","1143626","0.0-6.0-2.33","3411512","coCA","norming","","","{""curiosity"":0,""confidence"":2}","[0,1]","../img/tt/1127tt.jpg","",""
"3358.2549999991897","","","recognition","survey-text","240","1146986","0.0-6.0-3.33","3411512","coCA","norming","","","{""guess"":""gebouw""}","","../img/tt/1127tt.jpg","",""
"null","../img/gs/1127gs.jpg","null","reveal","image-keyboard-response","241","1148990","0.0-6.0-4.33","3411512","coCA","norming","","","","","","",""
"null","../img/tt/1127tt.jpg","null","mooney2","image-keyboard-response","242","1151000","0.0-6.0-5.33","3411512","coCA","norming","","","","","","",""
"3494.9699999997392","","","post_reveal_questions","survey-likert","243","1154498","0.0-6.0-6.33","3411512","coCA","norming","","","{""aha"":3}","[0]","../img/tt/1127tt.jpg","",""
"null","<div style=""font-size:60px;""> </div>","null","fixation","html-keyboard-response","244","1154700","0.0-6.0-0.34","3411512","coCA","norming","","","","","","",""
"null","../img/tt/1226tt.jpg","null","mooney1","image-keyboard-response","245","1157704","0.0-6.0-1.34","3411512","coCA","norming","","","","","","",""
"13895.285000000615","","","post_mooney1_questions","survey-likert","246","1171602","0.0-6.0-2.34","3411512","coCA","norming","","","{""curiosity"":4,""confidence"":0}","[0,1]","../img/tt/1226tt.jpg","",""
"1574.2599999993108","","","recognition","survey-text","247","1173178","0.0-6.0-3.34","3411512","coCA","norming","","","{""guess"":""kip""}","","../img/tt/1226tt.jpg","",""
"null","../img/gs/1226gs.jpg","null","reveal","image-keyboard-response","248","1175185","0.0-6.0-4.34","3411512","coCA","norming","","","","","","",""
"null","../img/tt/1226tt.jpg","null","mooney2","image-keyboard-response","249","1177196","0.0-6.0-5.34","3411512","coCA","norming","","","","","","",""
"3155.645000000717","","","post_reveal_questions","survey-likert","250","1180354","0.0-6.0-6.34","3411512","coCA","norming","","","{""aha"":5}","[0]","../img/tt/1226tt.jpg","",""
"null","<div style=""font-size:60px;""> </div>","null","fixation","html-keyboard-response","251","1180556","0.0-6.0-0.35","3411512","coCA","norming","","","","","","",""
"null","../img/tt/599tt.jpg","null","mooney1","image-keyboard-response","252","1183559","0.0-6.0-1.35","3411512","coCA","norming","","","","","","",""
"10297.125000000931","","","post_mooney1_questions","survey-likert","253","1193858","0.0-6.0-2.35","3411512","coCA","norming","","","{""curiosity"":4,""confidence"":1}","[0,1]","../img/tt/599tt.jpg","",""
"1478.1949999995995","","","recognition","survey-text","254","1195337","0.0-6.0-3.35","3411512","coCA","norming","","","{""guess"":""kat""}","","../img/tt/599tt.jpg","",""
"null","../img/gs/599gs.jpg","null","reveal","image-keyboard-response","255","1197348","0.0-6.0-4.35","3411512","coCA","norming","","","","","","",""
"null","../img/tt/599tt.jpg","null","mooney2","image-keyboard-response","256","1199350","0.0-6.0-5.35","3411512","coCA","norming","","","","","","",""
"2954.714999999851","","","post_reveal_questions","survey-likert","257","1202307","0.0-6.0-6.35","3411512","coCA","norming","","","{""aha"":3}","[0]","../img/tt/599tt.jpg","",""
"null","<div style=""font-size:60px;""> </div>","null","fixation","html-keyboard-response","258","1202511","0.0-6.0-0.36","3411512","coCA","norming","","","","","","",""
"null","../img/tt/1156tt.jpg","null","mooney1","image-keyboard-response","259","1205515","0.0-6.0-1.36","3411512","coCA","norming","","","","","","",""
"8956.720000000205","","","post_mooney1_questions","survey-likert","260","1214475","0.0-6.0-2.36","3411512","coCA","norming","","","{""curiosity"":0,""confidence"":4}","[0,1]","../img/tt/1156tt.jpg","",""
"3053.8599999998696","","","recognition","survey-text","261","1217530","0.0-6.0-3.36","3411512","coCA","norming","","","{""guess"":""zonnenbaden""}","","../img/tt/1156tt.jpg","",""
"null","../img/gs/1156gs.jpg","null","reveal","image-keyboard-response","262","1219532","0.0-6.0-4.36","3411512","coCA","norming","","","","","","",""
"null","../img/tt/1156tt.jpg","null","mooney2","image-keyboard-response","263","1221543","0.0-6.0-5.36","3411512","coCA","norming","","","","","","",""
"2360.9850000012666","","","post_reveal_questions","survey-likert","264","1223907","0.0-6.0-6.36","3411512","coCA","norming","","","{""aha"":1}","[0]","../img/tt/1156tt.jpg","",""
"null","<div style=""font-size:60px;""> </div>","null","fixation","html-keyboard-response","265","1224109","0.0-6.0-0.37","3411512","coCA","norming","","","","","","",""
"null","../img/tt/084tt.jpg","null","mooney1","image-keyboard-response","266","1227111","0.0-6.0-1.37","3411512","coCA","norming","","","","","","",""
"6281.105000000214","","","post_mooney1_questions","survey-likert","267","1233395","0.0-6.0-2.37","3411512","coCA","norming","","","{""curiosity"":1,""confidence"":4}","[0,1]","../img/tt/084tt.jpg","",""
"3141.929999999935","","","recognition","survey-text","268","1236538","0.0-6.0-3.37","3411512","coCA","norming","","","{""guess"":""vogel""}","","../img/tt/084tt.jpg","",""
"null","../img/gs/084gs.jpg","null","reveal","image-keyboard-response","269","1238544","0.0-6.0-4.37","3411512","coCA","norming","","","","","","",""
"null","../img/tt/084tt.jpg","null","mooney2","image-keyboard-response","270","1240547","0.0-6.0-5.37","3411512","coCA","norming","","","","","","",""
"3189.355000000447","","","post_reveal_questions","survey-likert","271","1243738","0.0-6.0-6.37","3411512","coCA","norming","","","{""aha"":2}","[0]","../img/tt/084tt.jpg","",""
"null","<div style=""font-size:60px;""> </div>","null","fixation","html-keyboard-response","272","1243945","0.0-6.0-0.38","3411512","coCA","norming","","","","","","",""
"null","../img/tt/1061tt.jpg","null","mooney1","image-keyboard-response","273","1246951","0.0-6.0-1.38","3411512","coCA","norming","","","","","","",""
"7078.955000001006","","","post_mooney1_questions","survey-likert","274","1254034","0.0-6.0-2.38","3411512","coCA","norming","","","{""curiosity"":4,""confidence"":3}","[0,1]","../img/tt/1061tt.jpg","",""
"3846.299999999348","","","recognition","survey-text","275","1257876","0.0-6.0-3.38","3411512","coCA","norming","","","{""guess"":""kano""}","","../img/tt/1061tt.jpg","",""
"null","../img/gs/1061gs.jpg","null","reveal","image-keyboard-response","276","1259886","0.0-6.0-4.38","3411512","coCA","norming","","","","","","",""
"null","../img/tt/1061tt.jpg","null","mooney2","image-keyboard-response","277","1261888","0.0-6.0-5.38","3411512","coCA","norming","","","","","","",""
"3834.2350000003353","","","post_reveal_questions","survey-likert","278","1265724","0.0-6.0-6.38","3411512","coCA","norming","","","{""aha"":3}","[0]","../img/tt/1061tt.jpg","",""
"null","<div style=""font-size:60px;""> </div>","null","fixation","html-keyboard-response","279","1265926","0.0-6.0-0.39","3411512","coCA","norming","","","","","","",""
"null","../img/tt/1366tt.jpg","null","mooney1","image-keyboard-response","280","1268933","0.0-6.0-1.39","3411512","coCA","norming","","","","","","",""
"7220.334999999963","","","post_mooney1_questions","survey-likert","281","1276156","0.0-6.0-2.39","3411512","coCA","norming","","","{""curiosity"":3,""confidence"":2}","[0,1]","../img/tt/1366tt.jpg","",""
"1766.1499999994412","","","recognition","survey-text","282","1277924","0.0-6.0-3.39","3411512","coCA","norming","","","{""guess"":""hand""}","","../img/tt/1366tt.jpg","",""
"null","../img/gs/1366gs.jpg","null","reveal","image-keyboard-response","283","1279931","0.0-6.0-4.39","3411512","coCA","norming","","","","","","",""
"null","../img/tt/1366tt.jpg","null","mooney2","image-keyboard-response","284","1281941","0.0-6.0-5.39","3411512","coCA","norming","","","","","","",""
"5397.449999998789","","","post_reveal_questions","survey-likert","285","1287340","0.0-6.0-6.39","3411512","coCA","norming","","","{""aha"":5}","[0]","../img/tt/1366tt.jpg","",""
"null","<div style=""font-size:60px;""> </div>","null","fixation","html-keyboard-response","286","1287547","0.0-6.0-0.40","3411512","coCA","norming","","","","","","",""
"null","../img/tt/1086tt.jpg","null","mooney1","image-keyboard-response","287","1290553","0.0-6.0-1.40","3411512","coCA","norming","","","","","","",""
"5752.469999999506","","","post_mooney1_questions","survey-likert","288","1296308","0.0-6.0-2.40","3411512","coCA","norming","","","{""curiosity"":5,""confidence"":1}","[0,1]","../img/tt/1086tt.jpg","",""
"2030.2350000001024","","","recognition","survey-text","289","1298340","0.0-6.0-3.40","3411512","coCA","norming","","","{""guess"":""dier""}","","../img/tt/1086tt.jpg","",""
"null","../img/gs/1086gs.jpg","null","reveal","image-keyboard-response","290","1300351","0.0-6.0-4.40","3411512","coCA","norming","","","","","","",""
"null","../img/tt/1086tt.jpg","null","mooney2","image-keyboard-response","291","1302354","0.0-6.0-5.40","3411512","coCA","norming","","","","","","",""
"2624.2750000001397","","","post_reveal_questions","survey-likert","292","1304980","0.0-6.0-6.40","3411512","coCA","norming","","","{""aha"":3}","[0]","../img/tt/1086tt.jpg","",""
"null","<div style=""font-size:60px;""> </div>","null","fixation","html-keyboard-response","293","1305181","0.0-6.0-0.41","3411512","coCA","norming","","","","","","",""
"null","../img/tt/468tt.jpg","null","mooney1","image-keyboard-response","294","1308193","0.0-6.0-1.41","3411512","coCA","norming","","","","","","",""
"4384.24499999918","","","post_mooney1_questions","survey-likert","295","1312580","0.0-6.0-2.41","3411512","coCA","norming","","","{""curiosity"":0,""confidence"":4}","[0,1]","../img/tt/468tt.jpg","",""
"2334.1049999997485","","","recognition","survey-text","296","1314916","0.0-6.0-3.41","3411512","coCA","norming","","","{""guess"":""viool""}","","../img/tt/468tt.jpg","",""
"null","../img/gs/468gs.jpg","null","reveal","image-keyboard-response","297","1316926","0.0-6.0-4.41","3411512","coCA","norming","","","","","","",""
"null","../img/tt/468tt.jpg","null","mooney2","image-keyboard-response","298","1318941","0.0-6.0-5.41","3411512","coCA","norming","","","","","","",""
"2852.76999999932","","","post_reveal_questions","survey-likert","299","1321796","0.0-6.0-6.41","3411512","coCA","norming","","","{""aha"":0}","[0]","../img/tt/468tt.jpg","",""
"null","<div style=""font-size:60px;""> </div>","null","fixation","html-keyboard-response","300","1322005","0.0-6.0-0.42","3411512","coCA","norming","","","","","","",""
"null","../img/tt/019tt.jpg","null","mooney1","image-keyboard-response","301","1325014","0.0-6.0-1.42","3411512","coCA","norming","","","","","","",""
"5034.850000000093","","","post_mooney1_questions","survey-likert","302","1330052","0.0-6.0-2.42","3411512","coCA","norming","","","{""curiosity"":1,""confidence"":0}","[0,1]","../img/tt/019tt.jpg","",""
"2197.95999999973","","","recognition","survey-text","303","1332252","0.0-6.0-3.42","3411512","coCA","norming","","","{""guess"":""schoenen""}","","../img/tt/019tt.jpg","",""
"null","../img/gs/019gs.jpg","null","reveal","image-keyboard-response","304","1334258","0.0-6.0-4.42","3411512","coCA","norming","","","","","","",""
"null","../img/tt/019tt.jpg","null","mooney2","image-keyboard-response","305","1336260","0.0-6.0-5.42","3411512","coCA","norming","","","","","","",""
"2874.440000001341","","","post_reveal_questions","survey-likert","306","1339140","0.0-6.0-6.42","3411512","coCA","norming","","","{""aha"":1}","[0]","../img/tt/019tt.jpg","",""
"null","<div style=""font-size:60px;""> </div>","null","fixation","html-keyboard-response","307","1339346","0.0-6.0-0.43","3411512","coCA","norming","","","","","","",""
"null","../img/tt/1278tt.jpg","null","mooney1","image-keyboard-response","308","1342356","0.0-6.0-1.43","3411512","coCA","norming","","","","","","",""
"9100.935000000522","","","post_mooney1_questions","survey-likert","309","1351460","0.0-6.0-2.43","3411512","coCA","norming","","","{""curiosity"":2,""confidence"":0}","[0,1]","../img/tt/1278tt.jpg","",""
"7701.83499999973","","","recognition","survey-text","310","1359163","0.0-6.0-3.43","3411512","coCA","norming","","","{""guess"":""""}","","../img/tt/1278tt.jpg","",""
"null","../img/gs/1278gs.jpg","null","reveal","image-keyboard-response","311","1361173","0.0-6.0-4.43","3411512","coCA","norming","","","","","","",""
"null","../img/tt/1278tt.jpg","null","mooney2","image-keyboard-response","312","1363180","0.0-6.0-5.43","3411512","coCA","norming","","","","","","",""
"2517.2099999999627","","","post_reveal_questions","survey-likert","313","1365700","0.0-6.0-6.43","3411512","coCA","norming","","","{""aha"":4}","[0]","../img/tt/1278tt.jpg","",""
"null","<div style=""font-size:60px;""> </div>","null","fixation","html-keyboard-response","314","1365905","0.0-6.0-0.44","3411512","coCA","norming","","","","","","",""
"null","../img/tt/060tt.jpg","null","mooney1","image-keyboard-response","315","1368915","0.0-6.0-1.44","3411512","coCA","norming","","","","","","",""
"6686.825000000652","","","post_mooney1_questions","survey-likert","316","1375604","0.0-6.0-2.44","3411512","coCA","norming","","","{""curiosity"":2,""confidence"":1}","[0,1]","../img/tt/060tt.jpg","",""
"3941.9600000001956","","","recognition","survey-text","317","1379548","0.0-6.0-3.44","3411512","coCA","norming","","","{""guess"":""rugzak""}","","../img/tt/060tt.jpg","",""
"null","../img/gs/060gs.jpg","null","reveal","image-keyboard-response","318","1381555","0.0-6.0-4.44","3411512","coCA","norming","","","","","","",""
"null","../img/tt/060tt.jpg","null","mooney2","image-keyboard-response","319","1383557","0.0-6.0-5.44","3411512","coCA","norming","","","","","","",""
"2340.1250000006985","","","post_reveal_questions","survey-likert","320","1385900","0.0-6.0-6.44","3411512","coCA","norming","","","{""aha"":4}","[0]","../img/tt/060tt.jpg","",""
"null","<div style=""font-size:60px;""> </div>","null","fixation","html-keyboard-response","321","1386101","0.0-6.0-0.45","3411512","coCA","norming","","","","","","",""
"null","../img/tt/1048tt.jpg","null","mooney1","image-keyboard-response","322","1389106","0.0-6.0-1.45","3411512","coCA","norming","","","","","","",""
"6126.8650000002235","","","post_mooney1_questions","survey-likert","323","1395236","0.0-6.0-2.45","3411512","coCA","norming","","","{""curiosity"":3,""confidence"":1}","[0,1]","../img/tt/1048tt.jpg","",""
"2406.0700000009965","","","recognition","survey-text","324","1397644","0.0-6.0-3.45","3411512","coCA","norming","","","{""guess"":""pluimen""}","","../img/tt/1048tt.jpg","",""
"null","../img/gs/1048gs.jpg","null","reveal","image-keyboard-response","325","1399648","0.0-6.0-4.45","3411512","coCA","norming","","","","","","",""
"null","../img/tt/1048tt.jpg","null","mooney2","image-keyboard-response","326","1401658","0.0-6.0-5.45","3411512","coCA","norming","","","","","","",""
"2271.04499999946","","","post_reveal_questions","survey-likert","327","1403932","0.0-6.0-6.45","3411512","coCA","norming","","","{""aha"":3}","[0]","../img/tt/1048tt.jpg","",""
"null","<div style=""font-size:60px;""> </div>","null","fixation","html-keyboard-response","328","1404136","0.0-6.0-0.46","3411512","coCA","norming","","","","","","",""
"null","../img/tt/416tt.jpg","null","mooney1","image-keyboard-response","329","1407143","0.0-6.0-1.46","3411512","coCA","norming","","","","","","",""
"5979.1800000004005","","","post_mooney1_questions","survey-likert","330","1413124","0.0-6.0-2.46","3411512","coCA","norming","","","{""curiosity"":3,""confidence"":2}","[0,1]","../img/tt/416tt.jpg","",""
"3718.0850000004284","","","recognition","survey-text","331","1416844","0.0-6.0-3.46","3411512","coCA","norming","","","{""guess"":""struisvogels""}","","../img/tt/416tt.jpg","",""
"null","../img/gs/416gs.jpg","null","reveal","image-keyboard-response","332","1418849","0.0-6.0-4.46","3411512","coCA","norming","","","","","","",""
"null","../img/tt/416tt.jpg","null","mooney2","image-keyboard-response","333","1420856","0.0-6.0-5.46","3411512","coCA","norming","","","","","","",""
"2730.0450000001583","","","post_reveal_questions","survey-likert","334","1423588","0.0-6.0-6.46","3411512","coCA","norming","","","{""aha"":3}","[0]","../img/tt/416tt.jpg","",""
"null","<div style=""font-size:60px;""> </div>","null","fixation","html-keyboard-response","335","1423795","0.0-6.0-0.47","3411512","coCA","norming","","","","","","",""
"null","../img/tt/1130tt.jpg","null","mooney1","image-keyboard-response","336","1426801","0.0-6.0-1.47","3411512","coCA","norming","","","","","","",""
"5223.954999999376","","","post_mooney1_questions","survey-likert","337","1432028","0.0-6.0-2.47","3411512","coCA","norming","","","{""curiosity"":3,""confidence"":4}","[0,1]","../img/tt/1130tt.jpg","",""
"2333.6550000004936","","","recognition","survey-text","338","1434364","0.0-6.0-3.47","3411512","coCA","norming","","","{""guess"":""fietser""}","","../img/tt/1130tt.jpg","",""
"null","../img/gs/1130gs.jpg","null","reveal","image-keyboard-response","339","1436366","0.0-6.0-4.47","3411512","coCA","norming","","","","","","",""
"null","../img/tt/1130tt.jpg","null","mooney2","image-keyboard-response","340","1438369","0.0-6.0-5.47","3411512","coCA","norming","","","","","","",""
"1514.0599999995902","","","post_reveal_questions","survey-likert","341","1439884","0.0-6.0-6.47","3411512","coCA","norming","","","{""aha"":4}","[0]","../img/tt/1130tt.jpg","",""
"null","<div style=""font-size:60px;""> </div>","null","fixation","html-keyboard-response","342","1440088","0.0-6.0-0.48","3411512","coCA","norming","","","","","","",""
"null","../img/tt/064tt.jpg","null","mooney1","image-keyboard-response","343","1443092","0.0-6.0-1.48","3411512","coCA","norming","","","","","","",""
"7117.115000000922","","","post_mooney1_questions","survey-likert","344","1450212","0.0-6.0-2.48","3411512","coCA","norming","","","{""curiosity"":4,""confidence"":1}","[0,1]","../img/tt/064tt.jpg","",""
"2677.9050000004936","","","recognition","survey-text","345","1452892","0.0-6.0-3.48","3411512","coCA","norming","","","{""guess"":""trompet""}","","../img/tt/064tt.jpg","",""
"null","../img/gs/064gs.jpg","null","reveal","image-keyboard-response","346","1454898","0.0-6.0-4.48","3411512","coCA","norming","","","","","","",""
"null","../img/tt/064tt.jpg","null","mooney2","image-keyboard-response","347","1456902","0.0-6.0-5.48","3411512","coCA","norming","","","","","","",""
"1851.2399999999907","","","post_reveal_questions","survey-likert","348","1458756","0.0-6.0-6.48","3411512","coCA","norming","","","{""aha"":5}","[0]","../img/tt/064tt.jpg","",""
"null","<div style=""font-size:60px;""> </div>","null","fixation","html-keyboard-response","349","1458962","0.0-6.0-0.49","3411512","coCA","norming","","","","","","",""
"null","../img/tt/085tt.jpg","null","mooney1","image-keyboard-response","350","1461965","0.0-6.0-1.49","3411512","coCA","norming","","","","","","",""
"15027.659999999683","","","post_mooney1_questions","survey-likert","351","1476996","0.0-6.0-2.49","3411512","coCA","norming","","","{""curiosity"":0,""confidence"":0}","[0,1]","../img/tt/085tt.jpg","",""
"4774.054999999935","","","recognition","survey-text","352","1481772","0.0-6.0-3.49","3411512","coCA","norming","","","{""guess"":""dansen""}","","../img/tt/085tt.jpg","",""
"null","../img/gs/085gs.jpg","null","reveal","image-keyboard-response","353","1483773","0.0-6.0-4.49","3411512","coCA","norming","","","","","","",""
"null","../img/tt/085tt.jpg","null","mooney2","image-keyboard-response","354","1485786","0.0-6.0-5.49","3411512","coCA","norming","","","","","","",""
"3127.4899999988265","","","post_reveal_questions","survey-likert","355","1488916","0.0-6.0-6.49","3411512","coCA","norming","","","{""aha"":0}","[0]","../img/tt/085tt.jpg","",""
"null","<div style=""font-size:60px;""> </div>","null","fixation","html-keyboard-response","356","1489118","0.0-6.0-0.50","3411512","coCA","norming","","","","","","",""
"null","../img/tt/1234tt.jpg","null","mooney1","image-keyboard-response","357","1492123","0.0-6.0-1.50","3411512","coCA","norming","","","","","","",""
"6471.344999999972","","","post_mooney1_questions","survey-likert","358","1498596","0.0-6.0-2.50","3411512","coCA","norming","","","{""curiosity"":3,""confidence"":3}","[0,1]","../img/tt/1234tt.jpg","",""
"1782.1949999998324","","","recognition","survey-text","359","1500373","0.0-6.0-3.50","3411512","coCA","norming","","","{""guess"":""water""}","","../img/tt/1234tt.jpg","",""
"null","../img/gs/1234gs.jpg","null","reveal","image-keyboard-response","360","1502380","0.0-6.0-4.50","3411512","coCA","norming","","","","","","",""
"null","../img/tt/1234tt.jpg","null","mooney2","image-keyboard-response","361","1504382","0.0-6.0-5.50","3411512","coCA","norming","","","","","","",""
"3036.7400000013877","","","post_reveal_questions","survey-likert","362","1507421","0.0-6.0-6.50","3411512","coCA","norming","","","{""aha"":5}","[0]","../img/tt/1234tt.jpg","",""
"null","<div style=""font-size:60px;""> </div>","null","fixation","html-keyboard-response","363","1507630","0.0-6.0-0.51","3411512","coCA","norming","","","","","","",""
"null","../img/tt/082tt.jpg","null","mooney1","image-keyboard-response","364","1510633","0.0-6.0-1.51","3411512","coCA","norming","","","","","","",""
"7472.854999999981","","","post_mooney1_questions","survey-likert","365","1518109","0.0-6.0-2.51","3411512","coCA","norming","","","{""curiosity"":2,""confidence"":0}","[0,1]","../img/tt/082tt.jpg","",""
"6805.985000001034","","","recognition","survey-text","366","1524917","0.0-6.0-3.51","3411512","coCA","norming","","","{""guess"":""""}","","../img/tt/082tt.jpg","",""
"null","../img/gs/082gs.jpg","null","reveal","image-keyboard-response","367","1526920","0.0-6.0-4.51","3411512","coCA","norming","","","","","","",""
"null","../img/tt/082tt.jpg","null","mooney2","image-keyboard-response","368","1528924","0.0-6.0-5.51","3411512","coCA","norming","","","","","","",""
"3223.2100000001956","","","post_reveal_questions","survey-likert","369","1532149","0.0-6.0-6.51","3411512","coCA","norming","","","{""aha"":4}","[0]","../img/tt/082tt.jpg","",""
"null","<div style=""font-size:60px;""> </div>","null","fixation","html-keyboard-response","370","1532355","0.0-6.0-0.52","3411512","coCA","norming","","","","","","",""
"null","../img/tt/1070tt.jpg","null","mooney1","image-keyboard-response","371","1535366","0.0-6.0-1.52","3411512","coCA","norming","","","","","","",""
"4524.1150000002235","","","post_mooney1_questions","survey-likert","372","1539893","0.0-6.0-2.52","3411512","coCA","norming","","","{""curiosity"":3,""confidence"":2}","[0,1]","../img/tt/1070tt.jpg","",""
"3470.204999999609","","","recognition","survey-text","373","1543365","0.0-6.0-3.52","3411512","coCA","norming","","","{""guess"":""maaltijd""}","","../img/tt/1070tt.jpg","",""
"null","../img/gs/1070gs.jpg","null","reveal","image-keyboard-response","374","1545371","0.0-6.0-4.52","3411512","coCA","norming","","","","","","",""
"null","../img/tt/1070tt.jpg","null","mooney2","image-keyboard-response","375","1547378","0.0-6.0-5.52","3411512","coCA","norming","","","","","","",""
"2872.4799999999814","","","post_reveal_questions","survey-likert","376","1550253","0.0-6.0-6.52","3411512","coCA","norming","","","{""aha"":4}","[0]","../img/tt/1070tt.jpg","",""
"null","<div style=""font-size:60px;""> </div>","null","fixation","html-keyboard-response","377","1550455","0.0-6.0-0.53","3411512","coCA","norming","","","","","","",""
"null","../img/tt/1102tt.jpg","null","mooney1","image-keyboard-response","378","1553459","0.0-6.0-1.53","3411512","coCA","norming","","","","","","",""
"5751.179999999236","","","post_mooney1_questions","survey-likert","379","1559213","0.0-6.0-2.53","3411512","coCA","norming","","","{""curiosity"":4,""confidence"":2}","[0,1]","../img/tt/1102tt.jpg","",""
"2438.2800000002608","","","recognition","survey-text","380","1561655","0.0-6.0-3.53","3411512","coCA","norming","","","{""guess"":""hangmat""}","","../img/tt/1102tt.jpg","",""
"null","../img/gs/1102gs.jpg","null","reveal","image-keyboard-response","381","1563658","0.0-6.0-4.53","3411512","coCA","norming","","","","","","",""
"null","../img/tt/1102tt.jpg","null","mooney2","image-keyboard-response","382","1565661","0.0-6.0-5.53","3411512","coCA","norming","","","","","","",""
"3727.8649999988265","","","post_reveal_questions","survey-likert","383","1569391","0.0-6.0-6.53","3411512","coCA","norming","","","{""aha"":4}","[0]","../img/tt/1102tt.jpg","",""
"null","<div style=""font-size:60px;""> </div>","null","fixation","html-keyboard-response","384","1569592","0.0-6.0-0.54","3411512","coCA","norming","","","","","","",""
"null","../img/tt/1055tt.jpg","null","mooney1","image-keyboard-response","385","1572600","0.0-6.0-1.54","3411512","coCA","norming","","","","","","",""
"8539.704999999376","","","post_mooney1_questions","survey-likert","386","1581143","0.0-6.0-2.54","3411512","coCA","norming","","","{""curiosity"":3,""confidence"":1}","[0,1]","../img/tt/1055tt.jpg","",""
"2237.7450000003446","","","recognition","survey-text","387","1583383","0.0-6.0-3.54","3411512","coCA","norming","","","{""guess"":""insect""}","","../img/tt/1055tt.jpg","",""
"null","../img/gs/1055gs.jpg","null","reveal","image-keyboard-response","388","1585389","0.0-6.0-4.54","3411512","coCA","norming","","","","","","",""
"null","../img/tt/1055tt.jpg","null","mooney2","image-keyboard-response","389","1587394","0.0-6.0-5.54","3411512","coCA","norming","","","","","","",""
"2602.6999999994878","","","post_reveal_questions","survey-likert","390","1589999","0.0-6.0-6.54","3411512","coCA","norming","","","{""aha"":4}","[0]","../img/tt/1055tt.jpg","",""
"null","<div style=""font-size:60px;""> </div>","null","fixation","html-keyboard-response","391","1590202","0.0-6.0-0.55","3411512","coCA","norming","","","","","","",""
"null","../img/tt/318tt.jpg","null","mooney1","image-keyboard-response","392","1593213","0.0-6.0-1.55","3411512","coCA","norming","","","","","","",""
"5862.740000000456","","","post_mooney1_questions","survey-likert","393","1599079","0.0-6.0-2.55","3411512","coCA","norming","","","{""curiosity"":4,""confidence"":0}","[0,1]","../img/tt/318tt.jpg","",""
"3678.0500000005122","","","recognition","survey-text","394","1602759","0.0-6.0-3.55","3411512","coCA","norming","","","{""guess"":""mevrouw""}","","../img/tt/318tt.jpg","",""
"null","../img/gs/318gs.jpg","null","reveal","image-keyboard-response","395","1604767","0.0-6.0-4.55","3411512","coCA","norming","","","","","","",""
"null","../img/tt/318tt.jpg","null","mooney2","image-keyboard-response","396","1606772","0.0-6.0-5.55","3411512","coCA","norming","","","","","","",""
"6088.16000000108","","","post_reveal_questions","survey-likert","397","1612863","0.0-6.0-6.55","3411512","coCA","norming","","","{""aha"":6}","[0]","../img/tt/318tt.jpg","",""
"null","<div style=""font-size:60px;""> </div>","null","fixation","html-keyboard-response","398","1613068","0.0-6.0-0.56","3411512","coCA","norming","","","","","","",""
"null","../img/tt/279tt.jpg","null","mooney1","image-keyboard-response","399","1616075","0.0-6.0-1.56","3411512","coCA","norming","","","","","","",""
"3226.8199999998324","","","post_mooney1_questions","survey-likert","400","1619303","0.0-6.0-2.56","3411512","coCA","norming","","","{""curiosity"":0,""confidence"":5}","[0,1]","../img/tt/279tt.jpg","",""
"2110.094999999972","","","recognition","survey-text","401","1621415","0.0-6.0-3.56","3411512","coCA","norming","","","{""guess"":""koala""}","","../img/tt/279tt.jpg","",""
"null","../img/gs/279gs.jpg","null","reveal","image-keyboard-response","402","1623417","0.0-6.0-4.56","3411512","coCA","norming","","","","","","",""
"null","../img/tt/279tt.jpg","null","mooney2","image-keyboard-response","403","1625419","0.0-6.0-5.56","3411512","coCA","norming","","","","","","",""
"7752.559999999125","","","post_reveal_questions","survey-likert","404","1633175","0.0-6.0-6.56","3411512","coCA","norming","","","{""aha"":4}","[0]","../img/tt/279tt.jpg","",""
"null","<div style=""font-size:60px;""> </div>","null","fixation","html-keyboard-response","405","1633378","0.0-6.0-0.57","3411512","coCA","norming","","","","","","",""
"null","../img/tt/020tt.jpg","null","mooney1","image-keyboard-response","406","1636385","0.0-6.0-1.57","3411512","coCA","norming","","","","","","",""
"9186.929999999935","","","post_mooney1_questions","survey-likert","407","1645575","0.0-6.0-2.57","3411512","coCA","norming","","","{""curiosity"":3,""confidence"":0}","[0,1]","../img/tt/020tt.jpg","",""
"2765.9700000004377","","","recognition","survey-text","408","1648342","0.0-6.0-3.57","3411512","coCA","norming","","","{""guess"":""wolken""}","","../img/tt/020tt.jpg","",""
"null","../img/gs/020gs.jpg","null","reveal","image-keyboard-response","409","1650353","0.0-6.0-4.57","3411512","coCA","norming","","","","","","",""
"null","../img/tt/020tt.jpg","null","mooney2","image-keyboard-response","410","1652354","0.0-6.0-5.57","3411512","coCA","norming","","","","","","",""
"4153.829999999143","","","post_reveal_questions","survey-likert","411","1656510","0.0-6.0-6.57","3411512","coCA","norming","","","{""aha"":4}","[0]","../img/tt/020tt.jpg","",""
"null","<div style=""font-size:60px;""> </div>","null","fixation","html-keyboard-response","412","1656716","0.0-6.0-0.58","3411512","coCA","norming","","","","","","",""
"null","../img/tt/1122tt.jpg","null","mooney1","image-keyboard-response","413","1659722","0.0-6.0-1.58","3411512","coCA","norming","","","","","","",""
"4216.784999998752","","","post_mooney1_questions","survey-likert","414","1663943","0.0-6.0-2.58","3411512","coCA","norming","","","{""curiosity"":0,""confidence"":5}","[0,1]","../img/tt/1122tt.jpg","",""
"2669.7949999996927","","","recognition","survey-text","415","1666614","0.0-6.0-3.58","3411512","coCA","norming","","","{""guess"":""haven boten""}","","../img/tt/1122tt.jpg","",""
"null","../img/gs/1122gs.jpg","null","reveal","image-keyboard-response","416","1668618","0.0-6.0-4.58","3411512","coCA","norming","","","","","","",""
"null","../img/tt/1122tt.jpg","null","mooney2","image-keyboard-response","417","1670622","0.0-6.0-5.58","3411512","coCA","norming","","","","","","",""
"2373.540000000503","","","post_reveal_questions","survey-likert","418","1672998","0.0-6.0-6.58","3411512","coCA","norming","","","{""aha"":0}","[0]","../img/tt/1122tt.jpg","",""
"null","<div style=""font-size:60px;""> </div>","null","fixation","html-keyboard-response","419","1673204","0.0-6.0-0.59","3411512","coCA","norming","","","","","","",""
"null","../img/tt/405tt.jpg","null","mooney1","image-keyboard-response","420","1676211","0.0-6.0-1.59","3411512","coCA","norming","","","","","","",""
"3881.839999999851","","","post_mooney1_questions","survey-likert","421","1680094","0.0-6.0-2.59","3411512","coCA","norming","","","{""curiosity"":0,""confidence"":6}","[0,1]","../img/tt/405tt.jpg","",""
"1750.530000001192","","","recognition","survey-text","422","1681853","0.0-6.0-3.59","3411512","coCA","norming","","","{""guess"":""koala""}","","../img/tt/405tt.jpg","",""
"null","../img/gs/405gs.jpg","null","reveal","image-keyboard-response","423","1683861","0.0-6.0-4.59","3411512","coCA","norming","","","","","","",""
"null","../img/tt/405tt.jpg","null","mooney2","image-keyboard-response","424","1685871","0.0-6.0-5.59","3411512","coCA","norming","","","","","","",""
"2658.774999999907","","","post_reveal_questions","survey-likert","425","1688532","0.0-6.0-6.59","3411512","coCA","norming","","","{""aha"":0}","[0]","../img/tt/405tt.jpg","",""
"null","<div style=""font-size:60px;""> </div>","null","fixation","html-keyboard-response","426","1688738","0.0-6.0-0.60","3411512","coCA","norming","","","","","","",""
"null","../img/tt/080tt.jpg","null","mooney1","image-keyboard-response","427","1691746","0.0-6.0-1.60","3411512","coCA","norming","","","","","","",""
"4079.429999999702","","","post_mooney1_questions","survey-likert","428","1695829","0.0-6.0-2.60","3411512","coCA","norming","","","{""curiosity"":3,""confidence"":1}","[0,1]","../img/tt/080tt.jpg","",""
"1286.2949999999255","","","recognition","survey-text","429","1697117","0.0-6.0-3.60","3411512","coCA","norming","","","{""guess"":""ei""}","","../img/tt/080tt.jpg","",""
"null","../img/gs/080gs.jpg","null","reveal","image-keyboard-response","430","1699124","0.0-6.0-4.60","3411512","coCA","norming","","","","","","",""
"null","../img/tt/080tt.jpg","null","mooney2","image-keyboard-response","431","1701129","0.0-6.0-5.60","3411512","coCA","norming","","","","","","",""
"2392.760000000708","","","post_reveal_questions","survey-likert","432","1703525","0.0-6.0-6.60","3411512","coCA","norming","","","{""aha"":4}","[0]","../img/tt/080tt.jpg","",""
"null","<div style=""font-size:60px;""> </div>","null","fixation","html-keyboard-response","433","1703730","0.0-6.0-0.61","3411512","coCA","norming","","","","","","",""
"null","../img/tt/163tt.jpg","null","mooney1","image-keyboard-response","434","1706742","0.0-6.0-1.61","3411512","coCA","norming","","","","","","",""
"4491.969999999274","","","post_mooney1_questions","survey-likert","435","1711237","0.0-6.0-2.61","3411512","coCA","norming","","","{""curiosity"":3,""confidence"":1}","[0,1]","../img/tt/163tt.jpg","",""
"1814.1249999988358","","","recognition","survey-text","436","1713053","0.0-6.0-3.61","3411512","coCA","norming","","","{""guess"":""man""}","","../img/tt/163tt.jpg","",""
"null","../img/gs/163gs.jpg","null","reveal","image-keyboard-response","437","1715055","0.0-6.0-4.61","3411512","coCA","norming","","","","","","",""
"null","../img/tt/163tt.jpg","null","mooney2","image-keyboard-response","438","1717059","0.0-6.0-5.61","3411512","coCA","norming","","","","","","",""
"2919.579999999609","","","post_reveal_questions","survey-likert","439","1719981","0.0-6.0-6.61","3411512","coCA","norming","","","{""aha"":3}","[0]","../img/tt/163tt.jpg","",""
"null","<div style=""font-size:60px;""> </div>","null","fixation","html-keyboard-response","440","1720186","0.0-6.0-0.62","3411512","coCA","norming","","","","","","",""
"null","../img/tt/094tt.jpg","null","mooney1","image-keyboard-response","441","1723188","0.0-6.0-1.62","3411512","coCA","norming","","","","","","",""
"6453.999999999767","","","post_mooney1_questions","survey-likert","442","1729645","0.0-6.0-2.62","3411512","coCA","norming","","","{""curiosity"":2,""confidence"":0}","[0,1]","../img/tt/094tt.jpg","",""
"1070.20999999973","","","recognition","survey-text","443","1730717","0.0-6.0-3.62","3411512","coCA","norming","","","{""guess"":""""}","","../img/tt/094tt.jpg","",""
"null","../img/gs/094gs.jpg","null","reveal","image-keyboard-response","444","1732724","0.0-6.0-4.62","3411512","coCA","norming","","","","","","",""
"null","../img/tt/094tt.jpg","null","mooney2","image-keyboard-response","445","1734735","0.0-6.0-5.62","3411512","coCA","norming","","","","","","",""
"3866.700000000419","","","post_reveal_questions","survey-likert","446","1738605","0.0-6.0-6.62","3411512","coCA","norming","","","{""aha"":0}","[0]","../img/tt/094tt.jpg","",""
"null","<div style=""font-size:60px;""> </div>","null","fixation","html-keyboard-response","447","1738813","0.0-6.0-0.63","3411512","coCA","norming","","","","","","",""
"null","../img/tt/031tt.jpg","null","mooney1","image-keyboard-response","448","1741822","0.0-6.0-1.63","3411512","coCA","norming","","","","","","",""
"4278.000000000233","","","post_mooney1_questions","survey-likert","449","1746101","0.0-6.0-2.63","3411512","coCA","norming","","","{""curiosity"":2,""confidence"":4}","[0,1]","../img/tt/031tt.jpg","",""
"1894.389999999432","","","recognition","survey-text","450","1747997","0.0-6.0-3.63","3411512","coCA","norming","","","{""guess"":""beer""}","","../img/tt/031tt.jpg","",""
"null","../img/gs/031gs.jpg","null","reveal","image-keyboard-response","451","1750008","0.0-6.0-4.63","3411512","coCA","norming","","","","","","",""
"null","../img/tt/031tt.jpg","null","mooney2","image-keyboard-response","452","1752017","0.0-6.0-5.63","3411512","coCA","norming","","","","","","",""
"5081.575000000186","","","post_reveal_questions","survey-likert","453","1757101","0.0-6.0-6.63","3411512","coCA","norming","","","{""aha"":1}","[0]","../img/tt/031tt.jpg","",""
"null","<div style=""font-size:60px;""> </div>","null","fixation","html-keyboard-response","454","1757305","0.0-6.0-0.64","3411512","coCA","norming","","","","","","",""
"null","../img/tt/140tt.jpg","null","mooney1","image-keyboard-response","455","1760307","0.0-6.0-1.64","3411512","coCA","norming","","","","","","",""
"6735.305000000168","","","post_mooney1_questions","survey-likert","456","1767045","0.0-6.0-2.64","3411512","coCA","norming","","","{""curiosity"":1,""confidence"":1}","[0,1]","../img/tt/140tt.jpg","",""
"1733.9749999991618","","","recognition","survey-text","457","1768781","0.0-6.0-3.64","3411512","coCA","norming","","","{""guess"":""riek""}","","../img/tt/140tt.jpg","",""
"null","../img/gs/140gs.jpg","null","reveal","image-keyboard-response","458","1770785","0.0-6.0-4.64","3411512","coCA","norming","","","","","","",""
"null","../img/tt/140tt.jpg","null","mooney2","image-keyboard-response","459","1772787","0.0-6.0-5.64","3411512","coCA","norming","","","","","","",""
"2599.700000000652","","","post_reveal_questions","survey-likert","460","1775390","0.0-6.0-6.64","3411512","coCA","norming","","","{""aha"":4}","[0]","../img/tt/140tt.jpg","",""
"null","<div style=""font-size:60px;""> </div>","null","fixation","html-keyboard-response","461","1775591","0.0-6.0-0.65","3411512","coCA","norming","","","","","","",""
"null","../img/tt/1066tt.jpg","null","mooney1","image-keyboard-response","462","1778595","0.0-6.0-1.65","3411512","coCA","norming","","","","","","",""
"4943.150000001071","","","post_mooney1_questions","survey-likert","463","1783541","0.0-6.0-2.65","3411512","coCA","norming","","","{""curiosity"":3,""confidence"":3}","[0,1]","../img/tt/1066tt.jpg","",""
"2278.0999999996275","","","recognition","survey-text","464","1785821","0.0-6.0-3.65","3411512","coCA","norming","","","{""guess"":""bus""}","","../img/tt/1066tt.jpg","",""
"null","../img/gs/1066gs.jpg","null","reveal","image-keyboard-response","465","1787828","0.0-6.0-4.65","3411512","coCA","norming","","","","","","",""
"null","../img/tt/1066tt.jpg","null","mooney2","image-keyboard-response","466","1789831","0.0-6.0-5.65","3411512","coCA","norming","","","","","","",""
"2685.594999998808","","","post_reveal_questions","survey-likert","467","1792517","0.0-6.0-6.65","3411512","coCA","norming","","","{""aha"":2}","[0]","../img/tt/1066tt.jpg","",""
"null","<div style=""font-size:60px;""> </div>","null","fixation","html-keyboard-response","468","1792723","0.0-6.0-0.66","3411512","coCA","norming","","","","","","",""
"null","../img/tt/1040tt.jpg","null","mooney1","image-keyboard-response","469","1795729","0.0-6.0-1.66","3411512","coCA","norming","","","","","","",""
"6729.195000000065","","","post_mooney1_questions","survey-likert","470","1802459","0.0-6.0-2.66","3411512","coCA","norming","","","{""curiosity"":4,""confidence"":4}","[0,1]","../img/tt/1040tt.jpg","",""
"2397.8900000001304","","","recognition","survey-text","471","1804858","0.0-6.0-3.66","3411512","coCA","norming","","","{""guess"":""zwemster""}","","../img/tt/1040tt.jpg","",""
"null","../img/gs/1040gs.jpg","null","reveal","image-keyboard-response","472","1806867","0.0-6.0-4.66","3411512","coCA","norming","","","","","","",""
"null","../img/tt/1040tt.jpg","null","mooney2","image-keyboard-response","473","1808868","0.0-6.0-5.66","3411512","coCA","norming","","","","","","",""
"2731.3200000009965","","","post_reveal_questions","survey-likert","474","1811603","0.0-6.0-6.66","3411512","coCA","norming","","","{""aha"":5}","[0]","../img/tt/1040tt.jpg","",""
"null","<div style=""font-size:60px;""> </div>","null","fixation","html-keyboard-response","475","1811806","0.0-6.0-0.67","3411512","coCA","norming","","","","","","",""
"null","../img/tt/456tt.jpg","null","mooney1","image-keyboard-response","476","1814819","0.0-6.0-1.67","3411512","coCA","norming","","","","","","",""
"4771.870000000345","","","post_mooney1_questions","survey-likert","477","1819595","0.0-6.0-2.67","3411512","coCA","norming","","","{""curiosity"":3,""confidence"":1}","[0,1]","../img/tt/456tt.jpg","",""
"1357.9900000004563","","","recognition","survey-text","478","1820955","0.0-6.0-3.67","3411512","coCA","norming","","","{""guess"":""dier""}","","../img/tt/456tt.jpg","",""
"null","../img/gs/456gs.jpg","null","reveal","image-keyboard-response","479","1822964","0.0-6.0-4.67","3411512","coCA","norming","","","","","","",""
"null","../img/tt/456tt.jpg","null","mooney2","image-keyboard-response","480","1824971","0.0-6.0-5.67","3411512","coCA","norming","","","","","","",""
"3421.0949999997392","","","post_reveal_questions","survey-likert","481","1828394","0.0-6.0-6.67","3411512","coCA","norming","","","{""aha"":2}","[0]","../img/tt/456tt.jpg","",""
"null","<div style=""font-size:60px;""> </div>","null","fixation","html-keyboard-response","482","1828600","0.0-6.0-0.68","3411512","coCA","norming","","","","","","",""
"null","../img/tt/007tt.jpg","null","mooney1","image-keyboard-response","483","1831611","0.0-6.0-1.68","3411512","coCA","norming","","","","","","",""
"4355.5449999985285","","","post_mooney1_questions","survey-likert","484","1835971","0.0-6.0-2.68","3411512","coCA","norming","","","{""curiosity"":2,""confidence"":2}","[0,1]","../img/tt/007tt.jpg","",""
"1509.6400000003632","","","recognition","survey-text","485","1837482","0.0-6.0-3.68","3411512","coCA","norming","","","{""guess"":""gras""}","","../img/tt/007tt.jpg","",""
"null","../img/gs/007gs.jpg","null","reveal","image-keyboard-response","486","1839492","0.0-6.0-4.68","3411512","coCA","norming","","","","","","",""
"null","../img/tt/007tt.jpg","null","mooney2","image-keyboard-response","487","1841504","0.0-6.0-5.68","3411512","coCA","norming","","","","","","",""
"2864.135000001639","","","post_reveal_questions","survey-likert","488","1844370","0.0-6.0-6.68","3411512","coCA","norming","","","{""aha"":1}","[0]","../img/tt/007tt.jpg","",""
"null","<div style=""font-size:60px;""> </div>","null","fixation","html-keyboard-response","489","1844572","0.0-6.0-0.69","3411512","coCA","norming","","","","","","",""
"null","../img/tt/1243tt.jpg","null","mooney1","image-keyboard-response","490","1847583","0.0-6.0-1.69","3411512","coCA","norming","","","","","","",""
"9031.929999999236","","","post_mooney1_questions","survey-likert","491","1856619","0.0-6.0-2.69","3411512","coCA","norming","","","{""curiosity"":3,""confidence"":2}","[0,1]","../img/tt/1243tt.jpg","",""
"3277.959999999497","","","recognition","survey-text","492","1859898","0.0-6.0-3.69","3411512","coCA","norming","","","{""guess"":""leeuw kooi""}","","../img/tt/1243tt.jpg","",""
"null","../img/gs/1243gs.jpg","null","reveal","image-keyboard-response","493","1861904","0.0-6.0-4.69","3411512","coCA","norming","","","","","","",""
"null","../img/tt/1243tt.jpg","null","mooney2","image-keyboard-response","494","1863917","0.0-6.0-5.69","3411512","coCA","norming","","","","","","",""
"7189.089999999851","","","post_reveal_questions","survey-likert","495","1871109","0.0-6.0-6.69","3411512","coCA","norming","","","{""aha"":2}","[0]","../img/tt/1243tt.jpg","",""
"null","<div style=""font-size:60px;""> </div>","null","fixation","html-keyboard-response","496","1871312","0.0-6.0-0.70","3411512","coCA","norming","","","","","","",""
"null","../img/tt/300tt.jpg","null","mooney1","image-keyboard-response","497","1874320","0.0-6.0-1.70","3411512","coCA","norming","","","","","","",""
"6161.375000001397","","","post_mooney1_questions","survey-likert","498","1880485","0.0-6.0-2.70","3411512","coCA","norming","","","{""curiosity"":1,""confidence"":0}","[0,1]","../img/tt/300tt.jpg","",""
"3382.1750000005122","","","recognition","survey-text","499","1883869","0.0-6.0-3.70","3411512","coCA","norming","","","{""guess"":""ijshockey""}","","../img/tt/300tt.jpg","",""
"null","../img/gs/300gs.jpg","null","reveal","image-keyboard-response","500","1885873","0.0-6.0-4.70","3411512","coCA","norming","","","","","","",""
"null","../img/tt/300tt.jpg","null","mooney2","image-keyboard-response","501","1887882","0.0-6.0-5.70","3411512","coCA","norming","","","","","","",""
"4552.335000000428","","","post_reveal_questions","survey-likert","502","1892437","0.0-6.0-6.70","3411512","coCA","norming","","","{""aha"":4}","[0]","../img/tt/300tt.jpg","",""
"null","<div style=""font-size:60px;""> </div>","null","fixation","html-keyboard-response","503","1892639","0.0-6.0-0.71","3411512","coCA","norming","","","","","","",""
"null","../img/tt/078tt.jpg","null","mooney1","image-keyboard-response","504","1895642","0.0-6.0-1.71","3411512","coCA","norming","","","","","","",""
"3359.6450000004843","","","post_mooney1_questions","survey-likert","505","1899005","0.0-6.0-2.71","3411512","coCA","norming","","","{""curiosity"":1,""confidence"":5}","[0,1]","../img/tt/078tt.jpg","",""
"1966.0149999998976","","","recognition","survey-text","506","1900973","0.0-6.0-3.71","3411512","coCA","norming","","","{""guess"":""druiven""}","","../img/tt/078tt.jpg","",""
"null","../img/gs/078gs.jpg","null","reveal","image-keyboard-response","507","1902974","0.0-6.0-4.71","3411512","coCA","norming","","","","","","",""
"null","../img/tt/078tt.jpg","null","mooney2","image-keyboard-response","508","1904979","0.0-6.0-5.71","3411512","coCA","norming","","","","","","",""
"3831.355000000214","","","post_reveal_questions","survey-likert","509","1908813","0.0-6.0-6.71","3411512","coCA","norming","","","{""aha"":0}","[0]","../img/tt/078tt.jpg","",""
"null","<div style=""font-size:60px;""> </div>","null","fixation","html-keyboard-response","510","1909014","0.0-6.0-0.72","3411512","coCA","norming","","","","","","",""
"null","../img/tt/1272tt.jpg","null","mooney1","image-keyboard-response","511","1912019","0.0-6.0-1.72","3411512","coCA","norming","","","","","","",""
"7494.0200000002515","","","post_mooney1_questions","survey-likert","512","1919517","0.0-6.0-2.72","3411512","coCA","norming","","","{""curiosity"":2,""confidence"":2}","[0,1]","../img/tt/1272tt.jpg","",""
"2478.100000000326","","","recognition","survey-text","513","1921997","0.0-6.0-3.72","3411512","coCA","norming","","","{""guess"":""kippengaas""}","","../img/tt/1272tt.jpg","",""
"null","../img/gs/1272gs.jpg","null","reveal","image-keyboard-response","514","1924004","0.0-6.0-4.72","3411512","coCA","norming","","","","","","",""
"null","../img/tt/1272tt.jpg","null","mooney2","image-keyboard-response","515","1926006","0.0-6.0-5.72","3411512","coCA","norming","","","","","","",""
"2348.4900000004563","","","post_reveal_questions","survey-likert","516","1928357","0.0-6.0-6.72","3411512","coCA","norming","","","{""aha"":2}","[0]","../img/tt/1272tt.jpg","",""
"null","<div style=""font-size:60px;""> </div>","null","fixation","html-keyboard-response","517","1928567","0.0-6.0-0.73","3411512","coCA","norming","","","","","","",""
"null","../img/tt/108tt.jpg","null","mooney1","image-keyboard-response","518","1931579","0.0-6.0-1.73","3411512","coCA","norming","","","","","","",""
"9774.625","","","post_mooney1_questions","survey-likert","519","1941357","0.0-6.0-2.73","3411512","coCA","norming","","","{""curiosity"":3,""confidence"":1}","[0,1]","../img/tt/108tt.jpg","",""
"1406.1099999998696","","","recognition","survey-text","520","1942765","0.0-6.0-3.73","3411512","coCA","norming","","","{""guess"":""aap""}","","../img/tt/108tt.jpg","",""
"null","../img/gs/108gs.jpg","null","reveal","image-keyboard-response","521","1944772","0.0-6.0-4.73","3411512","coCA","norming","","","","","","",""
"null","../img/tt/108tt.jpg","null","mooney2","image-keyboard-response","522","1946773","0.0-6.0-5.73","3411512","coCA","norming","","","","","","",""
"2941.1449999988545","","","post_reveal_questions","survey-likert","523","1949717","0.0-6.0-6.73","3411512","coCA","norming","","","{""aha"":5}","[0]","../img/tt/108tt.jpg","",""
"null","<div style=""font-size:60px;""> </div>","null","fixation","html-keyboard-response","524","1949920","0.0-6.0-0.74","3411512","coCA","norming","","","","","","",""
"null","../img/tt/081tt.jpg","null","mooney1","image-keyboard-response","525","1952930","0.0-6.0-1.74","3411512","coCA","norming","","","","","","",""
"6480.404999998398","","","post_mooney1_questions","survey-likert","526","1959414","0.0-6.0-2.74","3411512","coCA","norming","","","{""curiosity"":4,""confidence"":2}","[0,1]","../img/tt/081tt.jpg","",""
"2373.839999998454","","","recognition","survey-text","527","1961789","0.0-6.0-3.74","3411512","coCA","norming","","","{""guess"":""kikker""}","","../img/tt/081tt.jpg","",""
"null","../img/gs/081gs.jpg","null","reveal","image-keyboard-response","528","1963798","0.0-6.0-4.74","3411512","coCA","norming","","","","","","",""
"null","../img/tt/081tt.jpg","null","mooney2","image-keyboard-response","529","1965803","0.0-6.0-5.74","3411512","coCA","norming","","","","","","",""
"3304.0949999995064","","","post_reveal_questions","survey-likert","530","1969109","0.0-6.0-6.74","3411512","coCA","norming","","","{""aha"":4}","[0]","../img/tt/081tt.jpg","",""
"null","<div style=""font-size:60px;""> </div>","null","fixation","html-keyboard-response","531","1969313","0.0-6.0-0.75","3411512","coCA","norming","","","","","","",""
"null","../img/tt/222tt.jpg","null","mooney1","image-keyboard-response","532","1972325","0.0-6.0-1.75","3411512","coCA","norming","","","","","","",""
"7470.439999999246","","","post_mooney1_questions","survey-likert","533","1979797","0.0-6.0-2.75","3411512","coCA","norming","","","{""curiosity"":1,""confidence"":1}","[0,1]","../img/tt/222tt.jpg","",""
"1910.025000001071","","","recognition","survey-text","534","1981709","0.0-6.0-3.75","3411512","coCA","norming","","","{""guess"":""bad""}","","../img/tt/222tt.jpg","",""
"null","../img/gs/222gs.jpg","null","reveal","image-keyboard-response","535","1983719","0.0-6.0-4.75","3411512","coCA","norming","","","","","","",""
"null","../img/tt/222tt.jpg","null","mooney2","image-keyboard-response","536","1985724","0.0-6.0-5.75","3411512","coCA","norming","","","","","","",""
"2534.7099999999627","","","post_reveal_questions","survey-likert","537","1988261","0.0-6.0-6.75","3411512","coCA","norming","","","{""aha"":5}","[0]","../img/tt/222tt.jpg","",""
"null","<div style=""font-size:60px;""> </div>","null","fixation","html-keyboard-response","538","1988468","0.0-6.0-0.76","3411512","coCA","norming","","","","","","",""
"null","../img/tt/296tt.jpg","null","mooney1","image-keyboard-response","539","1991474","0.0-6.0-1.76","3411512","coCA","norming","","","","","","",""
"6136.1450000002515","","","post_mooney1_questions","survey-likert","540","1997614","0.0-6.0-2.76","3411512","coCA","norming","","","{""curiosity"":4,""confidence"":3}","[0,1]","../img/tt/296tt.jpg","",""
"9149.289999999572","","","recognition","survey-text","541","2006765","0.0-6.0-3.76","3411512","coCA","norming","","","{""guess"":""kinesisten tafel""}","","../img/tt/296tt.jpg","",""
"null","../img/gs/296gs.jpg","null","reveal","image-keyboard-response","542","2008767","0.0-6.0-4.76","3411512","coCA","norming","","","","","","",""
"null","../img/tt/296tt.jpg","null","mooney2","image-keyboard-response","543","2010770","0.0-6.0-5.76","3411512","coCA","norming","","","","","","",""
"3209.704999999376","","","post_reveal_questions","survey-likert","544","2013981","0.0-6.0-6.76","3411512","coCA","norming","","","{""aha"":0}","[0]","../img/tt/296tt.jpg","",""
"null","<div style=""font-size:60px;""> </div>","null","fixation","html-keyboard-response","545","2014184","0.0-6.0-0.77","3411512","coCA","norming","","","","","","",""
"null","../img/tt/524tt.jpg","null","mooney1","image-keyboard-response","546","2017189","0.0-6.0-1.77","3411512","coCA","norming","","","","","","",""
"4789.029999999795","","","post_mooney1_questions","survey-likert","547","2021982","0.0-6.0-2.77","3411512","coCA","norming","","","{""curiosity"":1,""confidence"":1}","[0,1]","../img/tt/524tt.jpg","",""
"3357.98000000068","","","recognition","survey-text","548","2025341","0.0-6.0-3.77","3411512","coCA","norming","","","{""guess"":""paard""}","","../img/tt/524tt.jpg","",""
"null","../img/gs/524gs.jpg","null","reveal","image-keyboard-response","549","2027345","0.0-6.0-4.77","3411512","coCA","norming","","","","","","",""
"null","../img/tt/524tt.jpg","null","mooney2","image-keyboard-response","550","2029350","0.0-6.0-5.77","3411512","coCA","norming","","","","","","",""
"1989.0949999990407","","","post_reveal_questions","survey-likert","551","2031341","0.0-6.0-6.77","3411512","coCA","norming","","","{""aha"":1}","[0]","../img/tt/524tt.jpg","",""
"null","<div style=""font-size:60px;""> </div>","null","fixation","html-keyboard-response","552","2031551","0.0-6.0-0.78","3411512","coCA","norming","","","","","","",""
"null","../img/tt/1142tt.jpg","null","mooney1","image-keyboard-response","553","2034563","0.0-6.0-1.78","3411512","coCA","norming","","","","","","",""
"8182.549999999348","","","post_mooney1_questions","survey-likert","554","2042749","0.0-6.0-2.78","3411512","coCA","norming","","","{""curiosity"":2,""confidence"":2}","[0,1]","../img/tt/1142tt.jpg","",""
"7646.094999999972","","","recognition","survey-text","555","2050397","0.0-6.0-3.78","3411512","coCA","norming","","","{""guess"":""springende sporter""}","","../img/tt/1142tt.jpg","",""
"null","../img/gs/1142gs.jpg","null","reveal","image-keyboard-response","556","2052403","0.0-6.0-4.78","3411512","coCA","norming","","","","","","",""
"null","../img/tt/1142tt.jpg","null","mooney2","image-keyboard-response","557","2054405","0.0-6.0-5.78","3411512","coCA","norming","","","","","","",""
"4029.3899999998976","","","post_reveal_questions","survey-likert","558","2058437","0.0-6.0-6.78","3411512","coCA","norming","","","{""aha"":0}","[0]","../img/tt/1142tt.jpg","",""
"null","<div style=""font-size:60px;""> </div>","null","fixation","html-keyboard-response","559","2058641","0.0-6.0-0.79","3411512","coCA","norming","","","","","","",""
"null","../img/tt/1191tt.jpg","null","mooney1","image-keyboard-response","560","2061646","0.0-6.0-1.79","3411512","coCA","norming","","","","","","",""
