"rt","stimulus","key_press","test_part","trial_type","trial_index","time_elapsed","internal_node_id","totalTime","subject","experiment_name","button_pressed","success","responses","question_order","currentStim","old","correct"
"13594.30000000009","Welcome to the experiment. This is an online experiment so please don't close the tab/window until we say goodbye.  Press any key to begin.","32","instructions","html-keyboard-response","0","13609","0.0-0.0","3506129","coMJ","norming","","","","","","",""
"82008.89500000005","<div style='word-wrap: break-word; width: 900px'><h3>Please consider this information carefully before deciding whether to participate in this research</h3><ul style='text-align: left; font-size: .8em;'><li><b>Purpose of the research</b>: To examine how people process images.</li><li><b>What you will do in this research</b>:  Stimuli (images) will be presented on the computer and you will be asked different questions about them.</li><li><b>Time required</b>: Participation will take between 45 and 60 minutes to complete.</li><li><b>Risks</b>:  There are no anticipated risks associated with participating in this study. The effects of participating should be comparable to those you would experience from viewing a computer monitor for 30 minutes and using a mouse or keyboard.</li><li><b>Benefits</b>:  This study provides no benefits to you individually except for the credit. The study provides important information about the nature of perception and learning.</li><li><b>Confidentiality</b>:  Your participation in this study will remain confidential. No personally identifiable information will be associated with your data. Your de-identified data may be shared with other researchers and used in future projects.</li><li><b>Participation and withdrawal</b>:  Your participation in this study is completely voluntary and you may refuse to participate or you may choose to withdraw at any time without penalty.</li><li><b>How to contact the researchers</b>: If you have questions or concerns about your participation or payment, or want to request a summary of research findings, please contact Sander Van de Cruys (KU Leuven), at sander.vandecruys@kuleuven.be.</li></ul><p>The nature and purpose of this research have been sufficiently explained and I agree to participate in this study.  I understand that I am free to withdraw at any time without incurring any penalty.</p><p>Please consent by clicking the button below to continue. Otherwise, please exit the study at this time.</p></div>","","instructions","html-button-response","1","95622","0.0-1.0","3506129","coMJ","norming","0","","","","","",""
"","","","instructions","fullscreen","2","178688","0.0-2.0","3506129","coMJ","norming","","true","","","","",""
"74098.09500000006","","","sona","survey-html-form","3","252797","0.0-3.0","3506129","coMJ","norming","","","[{""name"":""sonaid"",""value"":""MJ""},{""name"":""debrief"",""value"":""no""},{""name"":""datajoin"",""value"":""yes""}]","","","",""
"140555.87000000017","<div style='word-wrap: break-word; width: 900px'><h3>Instructions</h3><p>This experiment will have 3 parts. In the first part you will see a series of distorted images like the one below on the left. As you can see in the righthand image, the distorted images are derived from actual photographs. In what follows, you will <strong>briefly</strong> be presented with <strong>only</strong> the distorted image.</p> <div style='float: left; margin-right: 20px;'><img src='../img/018tt.jpg' height='250' width='250'></img></div><div style='float: right; margin-left: 20px;'><img src='../img/018gs.jpg' height='250' width='250'></img></div><p>Subsequently you will be asked a few questions about the image: One question on how <strong>curious</strong> you are about the solution and one on how <strong>confident</strong> you are that you know the solution.</p>Next, we ask you to make a guess on what is in the image. Note that it is OK to name just the <strong>basic level category</strong>. For example when you see a parrot in the image, 'parrot' will obviously be a correct answer but also correct is 'bird'. However, 'animal' will <strong>not</strong> be counted as a correct response. For the example above, 'rose' would be correct or 'flower', but not 'plant'. When soccer players are depicted, 'soccer', 'football', 'soccer players' will be correct, but not 'humans', 'outdoors', or 'sports'. You do not need to describe the image in full, just name the main object in it <strong>in one or two words</strong>. All images depict objects from one of the following broad level categories: animals, inanimate objects, plants, sports, vehicles, and food. Recognizing means knowing <strong>more</strong> than these broad labels for a given image. But we always encourage you to <strong>make a guess</strong> if you can. Note that you are allowed to use <strong>Dutch and English</strong> in your answers, whatever comes easiest for you.</p><p>Press any key to continue.</p></div>","32","instructions","html-keyboard-response","4","393352","0.0-4.0","3506129","coMJ","norming","","","","","","",""
"165422.0600000001","<div style='word-wrap: break-word; width: 900px'><h3>Instructions</h3> <p>Next, the solution image will be revealed to you and you'll be asked to indicate how strong your <strong>aha-experience</strong> was after seeing the solution. This describes the positive feeling of the 'click' you sometimes experience, when the pieces of the 'puzzle' fall together and you suddenly have 'insight' in the image.</p><img src='aha.jpg' height='188' width='250'></img><p>Note that there are no right or wrong answers. We are interested in what <strong>you</strong> see in the image and how <strong>you</strong> feel about it.</p><p>Press any key to start the experiment.</p></div>","32","instructions","html-keyboard-response","5","558784","0.0-5.0","3506129","coMJ","norming","","","","","","",""
"null","<div style=""font-size:60px;""> </div>","null","fixation","html-keyboard-response","6","558988","0.0-6.0-0.0","3506129","coMJ","norming","","","","","","",""
"null","../img/tt/1189tt.jpg","null","mooney1","image-keyboard-response","7","561997","0.0-6.0-1.0","3506129","coMJ","norming","","","","","","",""
"39438.570000000065","","","post_mooney1_questions","survey-likert","8","601439","0.0-6.0-2.0","3506129","coMJ","norming","","","{""curiosity"":6,""confidence"":0}","[0,1]","../img/tt/1189tt.jpg","",""
"15325.494999999995","","","recognition","survey-text","9","616767","0.0-6.0-3.0","3506129","coMJ","norming","","","{""guess"":""""}","","../img/tt/1189tt.jpg","",""
"null","../img/gs/1189gs.jpg","null","reveal","image-keyboard-response","10","618775","0.0-6.0-4.0","3506129","coMJ","norming","","","","","","",""
"null","../img/tt/1189tt.jpg","null","mooney2","image-keyboard-response","11","620790","0.0-6.0-5.0","3506129","coMJ","norming","","","","","","",""
"4882.92499999993","","","post_reveal_questions","survey-likert","12","625675","0.0-6.0-6.0","3506129","coMJ","norming","","","{""aha"":5}","[0]","../img/tt/1189tt.jpg","",""
"null","<div style=""font-size:60px;""> </div>","null","fixation","html-keyboard-response","13","625884","0.0-6.0-0.1","3506129","coMJ","norming","","","","","","",""
"null","../img/tt/1091tt.jpg","null","mooney1","image-keyboard-response","14","628891","0.0-6.0-1.1","3506129","coMJ","norming","","","","","","",""
"7053.769999999902","","","post_mooney1_questions","survey-likert","15","635947","0.0-6.0-2.1","3506129","coMJ","norming","","","{""curiosity"":2,""confidence"":5}","[0,1]","../img/tt/1091tt.jpg","",""
"4014.030000000028","","","recognition","survey-text","16","639963","0.0-6.0-3.1","3506129","coMJ","norming","","","{""guess"":""paard""}","","../img/tt/1091tt.jpg","",""
"null","../img/gs/1091gs.jpg","null","reveal","image-keyboard-response","17","641964","0.0-6.0-4.1","3506129","coMJ","norming","","","","","","",""
"null","../img/tt/1091tt.jpg","null","mooney2","image-keyboard-response","18","643967","0.0-6.0-5.1","3506129","coMJ","norming","","","","","","",""
"25073.154999999795","","","post_reveal_questions","survey-likert","19","669042","0.0-6.0-6.1","3506129","coMJ","norming","","","{""aha"":4}","[0]","../img/tt/1091tt.jpg","",""
"null","<div style=""font-size:60px;""> </div>","null","fixation","html-keyboard-response","20","669244","0.0-6.0-0.2","3506129","coMJ","norming","","","","","","",""
"null","../img/tt/1027tt.jpg","null","mooney1","image-keyboard-response","21","672254","0.0-6.0-1.2","3506129","coMJ","norming","","","","","","",""
"4882.055000000051","","","post_mooney1_questions","survey-likert","22","677139","0.0-6.0-2.2","3506129","coMJ","norming","","","{""curiosity"":5,""confidence"":0}","[0,1]","../img/tt/1027tt.jpg","",""
"1262.234999999986","","","recognition","survey-text","23","678403","0.0-6.0-3.2","3506129","coMJ","norming","","","{""guess"":""""}","","../img/tt/1027tt.jpg","",""
"null","../img/gs/1027gs.jpg","null","reveal","image-keyboard-response","24","680404","0.0-6.0-4.2","3506129","coMJ","norming","","","","","","",""
"null","../img/tt/1027tt.jpg","null","mooney2","image-keyboard-response","25","682414","0.0-6.0-5.2","3506129","coMJ","norming","","","","","","",""
"7670.195000000182","","","post_reveal_questions","survey-likert","26","690085","0.0-6.0-6.2","3506129","coMJ","norming","","","{""aha"":4}","[0]","../img/tt/1027tt.jpg","",""
"null","<div style=""font-size:60px;""> </div>","null","fixation","html-keyboard-response","27","690288","0.0-6.0-0.3","3506129","coMJ","norming","","","","","","",""
"null","../img/tt/318tt.jpg","null","mooney1","image-keyboard-response","28","693293","0.0-6.0-1.3","3506129","coMJ","norming","","","","","","",""
"4173.145000000019","","","post_mooney1_questions","survey-likert","29","697469","0.0-6.0-2.3","3506129","coMJ","norming","","","{""curiosity"":4,""confidence"":3}","[0,1]","../img/tt/318tt.jpg","",""
"4830.080000000191","","","recognition","survey-text","30","702301","0.0-6.0-3.3","3506129","coMJ","norming","","","{""guess"":""autostuur""}","","../img/tt/318tt.jpg","",""
"null","../img/gs/318gs.jpg","null","reveal","image-keyboard-response","31","704309","0.0-6.0-4.3","3506129","coMJ","norming","","","","","","",""
"null","../img/tt/318tt.jpg","null","mooney2","image-keyboard-response","32","706313","0.0-6.0-5.3","3506129","coMJ","norming","","","","","","",""
"3418.5500000000466","","","post_reveal_questions","survey-likert","33","709733","0.0-6.0-6.3","3506129","coMJ","norming","","","{""aha"":4}","[0]","../img/tt/318tt.jpg","",""
"null","<div style=""font-size:60px;""> </div>","null","fixation","html-keyboard-response","34","709935","0.0-6.0-0.4","3506129","coMJ","norming","","","","","","",""
"null","../img/tt/1102tt.jpg","null","mooney1","image-keyboard-response","35","712942","0.0-6.0-1.4","3506129","coMJ","norming","","","","","","",""
"4812.564999999944","","","post_mooney1_questions","survey-likert","36","717757","0.0-6.0-2.4","3506129","coMJ","norming","","","{""curiosity"":5,""confidence"":0}","[0,1]","../img/tt/1102tt.jpg","",""
"1574.1750000000466","","","recognition","survey-text","37","719333","0.0-6.0-3.4","3506129","coMJ","norming","","","{""guess"":""""}","","../img/tt/1102tt.jpg","",""
"null","../img/gs/1102gs.jpg","null","reveal","image-keyboard-response","38","721341","0.0-6.0-4.4","3506129","coMJ","norming","","","","","","",""
"null","../img/tt/1102tt.jpg","null","mooney2","image-keyboard-response","39","723355","0.0-6.0-5.4","3506129","coMJ","norming","","","","","","",""
"3296.270000000135","","","post_reveal_questions","survey-likert","40","726653","0.0-6.0-6.4","3506129","coMJ","norming","","","{""aha"":5}","[0]","../img/tt/1102tt.jpg","",""
"null","<div style=""font-size:60px;""> </div>","null","fixation","html-keyboard-response","41","726858","0.0-6.0-0.5","3506129","coMJ","norming","","","","","","",""
"null","../img/tt/1260tt.jpg","null","mooney1","image-keyboard-response","42","729870","0.0-6.0-1.5","3506129","coMJ","norming","","","","","","",""
"3534.4550000000745","","","post_mooney1_questions","survey-likert","43","733405","0.0-6.0-2.5","3506129","coMJ","norming","","","{""curiosity"":6,""confidence"":0}","[0,1]","../img/tt/1260tt.jpg","",""
"1150.4449999999488","","","recognition","survey-text","44","734557","0.0-6.0-3.5","3506129","coMJ","norming","","","{""guess"":""""}","","../img/tt/1260tt.jpg","",""
"null","../img/gs/1260gs.jpg","null","reveal","image-keyboard-response","45","736564","0.0-6.0-4.5","3506129","coMJ","norming","","","","","","",""
"null","../img/tt/1260tt.jpg","null","mooney2","image-keyboard-response","46","738568","0.0-6.0-5.5","3506129","coMJ","norming","","","","","","",""
"3026.640000000014","","","post_reveal_questions","survey-likert","47","741597","0.0-6.0-6.5","3506129","coMJ","norming","","","{""aha"":4}","[0]","../img/tt/1260tt.jpg","",""
"null","<div style=""font-size:60px;""> </div>","null","fixation","html-keyboard-response","48","741804","0.0-6.0-0.6","3506129","coMJ","norming","","","","","","",""
"null","../img/tt/001tt.jpg","null","mooney1","image-keyboard-response","49","744817","0.0-6.0-1.6","3506129","coMJ","norming","","","","","","",""
"4353.75","","","post_mooney1_questions","survey-likert","50","749173","0.0-6.0-2.6","3506129","coMJ","norming","","","{""curiosity"":6,""confidence"":0}","[0,1]","../img/tt/001tt.jpg","",""
"886.0649999998277","","","recognition","survey-text","51","750061","0.0-6.0-3.6","3506129","coMJ","norming","","","{""guess"":""""}","","../img/tt/001tt.jpg","",""
"null","../img/gs/001gs.jpg","null","reveal","image-keyboard-response","52","752068","0.0-6.0-4.6","3506129","coMJ","norming","","","","","","",""
"null","../img/tt/001tt.jpg","null","mooney2","image-keyboard-response","53","754077","0.0-6.0-5.6","3506129","coMJ","norming","","","","","","",""
"1837.7299999999814","","","post_reveal_questions","survey-likert","54","755917","0.0-6.0-6.6","3506129","coMJ","norming","","","{""aha"":5}","[0]","../img/tt/001tt.jpg","",""
"null","<div style=""font-size:60px;""> </div>","null","fixation","html-keyboard-response","55","756118","0.0-6.0-0.7","3506129","coMJ","norming","","","","","","",""
"null","../img/tt/1089tt.jpg","null","mooney1","image-keyboard-response","56","759130","0.0-6.0-1.7","3506129","coMJ","norming","","","","","","",""
"3521.2750000000233","","","post_mooney1_questions","survey-likert","57","762653","0.0-6.0-2.7","3506129","coMJ","norming","","","{""curiosity"":6,""confidence"":0}","[0,1]","../img/tt/1089tt.jpg","",""
"4278.195000000182","","","recognition","survey-text","58","766933","0.0-6.0-3.7","3506129","coMJ","norming","","","{""guess"":""""}","","../img/tt/1089tt.jpg","",""
"null","../img/gs/1089gs.jpg","null","reveal","image-keyboard-response","59","768934","0.0-6.0-4.7","3506129","coMJ","norming","","","","","","",""
"null","../img/tt/1089tt.jpg","null","mooney2","image-keyboard-response","60","770937","0.0-6.0-5.7","3506129","coMJ","norming","","","","","","",""
"1914.3249999999534","","","post_reveal_questions","survey-likert","61","772853","0.0-6.0-6.7","3506129","coMJ","norming","","","{""aha"":4}","[0]","../img/tt/1089tt.jpg","",""
"null","<div style=""font-size:60px;""> </div>","null","fixation","html-keyboard-response","62","773055","0.0-6.0-0.8","3506129","coMJ","norming","","","","","","",""
"null","../img/tt/124tt.jpg","null","mooney1","image-keyboard-response","63","776062","0.0-6.0-1.8","3506129","coMJ","norming","","","","","","",""
"5604.664999999804","","","post_mooney1_questions","survey-likert","64","781669","0.0-6.0-2.8","3506129","coMJ","norming","","","{""curiosity"":4,""confidence"":5}","[0,1]","../img/tt/124tt.jpg","",""
"3022.5999999999767","","","recognition","survey-text","65","784694","0.0-6.0-3.8","3506129","coMJ","norming","","","{""guess"":""aap""}","","../img/tt/124tt.jpg","",""
"null","../img/gs/124gs.jpg","null","reveal","image-keyboard-response","66","786700","0.0-6.0-4.8","3506129","coMJ","norming","","","","","","",""
"null","../img/tt/124tt.jpg","null","mooney2","image-keyboard-response","67","788702","0.0-6.0-5.8","3506129","coMJ","norming","","","","","","",""
"3068.8099999999395","","","post_reveal_questions","survey-likert","68","791773","0.0-6.0-6.8","3506129","coMJ","norming","","","{""aha"":3}","[0]","../img/tt/124tt.jpg","",""
"null","<div style=""font-size:60px;""> </div>","null","fixation","html-keyboard-response","69","791979","0.0-6.0-0.9","3506129","coMJ","norming","","","","","","",""
"null","../img/tt/416tt.jpg","null","mooney1","image-keyboard-response","70","794991","0.0-6.0-1.9","3506129","coMJ","norming","","","","","","",""
"6019.5650000000605","","","post_mooney1_questions","survey-likert","71","801013","0.0-6.0-2.9","3506129","coMJ","norming","","","{""curiosity"":2,""confidence"":5}","[0,1]","../img/tt/416tt.jpg","",""
"15150.05999999994","","","recognition","survey-text","72","816156","0.0-6.0-3.9","3506129","coMJ","norming","","","{""guess"":""struisvogel""}","","../img/tt/416tt.jpg","",""
"null","../img/gs/416gs.jpg","null","reveal","image-keyboard-response","73","818165","0.0-6.0-4.9","3506129","coMJ","norming","","","","","","",""
"null","../img/tt/416tt.jpg","null","mooney2","image-keyboard-response","74","820168","0.0-6.0-5.9","3506129","coMJ","norming","","","","","","",""
"3202.2649999998976","","","post_reveal_questions","survey-likert","75","823372","0.0-6.0-6.9","3506129","coMJ","norming","","","{""aha"":1}","[0]","../img/tt/416tt.jpg","",""
"null","<div style=""font-size:60px;""> </div>","null","fixation","html-keyboard-response","76","823574","0.0-6.0-0.10","3506129","coMJ","norming","","","","","","",""
"null","../img/tt/1276tt.jpg","null","mooney1","image-keyboard-response","77","826578","0.0-6.0-1.10","3506129","coMJ","norming","","","","","","",""
"3736.3400000002002","","","post_mooney1_questions","survey-likert","78","830317","0.0-6.0-2.10","3506129","coMJ","norming","","","{""curiosity"":6,""confidence"":0}","[0,1]","../img/tt/1276tt.jpg","",""
"710.2300000000978","","","recognition","survey-text","79","831028","0.0-6.0-3.10","3506129","coMJ","norming","","","{""guess"":""""}","","../img/tt/1276tt.jpg","",""
"null","../img/gs/1276gs.jpg","null","reveal","image-keyboard-response","80","833036","0.0-6.0-4.10","3506129","coMJ","norming","","","","","","",""
"null","../img/tt/1276tt.jpg","null","mooney2","image-keyboard-response","81","835038","0.0-6.0-5.10","3506129","coMJ","norming","","","","","","",""
"2140.6500000001397","","","post_reveal_questions","survey-likert","82","837181","0.0-6.0-6.10","3506129","coMJ","norming","","","{""aha"":4}","[0]","../img/tt/1276tt.jpg","",""
"null","<div style=""font-size:60px;""> </div>","null","fixation","html-keyboard-response","83","837383","0.0-6.0-0.11","3506129","coMJ","norming","","","","","","",""
"null","../img/tt/1055tt.jpg","null","mooney1","image-keyboard-response","84","840392","0.0-6.0-1.11","3506129","coMJ","norming","","","","","","",""
"4395.689999999828","","","post_mooney1_questions","survey-likert","85","844789","0.0-6.0-2.11","3506129","coMJ","norming","","","{""curiosity"":6,""confidence"":0}","[0,1]","../img/tt/1055tt.jpg","",""
"718.2399999998743","","","recognition","survey-text","86","845508","0.0-6.0-3.11","3506129","coMJ","norming","","","{""guess"":""""}","","../img/tt/1055tt.jpg","",""
"null","../img/gs/1055gs.jpg","null","reveal","image-keyboard-response","87","847513","0.0-6.0-4.11","3506129","coMJ","norming","","","","","","",""
"null","../img/tt/1055tt.jpg","null","mooney2","image-keyboard-response","88","849517","0.0-6.0-5.11","3506129","coMJ","norming","","","","","","",""
"2086.2649999998976","","","post_reveal_questions","survey-likert","89","851605","0.0-6.0-6.11","3506129","coMJ","norming","","","{""aha"":5}","[0]","../img/tt/1055tt.jpg","",""
"null","<div style=""font-size:60px;""> </div>","null","fixation","html-keyboard-response","90","851806","0.0-6.0-0.12","3506129","coMJ","norming","","","","","","",""
"null","../img/tt/1012tt.jpg","null","mooney1","image-keyboard-response","91","854809","0.0-6.0-1.12","3506129","coMJ","norming","","","","","","",""
"3265.255000000121","","","post_mooney1_questions","survey-likert","92","858077","0.0-6.0-2.12","3506129","coMJ","norming","","","{""curiosity"":6,""confidence"":0}","[0,1]","../img/tt/1012tt.jpg","",""
"966.0599999999395","","","recognition","survey-text","93","859044","0.0-6.0-3.12","3506129","coMJ","norming","","","{""guess"":""""}","","../img/tt/1012tt.jpg","",""
"null","../img/gs/1012gs.jpg","null","reveal","image-keyboard-response","94","861049","0.0-6.0-4.12","3506129","coMJ","norming","","","","","","",""
"null","../img/tt/1012tt.jpg","null","mooney2","image-keyboard-response","95","863058","0.0-6.0-5.12","3506129","coMJ","norming","","","","","","",""
"2841.2600000000093","","","post_reveal_questions","survey-likert","96","865907","0.0-6.0-6.12","3506129","coMJ","norming","","","{""aha"":5}","[0]","../img/tt/1012tt.jpg","",""
"null","<div style=""font-size:60px;""> </div>","null","fixation","html-keyboard-response","97","866108","0.0-6.0-0.13","3506129","coMJ","norming","","","","","","",""
"null","../img/tt/270tt.jpg","null","mooney1","image-keyboard-response","98","869117","0.0-6.0-1.13","3506129","coMJ","norming","","","","","","",""
"4614.525000000023","","","post_mooney1_questions","survey-likert","99","873739","0.0-6.0-2.13","3506129","coMJ","norming","","","{""curiosity"":5,""confidence"":1}","[0,1]","../img/tt/270tt.jpg","",""
"9534.084999999963","","","recognition","survey-text","100","883275","0.0-6.0-3.13","3506129","coMJ","norming","","","{""guess"":""eland""}","","../img/tt/270tt.jpg","",""
"null","../img/gs/270gs.jpg","null","reveal","image-keyboard-response","101","885276","0.0-6.0-4.13","3506129","coMJ","norming","","","","","","",""
"null","../img/tt/270tt.jpg","null","mooney2","image-keyboard-response","102","887279","0.0-6.0-5.13","3506129","coMJ","norming","","","","","","",""
"3202.944999999949","","","post_reveal_questions","survey-likert","103","890483","0.0-6.0-6.13","3506129","coMJ","norming","","","{""aha"":4}","[0]","../img/tt/270tt.jpg","",""
"null","<div style=""font-size:60px;""> </div>","null","fixation","html-keyboard-response","104","890685","0.0-6.0-0.14","3506129","coMJ","norming","","","","","","",""
"null","../img/tt/007tt.jpg","null","mooney1","image-keyboard-response","105","893691","0.0-6.0-1.14","3506129","coMJ","norming","","","","","","",""
"4596.9799999997485","","","post_mooney1_questions","survey-likert","106","898291","0.0-6.0-2.14","3506129","coMJ","norming","","","{""curiosity"":5,""confidence"":1}","[0,1]","../img/tt/007tt.jpg","",""
"6406.159999999916","","","recognition","survey-text","107","904699","0.0-6.0-3.14","3506129","coMJ","norming","","","{""guess"":""vissen""}","","../img/tt/007tt.jpg","",""
"null","../img/gs/007gs.jpg","null","reveal","image-keyboard-response","108","906707","0.0-6.0-4.14","3506129","coMJ","norming","","","","","","",""
"null","../img/tt/007tt.jpg","null","mooney2","image-keyboard-response","109","908710","0.0-6.0-5.14","3506129","coMJ","norming","","","","","","",""
"1970.9799999997485","","","post_reveal_questions","survey-likert","110","910683","0.0-6.0-6.14","3506129","coMJ","norming","","","{""aha"":5}","[0]","../img/tt/007tt.jpg","",""
"null","<div style=""font-size:60px;""> </div>","null","fixation","html-keyboard-response","111","910886","0.0-6.0-0.15","3506129","coMJ","norming","","","","","","",""
"null","../img/tt/1250tt.jpg","null","mooney1","image-keyboard-response","112","913893","0.0-6.0-1.15","3506129","coMJ","norming","","","","","","",""
"4203.264999999898","","","post_mooney1_questions","survey-likert","113","918099","0.0-6.0-2.15","3506129","coMJ","norming","","","{""curiosity"":5,""confidence"":2}","[0,1]","../img/tt/1250tt.jpg","",""
"5421.090000000084","","","recognition","survey-text","114","923522","0.0-6.0-3.15","3506129","coMJ","norming","","","{""guess"":""dolfijn""}","","../img/tt/1250tt.jpg","",""
"null","../img/gs/1250gs.jpg","null","reveal","image-keyboard-response","115","925534","0.0-6.0-4.15","3506129","coMJ","norming","","","","","","",""
"null","../img/tt/1250tt.jpg","null","mooney2","image-keyboard-response","116","927539","0.0-6.0-5.15","3506129","coMJ","norming","","","","","","",""
"4481.649999999907","","","post_reveal_questions","survey-likert","117","932022","0.0-6.0-6.15","3506129","coMJ","norming","","","{""aha"":3}","[0]","../img/tt/1250tt.jpg","",""
"null","<div style=""font-size:60px;""> </div>","null","fixation","html-keyboard-response","118","932226","0.0-6.0-0.16","3506129","coMJ","norming","","","","","","",""
"null","../img/tt/1202tt.jpg","null","mooney1","image-keyboard-response","119","935230","0.0-6.0-1.16","3506129","coMJ","norming","","","","","","",""
"7774.689999999944","","","post_mooney1_questions","survey-likert","120","943006","0.0-6.0-2.16","3506129","coMJ","norming","","","{""curiosity"":5,""confidence"":1}","[0,1]","../img/tt/1202tt.jpg","",""
"4045.45000000007","","","recognition","survey-text","121","947053","0.0-6.0-3.16","3506129","coMJ","norming","","","{""guess"":""eetkamer""}","","../img/tt/1202tt.jpg","",""
"null","../img/gs/1202gs.jpg","null","reveal","image-keyboard-response","122","949057","0.0-6.0-4.16","3506129","coMJ","norming","","","","","","",""
"null","../img/tt/1202tt.jpg","null","mooney2","image-keyboard-response","123","951065","0.0-6.0-5.16","3506129","coMJ","norming","","","","","","",""
"3259.6750000000466","","","post_reveal_questions","survey-likert","124","954325","0.0-6.0-6.16","3506129","coMJ","norming","","","{""aha"":6}","[0]","../img/tt/1202tt.jpg","",""
"null","<div style=""font-size:60px;""> </div>","null","fixation","html-keyboard-response","125","954535","0.0-6.0-0.17","3506129","coMJ","norming","","","","","","",""
"null","../img/tt/1061tt.jpg","null","mooney1","image-keyboard-response","126","957543","0.0-6.0-1.17","3506129","coMJ","norming","","","","","","",""
"7158.155000000028","","","post_mooney1_questions","survey-likert","127","964702","0.0-6.0-2.17","3506129","coMJ","norming","","","{""curiosity"":5,""confidence"":2}","[0,1]","../img/tt/1061tt.jpg","",""
"4597.950000000186","","","recognition","survey-text","128","969302","0.0-6.0-3.17","3506129","coMJ","norming","","","{""guess"":""straat""}","","../img/tt/1061tt.jpg","",""
"null","../img/gs/1061gs.jpg","null","reveal","image-keyboard-response","129","971310","0.0-6.0-4.17","3506129","coMJ","norming","","","","","","",""
"null","../img/tt/1061tt.jpg","null","mooney2","image-keyboard-response","130","973321","0.0-6.0-5.17","3506129","coMJ","norming","","","","","","",""
"1770.3249999999534","","","post_reveal_questions","survey-likert","131","975094","0.0-6.0-6.17","3506129","coMJ","norming","","","{""aha"":5}","[0]","../img/tt/1061tt.jpg","",""
"null","<div style=""font-size:60px;""> </div>","null","fixation","html-keyboard-response","132","975295","0.0-6.0-0.18","3506129","coMJ","norming","","","","","","",""
"null","../img/tt/1186tt.jpg","null","mooney1","image-keyboard-response","133","978297","0.0-6.0-1.18","3506129","coMJ","norming","","","","","","",""
"7626.785000000149","","","post_mooney1_questions","survey-likert","134","985924","0.0-6.0-2.18","3506129","coMJ","norming","","","{""curiosity"":4,""confidence"":3}","[0,1]","../img/tt/1186tt.jpg","",""
"10070.025000000256","","","recognition","survey-text","135","995996","0.0-6.0-3.18","3506129","coMJ","norming","","","{""guess"":""rolschaatser""}","","../img/tt/1186tt.jpg","",""
"null","../img/gs/1186gs.jpg","null","reveal","image-keyboard-response","136","998004","0.0-6.0-4.18","3506129","coMJ","norming","","","","","","",""
"null","../img/tt/1186tt.jpg","null","mooney2","image-keyboard-response","137","1000006","0.0-6.0-5.18","3506129","coMJ","norming","","","","","","",""
"2875.880000000121","","","post_reveal_questions","survey-likert","138","1002884","0.0-6.0-6.18","3506129","coMJ","norming","","","{""aha"":1}","[0]","../img/tt/1186tt.jpg","",""
"null","<div style=""font-size:60px;""> </div>","null","fixation","html-keyboard-response","139","1003088","0.0-6.0-0.19","3506129","coMJ","norming","","","","","","",""
"null","../img/tt/013tt.jpg","null","mooney1","image-keyboard-response","140","1006098","0.0-6.0-1.19","3506129","coMJ","norming","","","","","","",""
"3503.429999999935","","","post_mooney1_questions","survey-likert","141","1009604","0.0-6.0-2.19","3506129","coMJ","norming","","","{""curiosity"":6,""confidence"":0}","[0,1]","../img/tt/013tt.jpg","",""
"854.175000000163","","","recognition","survey-text","142","1010460","0.0-6.0-3.19","3506129","coMJ","norming","","","{""guess"":""""}","","../img/tt/013tt.jpg","",""
"null","../img/gs/013gs.jpg","null","reveal","image-keyboard-response","143","1012463","0.0-6.0-4.19","3506129","coMJ","norming","","","","","","",""
"null","../img/tt/013tt.jpg","null","mooney2","image-keyboard-response","144","1014473","0.0-6.0-5.19","3506129","coMJ","norming","","","","","","",""
"1970.3149999999441","","","post_reveal_questions","survey-likert","145","1016444","0.0-6.0-6.19","3506129","coMJ","norming","","","{""aha"":6}","[0]","../img/tt/013tt.jpg","",""
"null","<div style=""font-size:60px;""> </div>","null","fixation","html-keyboard-response","146","1016651","0.0-6.0-0.20","3506129","coMJ","norming","","","","","","",""
"null","../img/tt/522tt.jpg","null","mooney1","image-keyboard-response","147","1019654","0.0-6.0-1.20","3506129","coMJ","norming","","","","","","",""
"4139.1849999999395","","","post_mooney1_questions","survey-likert","148","1023796","0.0-6.0-2.20","3506129","coMJ","norming","","","{""curiosity"":6,""confidence"":0}","[0,1]","../img/tt/522tt.jpg","",""
"878.1100000001024","","","recognition","survey-text","149","1024676","0.0-6.0-3.20","3506129","coMJ","norming","","","{""guess"":""""}","","../img/tt/522tt.jpg","",""
"null","../img/gs/522gs.jpg","null","reveal","image-keyboard-response","150","1026679","0.0-6.0-4.20","3506129","coMJ","norming","","","","","","",""
"null","../img/tt/522tt.jpg","null","mooney2","image-keyboard-response","151","1028690","0.0-6.0-5.20","3506129","coMJ","norming","","","","","","",""
"1999.8000000000466","","","post_reveal_questions","survey-likert","152","1030692","0.0-6.0-6.20","3506129","coMJ","norming","","","{""aha"":5}","[0]","../img/tt/522tt.jpg","",""
"null","<div style=""font-size:60px;""> </div>","null","fixation","html-keyboard-response","153","1030899","0.0-6.0-0.21","3506129","coMJ","norming","","","","","","",""
"null","../img/tt/1278tt.jpg","null","mooney1","image-keyboard-response","154","1033905","0.0-6.0-1.21","3506129","coMJ","norming","","","","","","",""
"4136.285000000149","","","post_mooney1_questions","survey-likert","155","1038044","0.0-6.0-2.21","3506129","coMJ","norming","","","{""curiosity"":6,""confidence"":0}","[0,1]","../img/tt/1278tt.jpg","",""
"958.059999999823","","","recognition","survey-text","156","1039004","0.0-6.0-3.21","3506129","coMJ","norming","","","{""guess"":""""}","","../img/tt/1278tt.jpg","",""
"null","../img/gs/1278gs.jpg","null","reveal","image-keyboard-response","157","1041007","0.0-6.0-4.21","3506129","coMJ","norming","","","","","","",""
"null","../img/tt/1278tt.jpg","null","mooney2","image-keyboard-response","158","1043014","0.0-6.0-5.21","3506129","coMJ","norming","","","","","","",""
"1947.670000000042","","","post_reveal_questions","survey-likert","159","1044964","0.0-6.0-6.21","3506129","coMJ","norming","","","{""aha"":6}","[0]","../img/tt/1278tt.jpg","",""
"null","<div style=""font-size:60px;""> </div>","null","fixation","html-keyboard-response","160","1045172","0.0-6.0-0.22","3506129","coMJ","norming","","","","","","",""
"null","../img/tt/123tt.jpg","null","mooney1","image-keyboard-response","161","1048178","0.0-6.0-1.22","3506129","coMJ","norming","","","","","","",""
"5457.635000000242","","","post_mooney1_questions","survey-likert","162","1053638","0.0-6.0-2.22","3506129","coMJ","norming","","","{""curiosity"":2,""confidence"":6}","[0,1]","../img/tt/123tt.jpg","",""
"8197.754999999888","","","recognition","survey-text","163","1061837","0.0-6.0-3.22","3506129","coMJ","norming","","","{""guess"":""boekentas""}","","../img/tt/123tt.jpg","",""
"null","../img/gs/123gs.jpg","null","reveal","image-keyboard-response","164","1063843","0.0-6.0-4.22","3506129","coMJ","norming","","","","","","",""
"null","../img/tt/123tt.jpg","null","mooney2","image-keyboard-response","165","1065845","0.0-6.0-5.22","3506129","coMJ","norming","","","","","","",""
"1998.1699999996927","","","post_reveal_questions","survey-likert","166","1067846","0.0-6.0-6.22","3506129","coMJ","norming","","","{""aha"":1}","[0]","../img/tt/123tt.jpg","",""
"null","<div style=""font-size:60px;""> </div>","null","fixation","html-keyboard-response","167","1068049","0.0-6.0-0.23","3506129","coMJ","norming","","","","","","",""
"null","../img/tt/329tt.jpg","null","mooney1","image-keyboard-response","168","1071058","0.0-6.0-1.23","3506129","coMJ","norming","","","","","","",""
"3745.5749999999534","","","post_mooney1_questions","survey-likert","169","1074806","0.0-6.0-2.23","3506129","coMJ","norming","","","{""curiosity"":6,""confidence"":0}","[0,1]","../img/tt/329tt.jpg","",""
"814.1700000001583","","","recognition","survey-text","170","1075622","0.0-6.0-3.23","3506129","coMJ","norming","","","{""guess"":""""}","","../img/tt/329tt.jpg","",""
"null","../img/gs/329gs.jpg","null","reveal","image-keyboard-response","171","1077628","0.0-6.0-4.23","3506129","coMJ","norming","","","","","","",""
"null","../img/tt/329tt.jpg","null","mooney2","image-keyboard-response","172","1079639","0.0-6.0-5.23","3506129","coMJ","norming","","","","","","",""
"1932.3549999999814","","","post_reveal_questions","survey-likert","173","1081574","0.0-6.0-6.23","3506129","coMJ","norming","","","{""aha"":4}","[0]","../img/tt/329tt.jpg","",""
"null","<div style=""font-size:60px;""> </div>","null","fixation","html-keyboard-response","174","1081783","0.0-6.0-0.24","3506129","coMJ","norming","","","","","","",""
"null","../img/tt/353tt.jpg","null","mooney1","image-keyboard-response","175","1084789","0.0-6.0-1.24","3506129","coMJ","norming","","","","","","",""
"5414.329999999609","","","post_mooney1_questions","survey-likert","176","1090206","0.0-6.0-2.24","3506129","coMJ","norming","","","{""curiosity"":6,""confidence"":0}","[0,1]","../img/tt/353tt.jpg","",""
"861.9849999998696","","","recognition","survey-text","177","1091070","0.0-6.0-3.24","3506129","coMJ","norming","","","{""guess"":""""}","","../img/tt/353tt.jpg","",""
"null","../img/gs/353gs.jpg","null","reveal","image-keyboard-response","178","1093076","0.0-6.0-4.24","3506129","coMJ","norming","","","","","","",""
"null","../img/tt/353tt.jpg","null","mooney2","image-keyboard-response","179","1095078","0.0-6.0-5.24","3506129","coMJ","norming","","","","","","",""
"1805.5700000000652","","","post_reveal_questions","survey-likert","180","1096886","0.0-6.0-6.24","3506129","coMJ","norming","","","{""aha"":6}","[0]","../img/tt/353tt.jpg","",""
"null","<div style=""font-size:60px;""> </div>","null","fixation","html-keyboard-response","181","1097087","0.0-6.0-0.25","3506129","coMJ","norming","","","","","","",""
"null","../img/tt/507tt.jpg","null","mooney1","image-keyboard-response","182","1100091","0.0-6.0-1.25","3506129","coMJ","norming","","","","","","",""
"3648.3050000001676","","","post_mooney1_questions","survey-likert","183","1103742","0.0-6.0-2.25","3506129","coMJ","norming","","","{""curiosity"":5,""confidence"":2}","[0,1]","../img/tt/507tt.jpg","",""
"4342.114999999758","","","recognition","survey-text","184","1108086","0.0-6.0-3.25","3506129","coMJ","norming","","","{""guess"":""gezicht""}","","../img/tt/507tt.jpg","",""
"null","../img/gs/507gs.jpg","null","reveal","image-keyboard-response","185","1110092","0.0-6.0-4.25","3506129","coMJ","norming","","","","","","",""
"null","../img/tt/507tt.jpg","null","mooney2","image-keyboard-response","186","1112094","0.0-6.0-5.25","3506129","coMJ","norming","","","","","","",""
"1573.04000000027","","","post_reveal_questions","survey-likert","187","1113670","0.0-6.0-6.25","3506129","coMJ","norming","","","{""aha"":6}","[0]","../img/tt/507tt.jpg","",""
"null","<div style=""font-size:60px;""> </div>","null","fixation","html-keyboard-response","188","1113870","0.0-6.0-0.26","3506129","coMJ","norming","","","","","","",""
"null","../img/tt/1205tt.jpg","null","mooney1","image-keyboard-response","189","1116878","0.0-6.0-1.26","3506129","coMJ","norming","","","","","","",""
"5060.730000000214","","","post_mooney1_questions","survey-likert","190","1121942","0.0-6.0-2.26","3506129","coMJ","norming","","","{""curiosity"":5,""confidence"":1}","[0,1]","../img/tt/1205tt.jpg","",""
"4653.909999999916","","","recognition","survey-text","191","1126597","0.0-6.0-3.26","3506129","coMJ","norming","","","{""guess"":""feest""}","","../img/tt/1205tt.jpg","",""
"null","../img/gs/1205gs.jpg","null","reveal","image-keyboard-response","192","1128608","0.0-6.0-4.26","3506129","coMJ","norming","","","","","","",""
"null","../img/tt/1205tt.jpg","null","mooney2","image-keyboard-response","193","1130612","0.0-6.0-5.26","3506129","coMJ","norming","","","","","","",""
"2792.8449999997392","","","post_reveal_questions","survey-likert","194","1133405","0.0-6.0-6.26","3506129","coMJ","norming","","","{""aha"":3}","[0]","../img/tt/1205tt.jpg","",""
"null","<div style=""font-size:60px;""> </div>","null","fixation","html-keyboard-response","195","1133616","0.0-6.0-0.27","3506129","coMJ","norming","","","","","","",""
"null","../img/tt/063tt.jpg","null","mooney1","image-keyboard-response","196","1136625","0.0-6.0-1.27","3506129","coMJ","norming","","","","","","",""
"3785.2700000002515","","","post_mooney1_questions","survey-likert","197","1140413","0.0-6.0-2.27","3506129","coMJ","norming","","","{""curiosity"":5,""confidence"":2}","[0,1]","../img/tt/063tt.jpg","",""
"5246.125000000233","","","recognition","survey-text","198","1145661","0.0-6.0-3.27","3506129","coMJ","norming","","","{""guess"":""accordeon""}","","../img/tt/063tt.jpg","",""
"null","../img/gs/063gs.jpg","null","reveal","image-keyboard-response","199","1147665","0.0-6.0-4.27","3506129","coMJ","norming","","","","","","",""
"null","../img/tt/063tt.jpg","null","mooney2","image-keyboard-response","200","1149673","0.0-6.0-5.27","3506129","coMJ","norming","","","","","","",""
"2810.375","","","post_reveal_questions","survey-likert","201","1152485","0.0-6.0-6.27","3506129","coMJ","norming","","","{""aha"":2}","[0]","../img/tt/063tt.jpg","",""
"null","<div style=""font-size:60px;""> </div>","null","fixation","html-keyboard-response","202","1152690","0.0-6.0-0.28","3506129","coMJ","norming","","","","","","",""
"null","../img/tt/1122tt.jpg","null","mooney1","image-keyboard-response","203","1155693","0.0-6.0-1.28","3506129","coMJ","norming","","","","","","",""
"6542.024999999674","","","post_mooney1_questions","survey-likert","204","1162238","0.0-6.0-2.28","3506129","coMJ","norming","","","{""curiosity"":1,""confidence"":5}","[0,1]","../img/tt/1122tt.jpg","",""
"3078.149999999907","","","recognition","survey-text","205","1165317","0.0-6.0-3.28","3506129","coMJ","norming","","","{""guess"":""boten""}","","../img/tt/1122tt.jpg","",""
"null","../img/gs/1122gs.jpg","null","reveal","image-keyboard-response","206","1167323","0.0-6.0-4.28","3506129","coMJ","norming","","","","","","",""
"null","../img/tt/1122tt.jpg","null","mooney2","image-keyboard-response","207","1169333","0.0-6.0-5.28","3506129","coMJ","norming","","","","","","",""
"2461.9600000001956","","","post_reveal_questions","survey-likert","208","1171791","0.0-6.0-6.28","3506129","coMJ","norming","","","{""aha"":2}","[0]","../img/tt/1122tt.jpg","",""
"null","<div style=""font-size:60px;""> </div>","null","fixation","html-keyboard-response","209","1171998","0.0-6.0-0.29","3506129","coMJ","norming","","","","","","",""
"null","../img/tt/1217tt.jpg","null","mooney1","image-keyboard-response","210","1175010","0.0-6.0-1.29","3506129","coMJ","norming","","","","","","",""
"7523.410000000149","","","post_mooney1_questions","survey-likert","211","1182536","0.0-6.0-2.29","3506129","coMJ","norming","","","{""curiosity"":6,""confidence"":0}","[0,1]","../img/tt/1217tt.jpg","",""
"838.0399999995716","","","recognition","survey-text","212","1183375","0.0-6.0-3.29","3506129","coMJ","norming","","","{""guess"":""""}","","../img/tt/1217tt.jpg","",""
"null","../img/gs/1217gs.jpg","null","reveal","image-keyboard-response","213","1185385","0.0-6.0-4.29","3506129","coMJ","norming","","","","","","",""
"null","../img/tt/1217tt.jpg","null","mooney2","image-keyboard-response","214","1187396","0.0-6.0-5.29","3506129","coMJ","norming","","","","","","",""
"3449.4850000001024","","","post_reveal_questions","survey-likert","215","1190848","0.0-6.0-6.29","3506129","coMJ","norming","","","{""aha"":3}","[0]","../img/tt/1217tt.jpg","",""
"null","<div style=""font-size:60px;""> </div>","null","fixation","html-keyboard-response","216","1191051","0.0-6.0-0.30","3506129","coMJ","norming","","","","","","",""
"null","../img/tt/1046tt.jpg","null","mooney1","image-keyboard-response","217","1194063","0.0-6.0-1.30","3506129","coMJ","norming","","","","","","",""
"3990.1350000000093","","","post_mooney1_questions","survey-likert","218","1198056","0.0-6.0-2.30","3506129","coMJ","norming","","","{""curiosity"":6,""confidence"":0}","[0,1]","../img/tt/1046tt.jpg","",""
"878.3350000004284","","","recognition","survey-text","219","1198936","0.0-6.0-3.30","3506129","coMJ","norming","","","{""guess"":""""}","","../img/tt/1046tt.jpg","",""
"null","../img/gs/1046gs.jpg","null","reveal","image-keyboard-response","220","1200940","0.0-6.0-4.30","3506129","coMJ","norming","","","","","","",""
"null","../img/tt/1046tt.jpg","null","mooney2","image-keyboard-response","221","1202943","0.0-6.0-5.30","3506129","coMJ","norming","","","","","","",""
"4014.850000000093","","","post_reveal_questions","survey-likert","222","1206960","0.0-6.0-6.30","3506129","coMJ","norming","","","{""aha"":1}","[0]","../img/tt/1046tt.jpg","",""
"null","<div style=""font-size:60px;""> </div>","null","fixation","html-keyboard-response","223","1207167","0.0-6.0-0.31","3506129","coMJ","norming","","","","","","",""
"null","../img/tt/1269tt.jpg","null","mooney1","image-keyboard-response","224","1210180","0.0-6.0-1.31","3506129","coMJ","norming","","","","","","",""
"5289.254999999655","","","post_mooney1_questions","survey-likert","225","1215472","0.0-6.0-2.31","3506129","coMJ","norming","","","{""curiosity"":5,""confidence"":1}","[0,1]","../img/tt/1269tt.jpg","",""
"3389.910000000382","","","recognition","survey-text","226","1218863","0.0-6.0-3.31","3506129","coMJ","norming","","","{""guess"":""vos""}","","../img/tt/1269tt.jpg","",""
"null","../img/gs/1269gs.jpg","null","reveal","image-keyboard-response","227","1220866","0.0-6.0-4.31","3506129","coMJ","norming","","","","","","",""
"null","../img/tt/1269tt.jpg","null","mooney2","image-keyboard-response","228","1222869","0.0-6.0-5.31","3506129","coMJ","norming","","","","","","",""
"2527.7450000003446","","","post_reveal_questions","survey-likert","229","1225399","0.0-6.0-6.31","3506129","coMJ","norming","","","{""aha"":2}","[0]","../img/tt/1269tt.jpg","",""
"null","<div style=""font-size:60px;""> </div>","null","fixation","html-keyboard-response","230","1225600","0.0-6.0-0.32","3506129","coMJ","norming","","","","","","",""
"null","../img/tt/1002tt.jpg","null","mooney1","image-keyboard-response","231","1228607","0.0-6.0-1.32","3506129","coMJ","norming","","","","","","",""
"4374.140000000363","","","post_mooney1_questions","survey-likert","232","1232986","0.0-6.0-2.32","3506129","coMJ","norming","","","{""curiosity"":5,""confidence"":2}","[0,1]","../img/tt/1002tt.jpg","",""
"3766.130000000121","","","recognition","survey-text","233","1236753","0.0-6.0-3.32","3506129","coMJ","norming","","","{""guess"":""olifant""}","","../img/tt/1002tt.jpg","",""
"null","../img/gs/1002gs.jpg","null","reveal","image-keyboard-response","234","1238755","0.0-6.0-4.32","3506129","coMJ","norming","","","","","","",""
"null","../img/tt/1002tt.jpg","null","mooney2","image-keyboard-response","235","1240766","0.0-6.0-5.32","3506129","coMJ","norming","","","","","","",""
"1545.4150000000373","","","post_reveal_questions","survey-likert","236","1242313","0.0-6.0-6.32","3506129","coMJ","norming","","","{""aha"":3}","[0]","../img/tt/1002tt.jpg","",""
"null","<div style=""font-size:60px;""> </div>","null","fixation","html-keyboard-response","237","1242515","0.0-6.0-0.33","3506129","coMJ","norming","","","","","","",""
"null","../img/tt/406tt.jpg","null","mooney1","image-keyboard-response","238","1245523","0.0-6.0-1.33","3506129","coMJ","norming","","","","","","",""
"6612.255000000121","","","post_mooney1_questions","survey-likert","239","1252138","0.0-6.0-2.33","3506129","coMJ","norming","","","{""curiosity"":6,""confidence"":1}","[0,1]","../img/tt/406tt.jpg","",""
"5918.180000000168","","","recognition","survey-text","240","1258057","0.0-6.0-3.33","3506129","coMJ","norming","","","{""guess"":""vleermuis""}","","../img/tt/406tt.jpg","",""
"null","../img/gs/406gs.jpg","null","reveal","image-keyboard-response","241","1260059","0.0-6.0-4.33","3506129","coMJ","norming","","","","","","",""
"null","../img/tt/406tt.jpg","null","mooney2","image-keyboard-response","242","1262061","0.0-6.0-5.33","3506129","coMJ","norming","","","","","","",""
"5425.919999999693","","","post_reveal_questions","survey-likert","243","1267489","0.0-6.0-6.33","3506129","coMJ","norming","","","{""aha"":5}","[0]","../img/tt/406tt.jpg","",""
"null","<div style=""font-size:60px;""> </div>","null","fixation","html-keyboard-response","244","1267694","0.0-6.0-0.34","3506129","coMJ","norming","","","","","","",""
"null","../img/tt/1173tt.jpg","null","mooney1","image-keyboard-response","245","1270702","0.0-6.0-1.34","3506129","coMJ","norming","","","","","","",""
"9360.589999999618","","","post_mooney1_questions","survey-likert","246","1280065","0.0-6.0-2.34","3506129","coMJ","norming","","","{""curiosity"":4,""confidence"":3}","[0,1]","../img/tt/1173tt.jpg","",""
"8990.020000000251","","","recognition","survey-text","247","1289057","0.0-6.0-3.34","3506129","coMJ","norming","","","{""guess"":""voetballers""}","","../img/tt/1173tt.jpg","",""
"null","../img/gs/1173gs.jpg","null","reveal","image-keyboard-response","248","1291059","0.0-6.0-4.34","3506129","coMJ","norming","","","","","","",""
"null","../img/tt/1173tt.jpg","null","mooney2","image-keyboard-response","249","1293073","0.0-6.0-5.34","3506129","coMJ","norming","","","","","","",""
"3081.9599999999627","","","post_reveal_questions","survey-likert","250","1296158","0.0-6.0-6.34","3506129","coMJ","norming","","","{""aha"":3}","[0]","../img/tt/1173tt.jpg","",""
"null","<div style=""font-size:60px;""> </div>","null","fixation","html-keyboard-response","251","1296364","0.0-6.0-0.35","3506129","coMJ","norming","","","","","","",""
"null","../img/tt/580tt.jpg","null","mooney1","image-keyboard-response","252","1299374","0.0-6.0-1.35","3506129","coMJ","norming","","","","","","",""
"3812.9199999999255","","","post_mooney1_questions","survey-likert","253","1303190","0.0-6.0-2.35","3506129","coMJ","norming","","","{""curiosity"":6,""confidence"":0}","[0,1]","../img/tt/580tt.jpg","",""
"870.2150000000838","","","recognition","survey-text","254","1304062","0.0-6.0-3.35","3506129","coMJ","norming","","","{""guess"":""""}","","../img/tt/580tt.jpg","",""
"null","../img/gs/580gs.jpg","null","reveal","image-keyboard-response","255","1306072","0.0-6.0-4.35","3506129","coMJ","norming","","","","","","",""
"null","../img/tt/580tt.jpg","null","mooney2","image-keyboard-response","256","1308074","0.0-6.0-5.35","3506129","coMJ","norming","","","","","","",""
"3649.4850000003353","","","post_reveal_questions","survey-likert","257","1311726","0.0-6.0-6.35","3506129","coMJ","norming","","","{""aha"":4}","[0]","../img/tt/580tt.jpg","",""
"null","<div style=""font-size:60px;""> </div>","null","fixation","html-keyboard-response","258","1311928","0.0-6.0-0.36","3506129","coMJ","norming","","","","","","",""
"null","../img/tt/1236tt.jpg","null","mooney1","image-keyboard-response","259","1314932","0.0-6.0-1.36","3506129","coMJ","norming","","","","","","",""
"5287.629999999655","","","post_mooney1_questions","survey-likert","260","1320222","0.0-6.0-2.36","3506129","coMJ","norming","","","{""curiosity"":5,""confidence"":1}","[0,1]","../img/tt/1236tt.jpg","",""
"5414.010000000009","","","recognition","survey-text","261","1325638","0.0-6.0-3.36","3506129","coMJ","norming","","","{""guess"":""zwemmer""}","","../img/tt/1236tt.jpg","",""
"null","../img/gs/1236gs.jpg","null","reveal","image-keyboard-response","262","1327645","0.0-6.0-4.36","3506129","coMJ","norming","","","","","","",""
"null","../img/tt/1236tt.jpg","null","mooney2","image-keyboard-response","263","1329647","0.0-6.0-5.36","3506129","coMJ","norming","","","","","","",""
"5539.994999999646","","","post_reveal_questions","survey-likert","264","1335190","0.0-6.0-6.36","3506129","coMJ","norming","","","{""aha"":6}","[0]","../img/tt/1236tt.jpg","",""
"null","<div style=""font-size:60px;""> </div>","null","fixation","html-keyboard-response","265","1335399","0.0-6.0-0.37","3506129","coMJ","norming","","","","","","",""
"null","../img/tt/1101tt.jpg","null","mooney1","image-keyboard-response","266","1338403","0.0-6.0-1.37","3506129","coMJ","norming","","","","","","",""
"5698.219999999739","","","post_mooney1_questions","survey-likert","267","1344102","0.0-6.0-2.37","3506129","coMJ","norming","","","{""curiosity"":4,""confidence"":4}","[0,1]","../img/tt/1101tt.jpg","",""
"4342.10999999987","","","recognition","survey-text","268","1348446","0.0-6.0-3.37","3506129","coMJ","norming","","","{""guess"":""tenisser""}","","../img/tt/1101tt.jpg","",""
"null","../img/gs/1101gs.jpg","null","reveal","image-keyboard-response","269","1350452","0.0-6.0-4.37","3506129","coMJ","norming","","","","","","",""
"null","../img/tt/1101tt.jpg","null","mooney2","image-keyboard-response","270","1352453","0.0-6.0-5.37","3506129","coMJ","norming","","","","","","",""
"1808.0449999996927","","","post_reveal_questions","survey-likert","271","1354261","0.0-6.0-6.37","3506129","coMJ","norming","","","{""aha"":5}","[0]","../img/tt/1101tt.jpg","",""
"null","<div style=""font-size:60px;""> </div>","null","fixation","html-keyboard-response","272","1354462","0.0-6.0-0.38","3506129","coMJ","norming","","","","","","",""
"null","../img/tt/105tt.jpg","null","mooney1","image-keyboard-response","273","1357473","0.0-6.0-1.38","3506129","coMJ","norming","","","","","","",""
"3240.130000000121","","","post_mooney1_questions","survey-likert","274","1360718","0.0-6.0-2.38","3506129","coMJ","norming","","","{""curiosity"":6,""confidence"":0}","[0,1]","../img/tt/105tt.jpg","",""
"854.1450000002515","","","recognition","survey-text","275","1361573","0.0-6.0-3.38","3506129","coMJ","norming","","","{""guess"":""""}","","../img/tt/105tt.jpg","",""
"null","../img/gs/105gs.jpg","null","reveal","image-keyboard-response","276","1363582","0.0-6.0-4.38","3506129","coMJ","norming","","","","","","",""
"null","../img/tt/105tt.jpg","null","mooney2","image-keyboard-response","277","1365592","0.0-6.0-5.38","3506129","coMJ","norming","","","","","","",""
"3363.1049999999814","","","post_reveal_questions","survey-likert","278","1368957","0.0-6.0-6.38","3506129","coMJ","norming","","","{""aha"":0}","[0]","../img/tt/105tt.jpg","",""
"null","<div style=""font-size:60px;""> </div>","null","fixation","html-keyboard-response","279","1369158","0.0-6.0-0.39","3506129","coMJ","norming","","","","","","",""
"null","../img/tt/184tt.jpg","null","mooney1","image-keyboard-response","280","1372163","0.0-6.0-1.39","3506129","coMJ","norming","","","","","","",""
"4839.6699999999255","","","post_mooney1_questions","survey-likert","281","1377006","0.0-6.0-2.39","3506129","coMJ","norming","","","{""curiosity"":5,""confidence"":2}","[0,1]","../img/tt/184tt.jpg","",""
"3166.0100000000093","","","recognition","survey-text","282","1380173","0.0-6.0-3.39","3506129","coMJ","norming","","","{""guess"":""mol""}","","../img/tt/184tt.jpg","",""
"null","../img/gs/184gs.jpg","null","reveal","image-keyboard-response","283","1382175","0.0-6.0-4.39","3506129","coMJ","norming","","","","","","",""
"null","../img/tt/184tt.jpg","null","mooney2","image-keyboard-response","284","1384181","0.0-6.0-5.39","3506129","coMJ","norming","","","","","","",""
"3566.04000000027","","","post_reveal_questions","survey-likert","285","1387749","0.0-6.0-6.39","3506129","coMJ","norming","","","{""aha"":2}","[0]","../img/tt/184tt.jpg","",""
"null","<div style=""font-size:60px;""> </div>","null","fixation","html-keyboard-response","286","1387957","0.0-6.0-0.40","3506129","coMJ","norming","","","","","","",""
"null","../img/tt/080tt.jpg","null","mooney1","image-keyboard-response","287","1390964","0.0-6.0-1.40","3506129","coMJ","norming","","","","","","",""
"7702.795000000158","","","post_mooney1_questions","survey-likert","288","1398669","0.0-6.0-2.40","3506129","coMJ","norming","","","{""curiosity"":5,""confidence"":2}","[0,1]","../img/tt/080tt.jpg","",""
"4638.289999999804","","","recognition","survey-text","289","1403309","0.0-6.0-3.40","3506129","coMJ","norming","","","{""guess"":""paddestoel""}","","../img/tt/080tt.jpg","",""
"null","../img/gs/080gs.jpg","null","reveal","image-keyboard-response","290","1405315","0.0-6.0-4.40","3506129","coMJ","norming","","","","","","",""
"null","../img/tt/080tt.jpg","null","mooney2","image-keyboard-response","291","1407318","0.0-6.0-5.40","3506129","coMJ","norming","","","","","","",""
"1709.2099999999627","","","post_reveal_questions","survey-likert","292","1409029","0.0-6.0-6.40","3506129","coMJ","norming","","","{""aha"":6}","[0]","../img/tt/080tt.jpg","",""
"null","<div style=""font-size:60px;""> </div>","null","fixation","html-keyboard-response","293","1409231","0.0-6.0-0.41","3506129","coMJ","norming","","","","","","",""
"null","../img/tt/076tt.jpg","null","mooney1","image-keyboard-response","294","1412240","0.0-6.0-1.41","3506129","coMJ","norming","","","","","","",""
"4298.445000000065","","","post_mooney1_questions","survey-likert","295","1416535","0.0-6.0-2.41","3506129","coMJ","norming","","","{""curiosity"":4,""confidence"":3}","[0,1]","../img/tt/076tt.jpg","",""
"4437.999999999767","","","recognition","survey-text","296","1420975","0.0-6.0-3.41","3506129","coMJ","norming","","","{""guess"":""rolschaats""}","","../img/tt/076tt.jpg","",""
"null","../img/gs/076gs.jpg","null","reveal","image-keyboard-response","297","1422979","0.0-6.0-4.41","3506129","coMJ","norming","","","","","","",""
"null","../img/tt/076tt.jpg","null","mooney2","image-keyboard-response","298","1424987","0.0-6.0-5.41","3506129","coMJ","norming","","","","","","",""
"2905.9850000003353","","","post_reveal_questions","survey-likert","299","1427895","0.0-6.0-6.41","3506129","coMJ","norming","","","{""aha"":3}","[0]","../img/tt/076tt.jpg","",""
"null","<div style=""font-size:60px;""> </div>","null","fixation","html-keyboard-response","300","1428096","0.0-6.0-0.42","3506129","coMJ","norming","","","","","","",""
"null","../img/tt/1123tt.jpg","null","mooney1","image-keyboard-response","301","1431106","0.0-6.0-1.42","3506129","coMJ","norming","","","","","","",""
"6170.745000000345","","","post_mooney1_questions","survey-likert","302","1437279","0.0-6.0-2.42","3506129","coMJ","norming","","","{""curiosity"":3,""confidence"":5}","[0,1]","../img/tt/1123tt.jpg","",""
"10190.01500000013","","","recognition","survey-text","303","1447471","0.0-6.0-3.42","3506129","coMJ","norming","","","{""guess"":""volleybalspeler""}","","../img/tt/1123tt.jpg","",""
"null","../img/gs/1123gs.jpg","null","reveal","image-keyboard-response","304","1449479","0.0-6.0-4.42","3506129","coMJ","norming","","","","","","",""
"null","../img/tt/1123tt.jpg","null","mooney2","image-keyboard-response","305","1451481","0.0-6.0-5.42","3506129","coMJ","norming","","","","","","",""
"2857.034999999916","","","post_reveal_questions","survey-likert","306","1454343","0.0-6.0-6.42","3506129","coMJ","norming","","","{""aha"":3}","[0]","../img/tt/1123tt.jpg","",""
"null","<div style=""font-size:60px;""> </div>","null","fixation","html-keyboard-response","307","1454545","0.0-6.0-0.43","3506129","coMJ","norming","","","","","","",""
"null","../img/tt/1063tt.jpg","null","mooney1","image-keyboard-response","308","1457556","0.0-6.0-1.43","3506129","coMJ","norming","","","","","","",""
"4031.994999999646","","","post_mooney1_questions","survey-likert","309","1461591","0.0-6.0-2.43","3506129","coMJ","norming","","","{""curiosity"":4,""confidence"":4}","[0,1]","../img/tt/1063tt.jpg","",""
"2966.065000000177","","","recognition","survey-text","310","1464559","0.0-6.0-3.43","3506129","coMJ","norming","","","{""guess"":""paard""}","","../img/tt/1063tt.jpg","",""
"null","../img/gs/1063gs.jpg","null","reveal","image-keyboard-response","311","1466566","0.0-6.0-4.43","3506129","coMJ","norming","","","","","","",""
"null","../img/tt/1063tt.jpg","null","mooney2","image-keyboard-response","312","1468568","0.0-6.0-5.43","3506129","coMJ","norming","","","","","","",""
"1868.5500000000466","","","post_reveal_questions","survey-likert","313","1470439","0.0-6.0-6.43","3506129","coMJ","norming","","","{""aha"":6}","[0]","../img/tt/1063tt.jpg","",""
"null","<div style=""font-size:60px;""> </div>","null","fixation","html-keyboard-response","314","1470640","0.0-6.0-0.44","3506129","coMJ","norming","","","","","","",""
"null","../img/tt/1156tt.jpg","null","mooney1","image-keyboard-response","315","1473643","0.0-6.0-1.44","3506129","coMJ","norming","","","","","","",""
"3680.075000000419","","","post_mooney1_questions","survey-likert","316","1477332","0.0-6.0-2.44","3506129","coMJ","norming","","","{""curiosity"":6,""confidence"":0}","[0,1]","../img/tt/1156tt.jpg","",""
"789.9699999997392","","","recognition","survey-text","317","1478124","0.0-6.0-3.44","3506129","coMJ","norming","","","{""guess"":""""}","","../img/tt/1156tt.jpg","",""
"null","../img/gs/1156gs.jpg","null","reveal","image-keyboard-response","318","1480132","0.0-6.0-4.44","3506129","coMJ","norming","","","","","","",""
"null","../img/tt/1156tt.jpg","null","mooney2","image-keyboard-response","319","1482135","0.0-6.0-5.44","3506129","coMJ","norming","","","","","","",""
"1674.5650000004098","","","post_reveal_questions","survey-likert","320","1483812","0.0-6.0-6.44","3506129","coMJ","norming","","","{""aha"":6}","[0]","../img/tt/1156tt.jpg","",""
"null","<div style=""font-size:60px;""> </div>","null","fixation","html-keyboard-response","321","1484013","0.0-6.0-0.45","3506129","coMJ","norming","","","","","","",""
"null","../img/tt/1043tt.jpg","null","mooney1","image-keyboard-response","322","1487018","0.0-6.0-1.45","3506129","coMJ","norming","","","","","","",""
"4574.844999999972","","","post_mooney1_questions","survey-likert","323","1491596","0.0-6.0-2.45","3506129","coMJ","norming","","","{""curiosity"":5,""confidence"":1}","[0,1]","../img/tt/1043tt.jpg","",""
"3501.929999999935","","","recognition","survey-text","324","1495100","0.0-6.0-3.45","3506129","coMJ","norming","","","{""guess"":""vis""}","","../img/tt/1043tt.jpg","",""
"null","../img/gs/1043gs.jpg","null","reveal","image-keyboard-response","325","1497102","0.0-6.0-4.45","3506129","coMJ","norming","","","","","","",""
"null","../img/tt/1043tt.jpg","null","mooney2","image-keyboard-response","326","1499105","0.0-6.0-5.45","3506129","coMJ","norming","","","","","","",""
"1705.9350000000559","","","post_reveal_questions","survey-likert","327","1500812","0.0-6.0-6.45","3506129","coMJ","norming","","","{""aha"":1}","[0]","../img/tt/1043tt.jpg","",""
"null","<div style=""font-size:60px;""> </div>","null","fixation","html-keyboard-response","328","1501014","0.0-6.0-0.46","3506129","coMJ","norming","","","","","","",""
"null","../img/tt/1128tt.jpg","null","mooney1","image-keyboard-response","329","1504022","0.0-6.0-1.46","3506129","coMJ","norming","","","","","","",""
"8698.76500000013","","","post_mooney1_questions","survey-likert","330","1512724","0.0-6.0-2.46","3506129","coMJ","norming","","","{""curiosity"":4,""confidence"":3}","[0,1]","../img/tt/1128tt.jpg","",""
"12205.785000000149","","","recognition","survey-text","331","1524932","0.0-6.0-3.46","3506129","coMJ","norming","","","{""guess"":""vrouw in lang kleed""}","","../img/tt/1128tt.jpg","",""
"null","../img/gs/1128gs.jpg","null","reveal","image-keyboard-response","332","1526938","0.0-6.0-4.46","3506129","coMJ","norming","","","","","","",""
"null","../img/tt/1128tt.jpg","null","mooney2","image-keyboard-response","333","1528942","0.0-6.0-5.46","3506129","coMJ","norming","","","","","","",""
"2251.749999999767","","","post_reveal_questions","survey-likert","334","1531196","0.0-6.0-6.46","3506129","coMJ","norming","","","{""aha"":6}","[0]","../img/tt/1128tt.jpg","",""
"null","<div style=""font-size:60px;""> </div>","null","fixation","html-keyboard-response","335","1531404","0.0-6.0-0.47","3506129","coMJ","norming","","","","","","",""
"null","../img/tt/163tt.jpg","null","mooney1","image-keyboard-response","336","1534408","0.0-6.0-1.47","3506129","coMJ","norming","","","","","","",""
"13939.090000000317","","","post_mooney1_questions","survey-likert","337","1548350","0.0-6.0-2.47","3506129","coMJ","norming","","","{""curiosity"":5,""confidence"":2}","[0,1]","../img/tt/163tt.jpg","",""
"6837.25","","","recognition","survey-text","338","1555190","0.0-6.0-3.47","3506129","coMJ","norming","","","{""guess"":""keukenmateriaal""}","","../img/tt/163tt.jpg","",""
"null","../img/gs/163gs.jpg","null","reveal","image-keyboard-response","339","1557194","0.0-6.0-4.47","3506129","coMJ","norming","","","","","","",""
"null","../img/tt/163tt.jpg","null","mooney2","image-keyboard-response","340","1559196","0.0-6.0-5.47","3506129","coMJ","norming","","","","","","",""
"2760.8599999998696","","","post_reveal_questions","survey-likert","341","1561958","0.0-6.0-6.47","3506129","coMJ","norming","","","{""aha"":6}","[0]","../img/tt/163tt.jpg","",""
"null","<div style=""font-size:60px;""> </div>","null","fixation","html-keyboard-response","342","1562164","0.0-6.0-0.48","3506129","coMJ","norming","","","","","","",""
"null","../img/tt/1126tt.jpg","null","mooney1","image-keyboard-response","343","1565172","0.0-6.0-1.48","3506129","coMJ","norming","","","","","","",""
"6983.264999999898","","","post_mooney1_questions","survey-likert","344","1572158","0.0-6.0-2.48","3506129","coMJ","norming","","","{""curiosity"":5,""confidence"":3}","[0,1]","../img/tt/1126tt.jpg","",""
"2934.0850000004284","","","recognition","survey-text","345","1575094","0.0-6.0-3.48","3506129","coMJ","norming","","","{""guess"":""berg""}","","../img/tt/1126tt.jpg","",""
"null","../img/gs/1126gs.jpg","null","reveal","image-keyboard-response","346","1577100","0.0-6.0-4.48","3506129","coMJ","norming","","","","","","",""
"null","../img/tt/1126tt.jpg","null","mooney2","image-keyboard-response","347","1579101","0.0-6.0-5.48","3506129","coMJ","norming","","","","","","",""
"1606.5699999998324","","","post_reveal_questions","survey-likert","348","1580710","0.0-6.0-6.48","3506129","coMJ","norming","","","{""aha"":6}","[0]","../img/tt/1126tt.jpg","",""
"null","<div style=""font-size:60px;""> </div>","null","fixation","html-keyboard-response","349","1580919","0.0-6.0-0.49","3506129","coMJ","norming","","","","","","",""
"null","../img/tt/084tt.jpg","null","mooney1","image-keyboard-response","350","1583930","0.0-6.0-1.49","3506129","coMJ","norming","","","","","","",""
"5321.189999999944","","","post_mooney1_questions","survey-likert","351","1589254","0.0-6.0-2.49","3506129","coMJ","norming","","","{""curiosity"":2,""confidence"":6}","[0,1]","../img/tt/084tt.jpg","",""
"2878.265000000363","","","recognition","survey-text","352","1592134","0.0-6.0-3.49","3506129","coMJ","norming","","","{""guess"":""eend""}","","../img/tt/084tt.jpg","",""
"null","../img/gs/084gs.jpg","null","reveal","image-keyboard-response","353","1594135","0.0-6.0-4.49","3506129","coMJ","norming","","","","","","",""
"null","../img/tt/084tt.jpg","null","mooney2","image-keyboard-response","354","1596140","0.0-6.0-5.49","3506129","coMJ","norming","","","","","","",""
"1280.2299999999814","","","post_reveal_questions","survey-likert","355","1597422","0.0-6.0-6.49","3506129","coMJ","norming","","","{""aha"":2}","[0]","../img/tt/084tt.jpg","",""
"null","<div style=""font-size:60px;""> </div>","null","fixation","html-keyboard-response","356","1597623","0.0-6.0-0.50","3506129","coMJ","norming","","","","","","",""
"null","../img/tt/300tt.jpg","null","mooney1","image-keyboard-response","357","1600636","0.0-6.0-1.50","3506129","coMJ","norming","","","","","","",""
"3463.600000000093","","","post_mooney1_questions","survey-likert","358","1604102","0.0-6.0-2.50","3506129","coMJ","norming","","","{""curiosity"":5,""confidence"":2}","[0,1]","../img/tt/300tt.jpg","",""
"4358.075000000186","","","recognition","survey-text","359","1608470","0.0-6.0-3.50","3506129","coMJ","norming","","","{""guess"":""sprinkhaan""}","","../img/tt/300tt.jpg","",""
"null","../img/gs/300gs.jpg","null","reveal","image-keyboard-response","360","1610473","0.0-6.0-4.50","3506129","coMJ","norming","","","","","","",""
"null","../img/tt/300tt.jpg","null","mooney2","image-keyboard-response","361","1612482","0.0-6.0-5.50","3506129","coMJ","norming","","","","","","",""
"1978.3850000002421","","","post_reveal_questions","survey-likert","362","1614462","0.0-6.0-6.50","3506129","coMJ","norming","","","{""aha"":5}","[0]","../img/tt/300tt.jpg","",""
"null","<div style=""font-size:60px;""> </div>","null","fixation","html-keyboard-response","363","1614663","0.0-6.0-0.51","3506129","coMJ","norming","","","","","","",""
"null","../img/tt/194tt.jpg","null","mooney1","image-keyboard-response","364","1617670","0.0-6.0-1.51","3506129","coMJ","norming","","","","","","",""
"15468.684999999823","","","post_mooney1_questions","survey-likert","365","1633142","0.0-6.0-2.51","3506129","coMJ","norming","","","{""curiosity"":4,""confidence"":5}","[0,1]","../img/tt/194tt.jpg","",""
"18221.919999999925","","","recognition","survey-text","366","1651366","0.0-6.0-3.51","3506129","coMJ","norming","","","{""guess"":""harp speelster""}","","../img/tt/194tt.jpg","",""
"null","../img/gs/194gs.jpg","null","reveal","image-keyboard-response","367","1653372","0.0-6.0-4.51","3506129","coMJ","norming","","","","","","",""
"null","../img/tt/194tt.jpg","null","mooney2","image-keyboard-response","368","1655374","0.0-6.0-5.51","3506129","coMJ","norming","","","","","","",""
"4421.299999999814","","","post_reveal_questions","survey-likert","369","1659798","0.0-6.0-6.51","3506129","coMJ","norming","","","{""aha"":3}","[0]","../img/tt/194tt.jpg","",""
"null","<div style=""font-size:60px;""> </div>","null","fixation","html-keyboard-response","370","1660008","0.0-6.0-0.52","3506129","coMJ","norming","","","","","","",""
"null","../img/tt/096tt.jpg","null","mooney1","image-keyboard-response","371","1663011","0.0-6.0-1.52","3506129","coMJ","norming","","","","","","",""
"4087.5099999997765","","","post_mooney1_questions","survey-likert","372","1667106","0.0-6.0-2.52","3506129","coMJ","norming","","","{""curiosity"":1,""confidence"":6}","[0,1]","../img/tt/096tt.jpg","",""
"3182.0200000000186","","","recognition","survey-text","373","1670290","0.0-6.0-3.52","3506129","coMJ","norming","","","{""guess"":""piano""}","","../img/tt/096tt.jpg","",""
"null","../img/gs/096gs.jpg","null","reveal","image-keyboard-response","374","1672295","0.0-6.0-4.52","3506129","coMJ","norming","","","","","","",""
"null","../img/tt/096tt.jpg","null","mooney2","image-keyboard-response","375","1674298","0.0-6.0-5.52","3506129","coMJ","norming","","","","","","",""
"1781.5900000000838","","","post_reveal_questions","survey-likert","376","1676082","0.0-6.0-6.52","3506129","coMJ","norming","","","{""aha"":1}","[0]","../img/tt/096tt.jpg","",""
"null","<div style=""font-size:60px;""> </div>","null","fixation","html-keyboard-response","377","1676292","0.0-6.0-0.53","3506129","coMJ","norming","","","","","","",""
"null","../img/tt/064tt.jpg","null","mooney1","image-keyboard-response","378","1679295","0.0-6.0-1.53","3506129","coMJ","norming","","","","","","",""
"5095.879999999888","","","post_mooney1_questions","survey-likert","379","1684394","0.0-6.0-2.53","3506129","coMJ","norming","","","{""curiosity"":3,""confidence"":5}","[0,1]","../img/tt/064tt.jpg","",""
"4934.369999999879","","","recognition","survey-text","380","1689330","0.0-6.0-3.53","3506129","coMJ","norming","","","{""guess"":""schildpad""}","","../img/tt/064tt.jpg","",""
"null","../img/gs/064gs.jpg","null","reveal","image-keyboard-response","381","1691332","0.0-6.0-4.53","3506129","coMJ","norming","","","","","","",""
"null","../img/tt/064tt.jpg","null","mooney2","image-keyboard-response","382","1693342","0.0-6.0-5.53","3506129","coMJ","norming","","","","","","",""
"2281.2649999998976","","","post_reveal_questions","survey-likert","383","1695626","0.0-6.0-6.53","3506129","coMJ","norming","","","{""aha"":3}","[0]","../img/tt/064tt.jpg","",""
"null","<div style=""font-size:60px;""> </div>","null","fixation","html-keyboard-response","384","1695830","0.0-6.0-0.54","3506129","coMJ","norming","","","","","","",""
"null","../img/tt/1309tt.jpg","null","mooney1","image-keyboard-response","385","1698837","0.0-6.0-1.54","3506129","coMJ","norming","","","","","","",""
"5321.940000000177","","","post_mooney1_questions","survey-likert","386","1704162","0.0-6.0-2.54","3506129","coMJ","norming","","","{""curiosity"":2,""confidence"":5}","[0,1]","../img/tt/1309tt.jpg","",""
"4318.2050000000745","","","recognition","survey-text","387","1708482","0.0-6.0-3.54","3506129","coMJ","norming","","","{""guess"":""auto in bos""}","","../img/tt/1309tt.jpg","",""
"null","../img/gs/1309gs.jpg","null","reveal","image-keyboard-response","388","1710493","0.0-6.0-4.54","3506129","coMJ","norming","","","","","","",""
"null","../img/tt/1309tt.jpg","null","mooney2","image-keyboard-response","389","1712494","0.0-6.0-5.54","3506129","coMJ","norming","","","","","","",""
"2034.219999999972","","","post_reveal_questions","survey-likert","390","1714530","0.0-6.0-6.54","3506129","coMJ","norming","","","{""aha"":1}","[0]","../img/tt/1309tt.jpg","",""
"null","<div style=""font-size:60px;""> </div>","null","fixation","html-keyboard-response","391","1714733","0.0-6.0-0.55","3506129","coMJ","norming","","","","","","",""
"null","../img/tt/497tt.jpg","null","mooney1","image-keyboard-response","392","1717745","0.0-6.0-1.55","3506129","coMJ","norming","","","","","","",""
"3718.5049999998882","","","post_mooney1_questions","survey-likert","393","1721466","0.0-6.0-2.55","3506129","coMJ","norming","","","{""curiosity"":5,""confidence"":4}","[0,1]","../img/tt/497tt.jpg","",""
"4077.804999999935","","","recognition","survey-text","394","1725546","0.0-6.0-3.55","3506129","coMJ","norming","","","{""guess"":""kompas""}","","../img/tt/497tt.jpg","",""
"null","../img/gs/497gs.jpg","null","reveal","image-keyboard-response","395","1727554","0.0-6.0-4.55","3506129","coMJ","norming","","","","","","",""
"null","../img/tt/497tt.jpg","null","mooney2","image-keyboard-response","396","1729556","0.0-6.0-5.55","3506129","coMJ","norming","","","","","","",""
"2007.1049999999814","","","post_reveal_questions","survey-likert","397","1731566","0.0-6.0-6.55","3506129","coMJ","norming","","","{""aha"":4}","[0]","../img/tt/497tt.jpg","",""
"null","<div style=""font-size:60px;""> </div>","null","fixation","html-keyboard-response","398","1731768","0.0-6.0-0.56","3506129","coMJ","norming","","","","","","",""
"null","../img/tt/098tt.jpg","null","mooney1","image-keyboard-response","399","1734776","0.0-6.0-1.56","3506129","coMJ","norming","","","","","","",""
"3330.660000000149","","","post_mooney1_questions","survey-likert","400","1738110","0.0-6.0-2.56","3506129","coMJ","norming","","","{""curiosity"":6,""confidence"":0}","[0,1]","../img/tt/098tt.jpg","",""
"741.9599999997299","","","recognition","survey-text","401","1738853","0.0-6.0-3.56","3506129","coMJ","norming","","","{""guess"":""""}","","../img/tt/098tt.jpg","",""
"null","../img/gs/098gs.jpg","null","reveal","image-keyboard-response","402","1740858","0.0-6.0-4.56","3506129","coMJ","norming","","","","","","",""
"null","../img/tt/098tt.jpg","null","mooney2","image-keyboard-response","403","1742867","0.0-6.0-5.56","3506129","coMJ","norming","","","","","","",""
"1863.6799999999348","","","post_reveal_questions","survey-likert","404","1744734","0.0-6.0-6.56","3506129","coMJ","norming","","","{""aha"":5}","[0]","../img/tt/098tt.jpg","",""
"null","<div style=""font-size:60px;""> </div>","null","fixation","html-keyboard-response","405","1744942","0.0-6.0-0.57","3506129","coMJ","norming","","","","","","",""
"null","../img/tt/1069tt.jpg","null","mooney1","image-keyboard-response","406","1747953","0.0-6.0-1.57","3506129","coMJ","norming","","","","","","",""
"7049.844999999972","","","post_mooney1_questions","survey-likert","407","1755006","0.0-6.0-2.57","3506129","coMJ","norming","","","{""curiosity"":5,""confidence"":3}","[0,1]","../img/tt/1069tt.jpg","",""
"6054.1049999997485","","","recognition","survey-text","408","1761061","0.0-6.0-3.57","3506129","coMJ","norming","","","{""guess"":""kamerplanten""}","","../img/tt/1069tt.jpg","",""
"null","../img/gs/1069gs.jpg","null","reveal","image-keyboard-response","409","1763071","0.0-6.0-4.57","3506129","coMJ","norming","","","","","","",""
"null","../img/tt/1069tt.jpg","null","mooney2","image-keyboard-response","410","1765075","0.0-6.0-5.57","3506129","coMJ","norming","","","","","","",""
"1648.7050000000745","","","post_reveal_questions","survey-likert","411","1766726","0.0-6.0-6.57","3506129","coMJ","norming","","","{""aha"":5}","[0]","../img/tt/1069tt.jpg","",""
"null","<div style=""font-size:60px;""> </div>","null","fixation","html-keyboard-response","412","1766927","0.0-6.0-0.58","3506129","coMJ","norming","","","","","","",""
"null","../img/tt/222tt.jpg","null","mooney1","image-keyboard-response","413","1769937","0.0-6.0-1.58","3506129","coMJ","norming","","","","","","",""
"3841.815000000177","","","post_mooney1_questions","survey-likert","414","1773782","0.0-6.0-2.58","3506129","coMJ","norming","","","{""curiosity"":5,""confidence"":2}","[0,1]","../img/tt/222tt.jpg","",""
"2757.9850000003353","","","recognition","survey-text","415","1776541","0.0-6.0-3.58","3506129","coMJ","norming","","","{""guess"":""boot""}","","../img/tt/222tt.jpg","",""
"null","../img/gs/222gs.jpg","null","reveal","image-keyboard-response","416","1778551","0.0-6.0-4.58","3506129","coMJ","norming","","","","","","",""
"null","../img/tt/222tt.jpg","null","mooney2","image-keyboard-response","417","1780556","0.0-6.0-5.58","3506129","coMJ","norming","","","","","","",""
"1736.2350000003353","","","post_reveal_questions","survey-likert","418","1782294","0.0-6.0-6.58","3506129","coMJ","norming","","","{""aha"":3}","[0]","../img/tt/222tt.jpg","",""
"null","<div style=""font-size:60px;""> </div>","null","fixation","html-keyboard-response","419","1782502","0.0-6.0-0.59","3506129","coMJ","norming","","","","","","",""
"null","../img/tt/055tt.jpg","null","mooney1","image-keyboard-response","420","1785503","0.0-6.0-1.59","3506129","coMJ","norming","","","","","","",""
"3595.4550000000745","","","post_mooney1_questions","survey-likert","421","1789095","0.0-6.0-2.59","3506129","coMJ","norming","","","{""curiosity"":6,""confidence"":0}","[0,1]","../img/tt/055tt.jpg","",""
"4878.110000000102","","","recognition","survey-text","422","1793974","0.0-6.0-3.59","3506129","coMJ","norming","","","{""guess"":""""}","","../img/tt/055tt.jpg","",""
"null","../img/gs/055gs.jpg","null","reveal","image-keyboard-response","423","1795982","0.0-6.0-4.59","3506129","coMJ","norming","","","","","","",""
"null","../img/tt/055tt.jpg","null","mooney2","image-keyboard-response","424","1797990","0.0-6.0-5.59","3506129","coMJ","norming","","","","","","",""
"1437.8950000000186","","","post_reveal_questions","survey-likert","425","1799431","0.0-6.0-6.59","3506129","coMJ","norming","","","{""aha"":2}","[0]","../img/tt/055tt.jpg","",""
"null","<div style=""font-size:60px;""> </div>","null","fixation","html-keyboard-response","426","1799633","0.0-6.0-0.60","3506129","coMJ","norming","","","","","","",""
"null","../img/tt/189tt.jpg","null","mooney1","image-keyboard-response","427","1802635","0.0-6.0-1.60","3506129","coMJ","norming","","","","","","",""
"5280.720000000205","","","post_mooney1_questions","survey-likert","428","1807919","0.0-6.0-2.60","3506129","coMJ","norming","","","{""curiosity"":2,""confidence"":6}","[0,1]","../img/tt/189tt.jpg","",""
"5718.510000000009","","","recognition","survey-text","429","1813639","0.0-6.0-3.60","3506129","coMJ","norming","","","{""guess"":""persoon in hangmat""}","","../img/tt/189tt.jpg","",""
"null","../img/gs/189gs.jpg","null","reveal","image-keyboard-response","430","1815640","0.0-6.0-4.60","3506129","coMJ","norming","","","","","","",""
"null","../img/tt/189tt.jpg","null","mooney2","image-keyboard-response","431","1817643","0.0-6.0-5.60","3506129","coMJ","norming","","","","","","",""
"2097.2150000003166","","","post_reveal_questions","survey-likert","432","1819742","0.0-6.0-6.60","3506129","coMJ","norming","","","{""aha"":2}","[0]","../img/tt/189tt.jpg","",""
"null","<div style=""font-size:60px;""> </div>","null","fixation","html-keyboard-response","433","1819948","0.0-6.0-0.61","3506129","coMJ","norming","","","","","","",""
"null","../img/tt/032tt.jpg","null","mooney1","image-keyboard-response","434","1822955","0.0-6.0-1.61","3506129","coMJ","norming","","","","","","",""
"5519.479999999981","","","post_mooney1_questions","survey-likert","435","1828478","0.0-6.0-2.61","3506129","coMJ","norming","","","{""curiosity"":5,""confidence"":4}","[0,1]","../img/tt/032tt.jpg","",""
"4110.26500000013","","","recognition","survey-text","436","1832590","0.0-6.0-3.61","3506129","coMJ","norming","","","{""guess"":""cowboy""}","","../img/tt/032tt.jpg","",""
"null","../img/gs/032gs.jpg","null","reveal","image-keyboard-response","437","1834596","0.0-6.0-4.61","3506129","coMJ","norming","","","","","","",""
"null","../img/tt/032tt.jpg","null","mooney2","image-keyboard-response","438","1836600","0.0-6.0-5.61","3506129","coMJ","norming","","","","","","",""
"2340.160000000149","","","post_reveal_questions","survey-likert","439","1838943","0.0-6.0-6.61","3506129","coMJ","norming","","","{""aha"":5}","[0]","../img/tt/032tt.jpg","",""
"null","<div style=""font-size:60px;""> </div>","null","fixation","html-keyboard-response","440","1839150","0.0-6.0-0.62","3506129","coMJ","norming","","","","","","",""
"null","../img/tt/1097tt.jpg","null","mooney1","image-keyboard-response","441","1842158","0.0-6.0-1.62","3506129","coMJ","norming","","","","","","",""
"11005.399999999907","","","post_mooney1_questions","survey-likert","442","1853172","0.0-6.0-2.62","3506129","coMJ","norming","","","{""curiosity"":1,""confidence"":6}","[0,1]","../img/tt/1097tt.jpg","",""
"10974.119999999879","","","recognition","survey-text","443","1864148","0.0-6.0-3.62","3506129","coMJ","norming","","","{""guess"":""persoon op surfplank""}","","../img/tt/1097tt.jpg","",""
"null","../img/gs/1097gs.jpg","null","reveal","image-keyboard-response","444","1866154","0.0-6.0-4.62","3506129","coMJ","norming","","","","","","",""
"null","../img/tt/1097tt.jpg","null","mooney2","image-keyboard-response","445","1868156","0.0-6.0-5.62","3506129","coMJ","norming","","","","","","",""
"2188.4600000001956","","","post_reveal_questions","survey-likert","446","1870348","0.0-6.0-6.62","3506129","coMJ","norming","","","{""aha"":2}","[0]","../img/tt/1097tt.jpg","",""
"null","<div style=""font-size:60px;""> </div>","null","fixation","html-keyboard-response","447","1870553","0.0-6.0-0.63","3506129","coMJ","norming","","","","","","",""
"null","../img/tt/1227tt.jpg","null","mooney1","image-keyboard-response","448","1873555","0.0-6.0-1.63","3506129","coMJ","norming","","","","","","",""
"4965.58499999973","","","post_mooney1_questions","survey-likert","449","1878524","0.0-6.0-2.63","3506129","coMJ","norming","","","{""curiosity"":5,""confidence"":1}","[0,1]","../img/tt/1227tt.jpg","",""
"3125.8900000001304","","","recognition","survey-text","450","1881651","0.0-6.0-3.63","3506129","coMJ","norming","","","{""guess"":""weide""}","","../img/tt/1227tt.jpg","",""
"null","../img/gs/1227gs.jpg","null","reveal","image-keyboard-response","451","1883657","0.0-6.0-4.63","3506129","coMJ","norming","","","","","","",""
"null","../img/tt/1227tt.jpg","null","mooney2","image-keyboard-response","452","1885666","0.0-6.0-5.63","3506129","coMJ","norming","","","","","","",""
"1774.6700000001583","","","post_reveal_questions","survey-likert","453","1887444","0.0-6.0-6.63","3506129","coMJ","norming","","","{""aha"":1}","[0]","../img/tt/1227tt.jpg","",""
"null","<div style=""font-size:60px;""> </div>","null","fixation","html-keyboard-response","454","1887653","0.0-6.0-0.64","3506129","coMJ","norming","","","","","","",""
"null","../img/tt/1116tt.jpg","null","mooney1","image-keyboard-response","455","1890660","0.0-6.0-1.64","3506129","coMJ","norming","","","","","","",""
"6172.535000000149","","","post_mooney1_questions","survey-likert","456","1896836","0.0-6.0-2.64","3506129","coMJ","norming","","","{""curiosity"":5,""confidence"":2}","[0,1]","../img/tt/1116tt.jpg","",""
"3230.4850000001024","","","recognition","survey-text","457","1900068","0.0-6.0-3.64","3506129","coMJ","norming","","","{""guess"":""boot""}","","../img/tt/1116tt.jpg","",""
"null","../img/gs/1116gs.jpg","null","reveal","image-keyboard-response","458","1902075","0.0-6.0-4.64","3506129","coMJ","norming","","","","","","",""
"null","../img/tt/1116tt.jpg","null","mooney2","image-keyboard-response","459","1904076","0.0-6.0-5.64","3506129","coMJ","norming","","","","","","",""
"1461.0049999996554","","","post_reveal_questions","survey-likert","460","1905540","0.0-6.0-6.64","3506129","coMJ","norming","","","{""aha"":4}","[0]","../img/tt/1116tt.jpg","",""
"null","<div style=""font-size:60px;""> </div>","null","fixation","html-keyboard-response","461","1905741","0.0-6.0-0.65","3506129","coMJ","norming","","","","","","",""
"null","../img/tt/1130tt.jpg","null","mooney1","image-keyboard-response","462","1908748","0.0-6.0-1.65","3506129","coMJ","norming","","","","","","",""
"5132.90000000014","","","post_mooney1_questions","survey-likert","463","1913882","0.0-6.0-2.65","3506129","coMJ","norming","","","{""curiosity"":1,""confidence"":6}","[0,1]","../img/tt/1130tt.jpg","",""
"3429.9500000001863","","","recognition","survey-text","464","1917314","0.0-6.0-3.65","3506129","coMJ","norming","","","{""guess"":""fietser""}","","../img/tt/1130tt.jpg","",""
"null","../img/gs/1130gs.jpg","null","reveal","image-keyboard-response","465","1919321","0.0-6.0-4.65","3506129","coMJ","norming","","","","","","",""
"null","../img/tt/1130tt.jpg","null","mooney2","image-keyboard-response","466","1921324","0.0-6.0-5.65","3506129","coMJ","norming","","","","","","",""
"1578.9249999998137","","","post_reveal_questions","survey-likert","467","1922906","0.0-6.0-6.65","3506129","coMJ","norming","","","{""aha"":1}","[0]","../img/tt/1130tt.jpg","",""
"null","<div style=""font-size:60px;""> </div>","null","fixation","html-keyboard-response","468","1923109","0.0-6.0-0.66","3506129","coMJ","norming","","","","","","",""
"null","../img/tt/082tt.jpg","null","mooney1","image-keyboard-response","469","1926121","0.0-6.0-1.66","3506129","coMJ","norming","","","","","","",""
"4573.84999999986","","","post_mooney1_questions","survey-likert","470","1930698","0.0-6.0-2.66","3506129","coMJ","norming","","","{""curiosity"":1,""confidence"":6}","[0,1]","../img/tt/082tt.jpg","",""
"5630.140000000363","","","recognition","survey-text","471","1936330","0.0-6.0-3.66","3506129","coMJ","norming","","","{""guess"":""papegaai""}","","../img/tt/082tt.jpg","",""
"null","../img/gs/082gs.jpg","null","reveal","image-keyboard-response","472","1938333","0.0-6.0-4.66","3506129","coMJ","norming","","","","","","",""
"null","../img/tt/082tt.jpg","null","mooney2","image-keyboard-response","473","1940341","0.0-6.0-5.66","3506129","coMJ","norming","","","","","","",""
"5169.980000000214","","","post_reveal_questions","survey-likert","474","1945514","0.0-6.0-6.66","3506129","coMJ","norming","","","{""aha"":2}","[0]","../img/tt/082tt.jpg","",""
"null","<div style=""font-size:60px;""> </div>","null","fixation","html-keyboard-response","475","1945716","0.0-6.0-0.67","3506129","coMJ","norming","","","","","","",""
"null","../img/tt/108tt.jpg","null","mooney1","image-keyboard-response","476","1948721","0.0-6.0-1.67","3506129","coMJ","norming","","","","","","",""
"3974.2650000001304","","","post_mooney1_questions","survey-likert","477","1952698","0.0-6.0-2.67","3506129","coMJ","norming","","","{""curiosity"":5,""confidence"":3}","[0,1]","../img/tt/108tt.jpg","",""
"3749.7199999997392","","","recognition","survey-text","478","1956450","0.0-6.0-3.67","3506129","coMJ","norming","","","{""guess"":""wasbeer""}","","../img/tt/108tt.jpg","",""
"null","../img/gs/108gs.jpg","null","reveal","image-keyboard-response","479","1958454","0.0-6.0-4.67","3506129","coMJ","norming","","","","","","",""
"null","../img/tt/108tt.jpg","null","mooney2","image-keyboard-response","480","1960464","0.0-6.0-5.67","3506129","coMJ","norming","","","","","","",""
"1976.8749999997672","","","post_reveal_questions","survey-likert","481","1962442","0.0-6.0-6.67","3506129","coMJ","norming","","","{""aha"":3}","[0]","../img/tt/108tt.jpg","",""
"null","<div style=""font-size:60px;""> </div>","null","fixation","html-keyboard-response","482","1962651","0.0-6.0-0.68","3506129","coMJ","norming","","","","","","",""
"null","../img/tt/1033tt.jpg","null","mooney1","image-keyboard-response","483","1965654","0.0-6.0-1.68","3506129","coMJ","norming","","","","","","",""
"8255.434999999357","","","post_mooney1_questions","survey-likert","484","1973914","0.0-6.0-2.68","3506129","coMJ","norming","","","{""curiosity"":5,""confidence"":4}","[0,1]","../img/tt/1033tt.jpg","",""
"4701.874999999767","","","recognition","survey-text","485","1978618","0.0-6.0-3.68","3506129","coMJ","norming","","","{""guess"":""speer""}","","../img/tt/1033tt.jpg","",""
"null","../img/gs/1033gs.jpg","null","reveal","image-keyboard-response","486","1980626","0.0-6.0-4.68","3506129","coMJ","norming","","","","","","",""
"null","../img/tt/1033tt.jpg","null","mooney2","image-keyboard-response","487","1982636","0.0-6.0-5.68","3506129","coMJ","norming","","","","","","",""
"3139.170000000391","","","post_reveal_questions","survey-likert","488","1985778","0.0-6.0-6.68","3506129","coMJ","norming","","","{""aha"":6}","[0]","../img/tt/1033tt.jpg","",""
"null","<div style=""font-size:60px;""> </div>","null","fixation","html-keyboard-response","489","1985981","0.0-6.0-0.69","3506129","coMJ","norming","","","","","","",""
"null","../img/tt/549tt.jpg","null","mooney1","image-keyboard-response","490","1988988","0.0-6.0-1.69","3506129","coMJ","norming","","","","","","",""
"3058.7700000002515","","","post_mooney1_questions","survey-likert","491","1992050","0.0-6.0-2.69","3506129","coMJ","norming","","","{""curiosity"":6,""confidence"":0}","[0,1]","../img/tt/549tt.jpg","",""
"813.9899999999907","","","recognition","survey-text","492","1992866","0.0-6.0-3.69","3506129","coMJ","norming","","","{""guess"":""""}","","../img/tt/549tt.jpg","",""
"null","../img/gs/549gs.jpg","null","reveal","image-keyboard-response","493","1994876","0.0-6.0-4.69","3506129","coMJ","norming","","","","","","",""
"null","../img/tt/549tt.jpg","null","mooney2","image-keyboard-response","494","1996880","0.0-6.0-5.69","3506129","coMJ","norming","","","","","","",""
"1967.1149999997579","","","post_reveal_questions","survey-likert","495","1998851","0.0-6.0-6.69","3506129","coMJ","norming","","","{""aha"":2}","[0]","../img/tt/549tt.jpg","",""
"null","<div style=""font-size:60px;""> </div>","null","fixation","html-keyboard-response","496","1999061","0.0-6.0-0.70","3506129","coMJ","norming","","","","","","",""
"null","../img/tt/046tt.jpg","null","mooney1","image-keyboard-response","497","2002070","0.0-6.0-1.70","3506129","coMJ","norming","","","","","","",""
"5762.674999999814","","","post_mooney1_questions","survey-likert","498","2007835","0.0-6.0-2.70","3506129","coMJ","norming","","","{""curiosity"":5,""confidence"":1}","[0,1]","../img/tt/046tt.jpg","",""
"3253.659999999916","","","recognition","survey-text","499","2011090","0.0-6.0-3.70","3506129","coMJ","norming","","","{""guess"":""aap""}","","../img/tt/046tt.jpg","",""
"null","../img/gs/046gs.jpg","null","reveal","image-keyboard-response","500","2013094","0.0-6.0-4.70","3506129","coMJ","norming","","","","","","",""
"null","../img/tt/046tt.jpg","null","mooney2","image-keyboard-response","501","2015095","0.0-6.0-5.70","3506129","coMJ","norming","","","","","","",""
"1440.4200000001583","","","post_reveal_questions","survey-likert","502","2016538","0.0-6.0-6.70","3506129","coMJ","norming","","","{""aha"":5}","[0]","../img/tt/046tt.jpg","",""
"null","<div style=""font-size:60px;""> </div>","null","fixation","html-keyboard-response","503","2016745","0.0-6.0-0.71","3506129","coMJ","norming","","","","","","",""
"null","../img/tt/438tt.jpg","null","mooney1","image-keyboard-response","504","2019753","0.0-6.0-1.71","3506129","coMJ","norming","","","","","","",""
"4893.719999999972","","","post_mooney1_questions","survey-likert","505","2024651","0.0-6.0-2.71","3506129","coMJ","norming","","","{""curiosity"":4,""confidence"":4}","[0,1]","../img/tt/438tt.jpg","",""
"3205.695000000298","","","recognition","survey-text","506","2027858","0.0-6.0-3.71","3506129","coMJ","norming","","","{""guess"":""uil""}","","../img/tt/438tt.jpg","",""
"null","../img/gs/438gs.jpg","null","reveal","image-keyboard-response","507","2029862","0.0-6.0-4.71","3506129","coMJ","norming","","","","","","",""
"null","../img/tt/438tt.jpg","null","mooney2","image-keyboard-response","508","2031864","0.0-6.0-5.71","3506129","coMJ","norming","","","","","","",""
"1975.5800000000745","","","post_reveal_questions","survey-likert","509","2033846","0.0-6.0-6.71","3506129","coMJ","norming","","","{""aha"":5}","[0]","../img/tt/438tt.jpg","",""
"null","<div style=""font-size:60px;""> </div>","null","fixation","html-keyboard-response","510","2034048","0.0-6.0-0.72","3506129","coMJ","norming","","","","","","",""
"null","../img/tt/1254tt.jpg","null","mooney1","image-keyboard-response","511","2037058","0.0-6.0-1.72","3506129","coMJ","norming","","","","","","",""
"4152.4199999999255","","","post_mooney1_questions","survey-likert","512","2041214","0.0-6.0-2.72","3506129","coMJ","norming","","","{""curiosity"":5,""confidence"":6}","[0,1]","../img/tt/1254tt.jpg","",""
"5221.549999999581","","","recognition","survey-text","513","2046437","0.0-6.0-3.72","3506129","coMJ","norming","","","{""guess"":""konijn""}","","../img/tt/1254tt.jpg","",""
"null","../img/gs/1254gs.jpg","null","reveal","image-keyboard-response","514","2048442","0.0-6.0-4.72","3506129","coMJ","norming","","","","","","",""
"null","../img/tt/1254tt.jpg","null","mooney2","image-keyboard-response","515","2050444","0.0-6.0-5.72","3506129","coMJ","norming","","","","","","",""
"1856.4549999996088","","","post_reveal_questions","survey-likert","516","2052302","0.0-6.0-6.72","3506129","coMJ","norming","","","{""aha"":2}","[0]","../img/tt/1254tt.jpg","",""
"null","<div style=""font-size:60px;""> </div>","null","fixation","html-keyboard-response","517","2052513","0.0-6.0-0.73","3506129","coMJ","norming","","","","","","",""
"null","../img/tt/1234tt.jpg","null","mooney1","image-keyboard-response","518","2055522","0.0-6.0-1.73","3506129","coMJ","norming","","","","","","",""
"4464.924999999814","","","post_mooney1_questions","survey-likert","519","2059990","0.0-6.0-2.73","3506129","coMJ","norming","","","{""curiosity"":2,""confidence"":5}","[0,1]","../img/tt/1234tt.jpg","",""
"4461.644999999786","","","recognition","survey-text","520","2064453","0.0-6.0-3.73","3506129","coMJ","norming","","","{""guess"":""roeier""}","","../img/tt/1234tt.jpg","",""
"null","../img/gs/1234gs.jpg","null","reveal","image-keyboard-response","521","2066458","0.0-6.0-4.73","3506129","coMJ","norming","","","","","","",""
"null","../img/tt/1234tt.jpg","null","mooney2","image-keyboard-response","522","2068463","0.0-6.0-5.73","3506129","coMJ","norming","","","","","","",""
"1782.0149999996647","","","post_reveal_questions","survey-likert","523","2070246","0.0-6.0-6.73","3506129","coMJ","norming","","","{""aha"":6}","[0]","../img/tt/1234tt.jpg","",""
"null","<div style=""font-size:60px;""> </div>","null","fixation","html-keyboard-response","524","2070448","0.0-6.0-0.74","3506129","coMJ","norming","","","","","","",""
"null","../img/tt/1366tt.jpg","null","mooney1","image-keyboard-response","525","2073453","0.0-6.0-1.74","3506129","coMJ","norming","","","","","","",""
"3397.9499999999534","","","post_mooney1_questions","survey-likert","526","2076854","0.0-6.0-2.74","3506129","coMJ","norming","","","{""curiosity"":5,""confidence"":2}","[0,1]","../img/tt/1366tt.jpg","",""
"4478.090000000084","","","recognition","survey-text","527","2081334","0.0-6.0-3.74","3506129","coMJ","norming","","","{""guess"":""eend""}","","../img/tt/1366tt.jpg","",""
"null","../img/gs/1366gs.jpg","null","reveal","image-keyboard-response","528","2083340","0.0-6.0-4.74","3506129","coMJ","norming","","","","","","",""
"null","../img/tt/1366tt.jpg","null","mooney2","image-keyboard-response","529","2085350","0.0-6.0-5.74","3506129","coMJ","norming","","","","","","",""
"2748.8350000001956","","","post_reveal_questions","survey-likert","530","2088102","0.0-6.0-6.74","3506129","coMJ","norming","","","{""aha"":4}","[0]","../img/tt/1366tt.jpg","",""
"null","<div style=""font-size:60px;""> </div>","null","fixation","html-keyboard-response","531","2088303","0.0-6.0-0.75","3506129","coMJ","norming","","","","","","",""
"null","../img/tt/1080tt.jpg","null","mooney1","image-keyboard-response","532","2091307","0.0-6.0-1.75","3506129","coMJ","norming","","","","","","",""
"4463.255000000354","","","post_mooney1_questions","survey-likert","533","2095773","0.0-6.0-2.75","3506129","coMJ","norming","","","{""curiosity"":5,""confidence"":3}","[0,1]","../img/tt/1080tt.jpg","",""
"6573.915000000503","","","recognition","survey-text","534","2102348","0.0-6.0-3.75","3506129","coMJ","norming","","","{""guess"":""twee honden""}","","../img/tt/1080tt.jpg","",""
"null","../img/gs/1080gs.jpg","null","reveal","image-keyboard-response","535","2104358","0.0-6.0-4.75","3506129","coMJ","norming","","","","","","",""
"null","../img/tt/1080tt.jpg","null","mooney2","image-keyboard-response","536","2106365","0.0-6.0-5.75","3506129","coMJ","norming","","","","","","",""
"2036.785000000149","","","post_reveal_questions","survey-likert","537","2108405","0.0-6.0-6.75","3506129","coMJ","norming","","","{""aha"":6}","[0]","../img/tt/1080tt.jpg","",""
"null","<div style=""font-size:60px;""> </div>","null","fixation","html-keyboard-response","538","2108611","0.0-6.0-0.76","3506129","coMJ","norming","","","","","","",""
"null","../img/tt/279tt.jpg","null","mooney1","image-keyboard-response","539","2111613","0.0-6.0-1.76","3506129","coMJ","norming","","","","","","",""
"3379.329999999609","","","post_mooney1_questions","survey-likert","540","2114997","0.0-6.0-2.76","3506129","coMJ","norming","","","{""curiosity"":4,""confidence"":3}","[0,1]","../img/tt/279tt.jpg","",""
"2910.0499999998137","","","recognition","survey-text","541","2117908","0.0-6.0-3.76","3506129","coMJ","norming","","","{""guess"":""panda""}","","../img/tt/279tt.jpg","",""
"null","../img/gs/279gs.jpg","null","reveal","image-keyboard-response","542","2119913","0.0-6.0-4.76","3506129","coMJ","norming","","","","","","",""
"null","../img/tt/279tt.jpg","null","mooney2","image-keyboard-response","543","2121915","0.0-6.0-5.76","3506129","coMJ","norming","","","","","","",""
"1494.4449999998324","","","post_reveal_questions","survey-likert","544","2123413","0.0-6.0-6.76","3506129","coMJ","norming","","","{""aha"":6}","[0]","../img/tt/279tt.jpg","",""
"null","<div style=""font-size:60px;""> </div>","null","fixation","html-keyboard-response","545","2123618","0.0-6.0-0.77","3506129","coMJ","norming","","","","","","",""
"null","../img/tt/1268tt.jpg","null","mooney1","image-keyboard-response","546","2126628","0.0-6.0-1.77","3506129","coMJ","norming","","","","","","",""
"3501.464999999851","","","post_mooney1_questions","survey-likert","547","2130133","0.0-6.0-2.77","3506129","coMJ","norming","","","{""curiosity"":5,""confidence"":5}","[0,1]","../img/tt/1268tt.jpg","",""
"4117.820000000298","","","recognition","survey-text","548","2134252","0.0-6.0-3.77","3506129","coMJ","norming","","","{""guess"":""pauw""}","","../img/tt/1268tt.jpg","",""
"null","../img/gs/1268gs.jpg","null","reveal","image-keyboard-response","549","2136257","0.0-6.0-4.77","3506129","coMJ","norming","","","","","","",""
"null","../img/tt/1268tt.jpg","null","mooney2","image-keyboard-response","550","2138267","0.0-6.0-5.77","3506129","coMJ","norming","","","","","","",""
"1766.2450000001118","","","post_reveal_questions","survey-likert","551","2140036","0.0-6.0-6.77","3506129","coMJ","norming","","","{""aha"":5}","[0]","../img/tt/1268tt.jpg","",""
"null","<div style=""font-size:60px;""> </div>","null","fixation","html-keyboard-response","552","2140242","0.0-6.0-0.78","3506129","coMJ","norming","","","","","","",""
"null","../img/tt/1024tt.jpg","null","mooney1","image-keyboard-response","553","2143247","0.0-6.0-1.78","3506129","coMJ","norming","","","","","","",""
"5834.725000000093","","","post_mooney1_questions","survey-likert","554","2149085","0.0-6.0-2.78","3506129","coMJ","norming","","","{""curiosity"":5,""confidence"":5}","[0,1]","../img/tt/1024tt.jpg","",""
"4613.719999999739","","","recognition","survey-text","555","2153700","0.0-6.0-3.78","3506129","coMJ","norming","","","{""guess"":""zittende vrouw""}","","../img/tt/1024tt.jpg","",""
"null","../img/gs/1024gs.jpg","null","reveal","image-keyboard-response","556","2155708","0.0-6.0-4.78","3506129","coMJ","norming","","","","","","",""
"null","../img/tt/1024tt.jpg","null","mooney2","image-keyboard-response","557","2157718","0.0-6.0-5.78","3506129","coMJ","norming","","","","","","",""
"1756.7849999992177","","","post_reveal_questions","survey-likert","558","2159478","0.0-6.0-6.78","3506129","coMJ","norming","","","{""aha"":6}","[0]","../img/tt/1024tt.jpg","",""
"null","<div style=""font-size:60px;""> </div>","null","fixation","html-keyboard-response","559","2159680","0.0-6.0-0.79","3506129","coMJ","norming","","","","","","",""
"null","../img/tt/477tt.jpg","null","mooney1","image-keyboard-response","560","2162682","0.0-6.0-1.79","3506129","coMJ","norming","","","","","","",""
