"rt","stimulus","button_pressed","test_part","trial_type","trial_index","time_elapsed","internal_node_id","subject","session","experiment_name","complete","totalTime","key_press","currentStim","recognized","aha"
"88205","<div style='word-wrap: break-word; width: 900px'><h3>Please consider this information carefully before deciding whether to participate in this research</h3><ul style='text-align: left; font-size: .8em;'><li><b>Purpose of the research</b>: To examine how people process images.</li><li><b>What you will do in this research</b>:  Stimuli (images) will be presented on the computer and you will be asked different questions about them.</li><li><b>Time required</b>: Participation will take max 60 minutes to complete.</li><li><b>Risks</b>:  There are no anticipated risks associated with participating in this study. The effects of participating should be comparable to those you would experience from viewing a computer monitor for 60 minutes and using a mouse or keyboard.</li><li><b>Benefits</b>:  This study provides no benefits to you individually. The study provides important information about the nature of perception and learning.</li><li><b>Confidentiality</b>:  Your participation in this study will remain confidential. No personally identifiable information will be associated with your data. Your de-identified data may be shared with other researchers and used in future projects.</li><li><b>Participation and withdrawal</b>:  Your participation in this study is completely voluntary and you may refuse to participate or you may choose to withdraw at any time without penalty.</li><li><b>How to contact the researchers</b>: If you have questions or concerns about your participation or payment, or want to request a summary of research findings, please contact Sander Van de Cruys (KU Leuven), at sander.vandecruys@kuleuven.be.</li></ul><p>The nature and purpose of this research have been sufficiently explained and I agree to participate in this study.  I understand that I am free to withdraw at any time without incurring any penalty.</p><p>Please consent by clicking the button below to continue. Otherwise, please exit the study at this time.</p></div>","0","instructions","html-button-response","0","88207","0.0-0.0","bp","1","pretest","true","4156818","","","",""
"97576","<div style='word-wrap: break-word; width: 900px'><h3>Instructions</h3><p>In this experiment you will see a series of distorted images like the one below on the left. As you can see in the righthand image, the distorted images are derived from actual photographs.In what follows, you will <strong>briefly</strong> be presented with <strong>only</strong> the distorted image.</p> <div style='float: left; margin-right: 20px;'><img src='../img/018tt.jpg' height='250' width='250'></img></div><div style='float: right; margin-left: 20px;'><img src='../img/018gs.jpg' height='250' width='250'></img></div><p>To be useful for future research, we need to select those images that people can generally not solve on their own. Therefore we'll show you the distorted image and ask you to indicate (yes or no) whether you already recognized what was in the image. This is not a competition, so please respond truthfully. We don't ask or check your answer, we just want to know whether you think you recognized it. All images depict objects from one of these broad level categories: animals, inanimate objects, plants, sports, vehicles, and food. Recognizing means knowing more than these broad labels for a given image. It means knowing at least the basic level category of the main object in the image, for example when you see a parrot in the image, 'parrot' will obviously be a correct answer but also correct is 'bird', but not 'animal' (the broad level category). For the example above, 'rose' would be correct or 'flower', but not 'plant'. When soccer players are depicted, you don't recognize the image when you just see 'humans', 'outdoors', or 'sports'. Note that complete certainty about your answer is not necessary, it's enough to have a good, definite guess on the object, to say 'yes, I recognized it'.</p><p>One additional question will be asked after we've revealed the solution: You'll be asked to indicate how strong your <strong>aha-experience</strong> was. This describes the positive 'click' you sometimes experience, when the pieces of the 'puzzle' fall together and you suddenly have 'insight' in the image. It describes how good you felt the 'fit' was between the distorted image and the solution.</p><p>Press any key to start.</p></div>","","instructions","html-keyboard-response","1","185784","0.0-1.0","bp","1","pretest","true","4156818","186","","",""
"null","<div style=""font-size:60px;""> </div>","","fixation","html-keyboard-response","2","185985","0.0-2.0-0.0","bp","1","pretest","true","4156818","null","","",""
"null","../img/tt/1228tt.jpg","","mooney1","image-keyboard-response","3","188988","0.0-2.0-1.0","bp","1","pretest","true","4156818","null","../img/tt/1228tt.jpg","",""
"5683","<p></p>","","recognized","html-keyboard-response","4","194674","0.0-2.0-2.0","bp","1","pretest","true","4156818","78","../img/tt/1228tt.jpg","n",""
"null","../img/gs/1228gs.jpg","","solution","image-keyboard-response","5","196677","0.0-2.0-3.0","bp","1","pretest","true","4156818","null","","",""
"null","../img/tt/1228tt.jpg","","mooney2","image-keyboard-response","6","198693","0.0-2.0-4.0","bp","1","pretest","true","4156818","null","","",""
"19906","<p>How strong was your <strong>aha-experience</strong>?</p>","","aha","html-keyboard-response","7","218599","0.0-2.0-5.0","bp","1","pretest","true","4156818","51","../img/tt/1228tt.jpg","","3"
"null","<div style=""font-size:60px;""> </div>","","fixation","html-keyboard-response","8","218805","0.0-2.0-0.1","bp","1","pretest","true","4156818","null","","",""
"null","../img/tt/1116tt.jpg","","mooney1","image-keyboard-response","9","221806","0.0-2.0-1.1","bp","1","pretest","true","4156818","null","../img/tt/1116tt.jpg","",""
"3616","<p></p>","","recognized","html-keyboard-response","10","225423","0.0-2.0-2.1","bp","1","pretest","true","4156818","78","../img/tt/1116tt.jpg","n",""
"null","../img/gs/1116gs.jpg","","solution","image-keyboard-response","11","227441","0.0-2.0-3.1","bp","1","pretest","true","4156818","null","","",""
"null","../img/tt/1116tt.jpg","","mooney2","image-keyboard-response","12","229455","0.0-2.0-4.1","bp","1","pretest","true","4156818","null","","",""
"4318","<p>How strong was your <strong>aha-experience</strong>?</p>","","aha","html-keyboard-response","13","233774","0.0-2.0-5.1","bp","1","pretest","true","4156818","49","../img/tt/1116tt.jpg","","1"
"null","<div style=""font-size:60px;""> </div>","","fixation","html-keyboard-response","14","233976","0.0-2.0-0.2","bp","1","pretest","true","4156818","null","","",""
"null","../img/tt/097tt.jpg","","mooney1","image-keyboard-response","15","236979","0.0-2.0-1.2","bp","1","pretest","true","4156818","null","../img/tt/097tt.jpg","",""
"1925","<p></p>","","recognized","html-keyboard-response","16","238904","0.0-2.0-2.2","bp","1","pretest","true","4156818","78","../img/tt/097tt.jpg","n",""
"null","../img/gs/097gs.jpg","","solution","image-keyboard-response","17","240906","0.0-2.0-3.2","bp","1","pretest","true","4156818","null","","",""
"null","../img/tt/097tt.jpg","","mooney2","image-keyboard-response","18","242910","0.0-2.0-4.2","bp","1","pretest","true","4156818","null","","",""
"6991","<p>How strong was your <strong>aha-experience</strong>?</p>","","aha","html-keyboard-response","19","249902","0.0-2.0-5.2","bp","1","pretest","true","4156818","49","../img/tt/097tt.jpg","","1"
"null","<div style=""font-size:60px;""> </div>","","fixation","html-keyboard-response","20","250102","0.0-2.0-0.3","bp","1","pretest","true","4156818","null","","",""
"null","../img/tt/1027tt.jpg","","mooney1","image-keyboard-response","21","253104","0.0-2.0-1.3","bp","1","pretest","true","4156818","null","../img/tt/1027tt.jpg","",""
"3516","<p></p>","","recognized","html-keyboard-response","22","256621","0.0-2.0-2.3","bp","1","pretest","true","4156818","78","../img/tt/1027tt.jpg","n",""
"null","../img/gs/1027gs.jpg","","solution","image-keyboard-response","23","258629","0.0-2.0-3.3","bp","1","pretest","true","4156818","null","","",""
"null","../img/tt/1027tt.jpg","","mooney2","image-keyboard-response","24","260632","0.0-2.0-4.3","bp","1","pretest","true","4156818","null","","",""
"1845","<p>How strong was your <strong>aha-experience</strong>?</p>","","aha","html-keyboard-response","25","262478","0.0-2.0-5.3","bp","1","pretest","true","4156818","53","../img/tt/1027tt.jpg","","5"
"null","<div style=""font-size:60px;""> </div>","","fixation","html-keyboard-response","26","262679","0.0-2.0-0.4","bp","1","pretest","true","4156818","null","","",""
"null","../img/tt/1063tt.jpg","","mooney1","image-keyboard-response","27","265686","0.0-2.0-1.4","bp","1","pretest","true","4156818","null","../img/tt/1063tt.jpg","",""
"1383","<p></p>","","recognized","html-keyboard-response","28","267070","0.0-2.0-2.4","bp","1","pretest","true","4156818","78","../img/tt/1063tt.jpg","n",""
"null","../img/gs/1063gs.jpg","","solution","image-keyboard-response","29","269071","0.0-2.0-3.4","bp","1","pretest","true","4156818","null","","",""
"null","../img/tt/1063tt.jpg","","mooney2","image-keyboard-response","30","271072","0.0-2.0-4.4","bp","1","pretest","true","4156818","null","","",""
"2214","<p>How strong was your <strong>aha-experience</strong>?</p>","","aha","html-keyboard-response","31","273286","0.0-2.0-5.4","bp","1","pretest","true","4156818","49","../img/tt/1063tt.jpg","","1"
"null","<div style=""font-size:60px;""> </div>","","fixation","html-keyboard-response","32","273497","0.0-2.0-0.5","bp","1","pretest","true","4156818","null","","",""
"null","../img/tt/1055tt.jpg","","mooney1","image-keyboard-response","33","276498","0.0-2.0-1.5","bp","1","pretest","true","4156818","null","../img/tt/1055tt.jpg","",""
"1404","<p></p>","","recognized","html-keyboard-response","34","277902","0.0-2.0-2.5","bp","1","pretest","true","4156818","78","../img/tt/1055tt.jpg","n",""
"null","../img/gs/1055gs.jpg","","solution","image-keyboard-response","35","279908","0.0-2.0-3.5","bp","1","pretest","true","4156818","null","","",""
"null","../img/tt/1055tt.jpg","","mooney2","image-keyboard-response","36","281913","0.0-2.0-4.5","bp","1","pretest","true","4156818","null","","",""
"884","<p>How strong was your <strong>aha-experience</strong>?</p>","","aha","html-keyboard-response","37","282798","0.0-2.0-5.5","bp","1","pretest","true","4156818","50","../img/tt/1055tt.jpg","","2"
"null","<div style=""font-size:60px;""> </div>","","fixation","html-keyboard-response","38","282999","0.0-2.0-0.6","bp","1","pretest","true","4156818","null","","",""
"null","../img/tt/031tt.jpg","","mooney1","image-keyboard-response","39","286008","0.0-2.0-1.6","bp","1","pretest","true","4156818","null","../img/tt/031tt.jpg","",""
"1422","<p></p>","","recognized","html-keyboard-response","40","287430","0.0-2.0-2.6","bp","1","pretest","true","4156818","78","../img/tt/031tt.jpg","n",""
"null","../img/gs/031gs.jpg","","solution","image-keyboard-response","41","289438","0.0-2.0-3.6","bp","1","pretest","true","4156818","null","","",""
"null","../img/tt/031tt.jpg","","mooney2","image-keyboard-response","42","291439","0.0-2.0-4.6","bp","1","pretest","true","4156818","null","","",""
"1701","<p>How strong was your <strong>aha-experience</strong>?</p>","","aha","html-keyboard-response","43","293141","0.0-2.0-5.6","bp","1","pretest","true","4156818","50","../img/tt/031tt.jpg","","2"
"null","<div style=""font-size:60px;""> </div>","","fixation","html-keyboard-response","44","293343","0.0-2.0-0.7","bp","1","pretest","true","4156818","null","","",""
"null","../img/tt/1287tt.jpg","","mooney1","image-keyboard-response","45","296345","0.0-2.0-1.7","bp","1","pretest","true","4156818","null","../img/tt/1287tt.jpg","",""
"1653","<p></p>","","recognized","html-keyboard-response","46","297998","0.0-2.0-2.7","bp","1","pretest","true","4156818","78","../img/tt/1287tt.jpg","n",""
"null","../img/gs/1287gs.jpg","","solution","image-keyboard-response","47","300008","0.0-2.0-3.7","bp","1","pretest","true","4156818","null","","",""
"null","../img/tt/1287tt.jpg","","mooney2","image-keyboard-response","48","302023","0.0-2.0-4.7","bp","1","pretest","true","4156818","null","","",""
"2607","<p>How strong was your <strong>aha-experience</strong>?</p>","","aha","html-keyboard-response","49","304630","0.0-2.0-5.7","bp","1","pretest","true","4156818","50","../img/tt/1287tt.jpg","","2"
"null","<div style=""font-size:60px;""> </div>","","fixation","html-keyboard-response","50","304842","0.0-2.0-0.8","bp","1","pretest","true","4156818","null","","",""
"null","../img/tt/1204tt.jpg","","mooney1","image-keyboard-response","51","307855","0.0-2.0-1.8","bp","1","pretest","true","4156818","null","../img/tt/1204tt.jpg","",""
"113","<p></p>","","recognized","html-keyboard-response","52","307968","0.0-2.0-2.8","bp","1","pretest","true","4156818","89","../img/tt/1204tt.jpg","y",""
"null","../img/gs/1204gs.jpg","","solution","image-keyboard-response","53","309971","0.0-2.0-3.8","bp","1","pretest","true","4156818","null","","",""
"null","../img/tt/1204tt.jpg","","mooney2","image-keyboard-response","54","311972","0.0-2.0-4.8","bp","1","pretest","true","4156818","null","","",""
"3179","<p>How strong was your <strong>aha-experience</strong>?</p>","","aha","html-keyboard-response","55","315152","0.0-2.0-5.8","bp","1","pretest","true","4156818","49","../img/tt/1204tt.jpg","","1"
"null","<div style=""font-size:60px;""> </div>","","fixation","html-keyboard-response","56","315354","0.0-2.0-0.9","bp","1","pretest","true","4156818","null","","",""
"null","../img/tt/033tt.jpg","","mooney1","image-keyboard-response","57","318355","0.0-2.0-1.9","bp","1","pretest","true","4156818","null","../img/tt/033tt.jpg","",""
"2988","<p></p>","","recognized","html-keyboard-response","58","321344","0.0-2.0-2.9","bp","1","pretest","true","4156818","78","../img/tt/033tt.jpg","n",""
"null","../img/gs/033gs.jpg","","solution","image-keyboard-response","59","323350","0.0-2.0-3.9","bp","1","pretest","true","4156818","null","","",""
"null","../img/tt/033tt.jpg","","mooney2","image-keyboard-response","60","325353","0.0-2.0-4.9","bp","1","pretest","true","4156818","null","","",""
"967","<p>How strong was your <strong>aha-experience</strong>?</p>","","aha","html-keyboard-response","61","326320","0.0-2.0-5.9","bp","1","pretest","true","4156818","49","../img/tt/033tt.jpg","","1"
"null","<div style=""font-size:60px;""> </div>","","fixation","html-keyboard-response","62","326534","0.0-2.0-0.10","bp","1","pretest","true","4156818","null","","",""
"null","../img/tt/1162tt.jpg","","mooney1","image-keyboard-response","63","329544","0.0-2.0-1.10","bp","1","pretest","true","4156818","null","../img/tt/1162tt.jpg","",""
"3743","<p></p>","","recognized","html-keyboard-response","64","333288","0.0-2.0-2.10","bp","1","pretest","true","4156818","89","../img/tt/1162tt.jpg","y",""
"null","../img/gs/1162gs.jpg","","solution","image-keyboard-response","65","335290","0.0-2.0-3.10","bp","1","pretest","true","4156818","null","","",""
"null","../img/tt/1162tt.jpg","","mooney2","image-keyboard-response","66","337293","0.0-2.0-4.10","bp","1","pretest","true","4156818","null","","",""
"1459","<p>How strong was your <strong>aha-experience</strong>?</p>","","aha","html-keyboard-response","67","338752","0.0-2.0-5.10","bp","1","pretest","true","4156818","54","../img/tt/1162tt.jpg","","6"
"null","<div style=""font-size:60px;""> </div>","","fixation","html-keyboard-response","68","338954","0.0-2.0-0.11","bp","1","pretest","true","4156818","null","","",""
"null","../img/tt/048tt.jpg","","mooney1","image-keyboard-response","69","341961","0.0-2.0-1.11","bp","1","pretest","true","4156818","null","../img/tt/048tt.jpg","",""
"1646","<p></p>","","recognized","html-keyboard-response","70","343608","0.0-2.0-2.11","bp","1","pretest","true","4156818","78","../img/tt/048tt.jpg","n",""
"null","../img/gs/048gs.jpg","","solution","image-keyboard-response","71","345609","0.0-2.0-3.11","bp","1","pretest","true","4156818","null","","",""
"null","../img/tt/048tt.jpg","","mooney2","image-keyboard-response","72","347618","0.0-2.0-4.11","bp","1","pretest","true","4156818","null","","",""
"1710","<p>How strong was your <strong>aha-experience</strong>?</p>","","aha","html-keyboard-response","73","349328","0.0-2.0-5.11","bp","1","pretest","true","4156818","49","../img/tt/048tt.jpg","","1"
"null","<div style=""font-size:60px;""> </div>","","fixation","html-keyboard-response","74","349530","0.0-2.0-0.12","bp","1","pretest","true","4156818","null","","",""
"null","../img/tt/1241tt.jpg","","mooney1","image-keyboard-response","75","352532","0.0-2.0-1.12","bp","1","pretest","true","4156818","null","../img/tt/1241tt.jpg","",""
"1988","<p></p>","","recognized","html-keyboard-response","76","354520","0.0-2.0-2.12","bp","1","pretest","true","4156818","78","../img/tt/1241tt.jpg","n",""
"null","../img/gs/1241gs.jpg","","solution","image-keyboard-response","77","356537","0.0-2.0-3.12","bp","1","pretest","true","4156818","null","","",""
"null","../img/tt/1241tt.jpg","","mooney2","image-keyboard-response","78","358538","0.0-2.0-4.12","bp","1","pretest","true","4156818","null","","",""
"821","<p>How strong was your <strong>aha-experience</strong>?</p>","","aha","html-keyboard-response","79","359360","0.0-2.0-5.12","bp","1","pretest","true","4156818","51","../img/tt/1241tt.jpg","","3"
"null","<div style=""font-size:60px;""> </div>","","fixation","html-keyboard-response","80","359562","0.0-2.0-0.13","bp","1","pretest","true","4156818","null","","",""
"null","../img/tt/1135tt.jpg","","mooney1","image-keyboard-response","81","362564","0.0-2.0-1.13","bp","1","pretest","true","4156818","null","../img/tt/1135tt.jpg","",""
"1068","<p></p>","","recognized","html-keyboard-response","82","363632","0.0-2.0-2.13","bp","1","pretest","true","4156818","89","../img/tt/1135tt.jpg","y",""
"null","../img/gs/1135gs.jpg","","solution","image-keyboard-response","83","365634","0.0-2.0-3.13","bp","1","pretest","true","4156818","null","","",""
"null","../img/tt/1135tt.jpg","","mooney2","image-keyboard-response","84","367636","0.0-2.0-4.13","bp","1","pretest","true","4156818","null","","",""
"-1436","<p>How strong was your <strong>aha-experience</strong>?</p>","","aha","html-keyboard-response","85","366201","0.0-2.0-5.13","bp","1","pretest","true","4156818","52","../img/tt/1135tt.jpg","","4"
"null","<div style=""font-size:60px;""> </div>","","fixation","html-keyboard-response","86","366401","0.0-2.0-0.14","bp","1","pretest","true","4156818","null","","",""
"null","../img/tt/032tt.jpg","","mooney1","image-keyboard-response","87","369407","0.0-2.0-1.14","bp","1","pretest","true","4156818","null","../img/tt/032tt.jpg","",""
"1257","<p></p>","","recognized","html-keyboard-response","88","370664","0.0-2.0-2.14","bp","1","pretest","true","4156818","78","../img/tt/032tt.jpg","n",""
"null","../img/gs/032gs.jpg","","solution","image-keyboard-response","89","372673","0.0-2.0-3.14","bp","1","pretest","true","4156818","null","","",""
"null","../img/tt/032tt.jpg","","mooney2","image-keyboard-response","90","374675","0.0-2.0-4.14","bp","1","pretest","true","4156818","null","","",""
"2302","<p>How strong was your <strong>aha-experience</strong>?</p>","","aha","html-keyboard-response","91","376977","0.0-2.0-5.14","bp","1","pretest","true","4156818","49","../img/tt/032tt.jpg","","1"
"null","<div style=""font-size:60px;""> </div>","","fixation","html-keyboard-response","92","377183","0.0-2.0-0.15","bp","1","pretest","true","4156818","null","","",""
"null","../img/tt/1020tt.jpg","","mooney1","image-keyboard-response","93","380185","0.0-2.0-1.15","bp","1","pretest","true","4156818","null","../img/tt/1020tt.jpg","",""
"831","<p></p>","","recognized","html-keyboard-response","94","381016","0.0-2.0-2.15","bp","1","pretest","true","4156818","89","../img/tt/1020tt.jpg","y",""
"null","../img/gs/1020gs.jpg","","solution","image-keyboard-response","95","383020","0.0-2.0-3.15","bp","1","pretest","true","4156818","null","","",""
"null","../img/tt/1020tt.jpg","","mooney2","image-keyboard-response","96","385022","0.0-2.0-4.15","bp","1","pretest","true","4156818","null","","",""
"2162","<p>How strong was your <strong>aha-experience</strong>?</p>","","aha","html-keyboard-response","97","387185","0.0-2.0-5.15","bp","1","pretest","true","4156818","53","../img/tt/1020tt.jpg","","5"
"null","<div style=""font-size:60px;""> </div>","","fixation","html-keyboard-response","98","387398","0.0-2.0-0.16","bp","1","pretest","true","4156818","null","","",""
"null","../img/tt/072tt.jpg","","mooney1","image-keyboard-response","99","390399","0.0-2.0-1.16","bp","1","pretest","true","4156818","null","../img/tt/072tt.jpg","",""
"1361","<p></p>","","recognized","html-keyboard-response","100","391761","0.0-2.0-2.16","bp","1","pretest","true","4156818","78","../img/tt/072tt.jpg","n",""
"null","../img/gs/072gs.jpg","","solution","image-keyboard-response","101","393763","0.0-2.0-3.16","bp","1","pretest","true","4156818","null","","",""
"null","../img/tt/072tt.jpg","","mooney2","image-keyboard-response","102","395766","0.0-2.0-4.16","bp","1","pretest","true","4156818","null","","",""
"113","<p>How strong was your <strong>aha-experience</strong>?</p>","","aha","html-keyboard-response","103","395881","0.0-2.0-5.16","bp","1","pretest","true","4156818","50","../img/tt/072tt.jpg","","2"
"null","<div style=""font-size:60px;""> </div>","","fixation","html-keyboard-response","104","396097","0.0-2.0-0.17","bp","1","pretest","true","4156818","null","","",""
"null","../img/tt/1150tt.jpg","","mooney1","image-keyboard-response","105","399099","0.0-2.0-1.17","bp","1","pretest","true","4156818","null","../img/tt/1150tt.jpg","",""
"630","<p></p>","","recognized","html-keyboard-response","106","399729","0.0-2.0-2.17","bp","1","pretest","true","4156818","89","../img/tt/1150tt.jpg","y",""
"null","../img/gs/1150gs.jpg","","solution","image-keyboard-response","107","401736","0.0-2.0-3.17","bp","1","pretest","true","4156818","null","","",""
"null","../img/tt/1150tt.jpg","","mooney2","image-keyboard-response","108","403737","0.0-2.0-4.17","bp","1","pretest","true","4156818","null","","",""
"1143","<p>How strong was your <strong>aha-experience</strong>?</p>","","aha","html-keyboard-response","109","404880","0.0-2.0-5.17","bp","1","pretest","true","4156818","52","../img/tt/1150tt.jpg","","4"
"null","<div style=""font-size:60px;""> </div>","","fixation","html-keyboard-response","110","405082","0.0-2.0-0.18","bp","1","pretest","true","4156818","null","","",""
"null","../img/tt/074tt.jpg","","mooney1","image-keyboard-response","111","408083","0.0-2.0-1.18","bp","1","pretest","true","4156818","null","../img/tt/074tt.jpg","",""
"1612","<p></p>","","recognized","html-keyboard-response","112","409696","0.0-2.0-2.18","bp","1","pretest","true","4156818","89","../img/tt/074tt.jpg","y",""
"null","../img/gs/074gs.jpg","","solution","image-keyboard-response","113","411702","0.0-2.0-3.18","bp","1","pretest","true","4156818","null","","",""
"null","../img/tt/074tt.jpg","","mooney2","image-keyboard-response","114","413703","0.0-2.0-4.18","bp","1","pretest","true","4156818","null","","",""
"1393","<p>How strong was your <strong>aha-experience</strong>?</p>","","aha","html-keyboard-response","115","415097","0.0-2.0-5.18","bp","1","pretest","true","4156818","53","../img/tt/074tt.jpg","","5"
"null","<div style=""font-size:60px;""> </div>","","fixation","html-keyboard-response","116","415298","0.0-2.0-0.19","bp","1","pretest","true","4156818","null","","",""
"null","../img/tt/1152tt.jpg","","mooney1","image-keyboard-response","117","418314","0.0-2.0-1.19","bp","1","pretest","true","4156818","null","../img/tt/1152tt.jpg","",""
"1333","<p></p>","","recognized","html-keyboard-response","118","419649","0.0-2.0-2.19","bp","1","pretest","true","4156818","89","../img/tt/1152tt.jpg","y",""
"null","../img/gs/1152gs.jpg","","solution","image-keyboard-response","119","421655","0.0-2.0-3.19","bp","1","pretest","true","4156818","null","","",""
"null","../img/tt/1152tt.jpg","","mooney2","image-keyboard-response","120","423658","0.0-2.0-4.19","bp","1","pretest","true","4156818","null","","",""
"2295","<p>How strong was your <strong>aha-experience</strong>?</p>","","aha","html-keyboard-response","121","425953","0.0-2.0-5.19","bp","1","pretest","true","4156818","50","../img/tt/1152tt.jpg","","2"
"null","<div style=""font-size:60px;""> </div>","","fixation","html-keyboard-response","122","426161","0.0-2.0-0.20","bp","1","pretest","true","4156818","null","","",""
"null","../img/tt/1215tt.jpg","","mooney1","image-keyboard-response","123","427205","0.0-2.0-1.20","bp","1","pretest","true","4156818","null","../img/tt/1215tt.jpg","",""
"4130","<p></p>","","recognized","html-keyboard-response","124","431336","0.0-2.0-2.20","bp","1","pretest","true","4156818","78","../img/tt/1215tt.jpg","n",""
"null","../img/gs/1215gs.jpg","","solution","image-keyboard-response","125","433337","0.0-2.0-3.20","bp","1","pretest","true","4156818","null","","",""
"null","../img/tt/1215tt.jpg","","mooney2","image-keyboard-response","126","435348","0.0-2.0-4.20","bp","1","pretest","true","4156818","null","","",""
"1043","<p>How strong was your <strong>aha-experience</strong>?</p>","","aha","html-keyboard-response","127","436392","0.0-2.0-5.20","bp","1","pretest","true","4156818","52","../img/tt/1215tt.jpg","","4"
"null","<div style=""font-size:60px;""> </div>","","fixation","html-keyboard-response","128","436593","0.0-2.0-0.21","bp","1","pretest","true","4156818","null","","",""
"null","../img/tt/1092tt.jpg","","mooney1","image-keyboard-response","129","439594","0.0-2.0-1.21","bp","1","pretest","true","4156818","null","../img/tt/1092tt.jpg","",""
"1812","<p></p>","","recognized","html-keyboard-response","130","441408","0.0-2.0-2.21","bp","1","pretest","true","4156818","78","../img/tt/1092tt.jpg","n",""
"null","../img/gs/1092gs.jpg","","solution","image-keyboard-response","131","443422","0.0-2.0-3.21","bp","1","pretest","true","4156818","null","","",""
"null","../img/tt/1092tt.jpg","","mooney2","image-keyboard-response","132","445423","0.0-2.0-4.21","bp","1","pretest","true","4156818","null","","",""
"1967","<p>How strong was your <strong>aha-experience</strong>?</p>","","aha","html-keyboard-response","133","447392","0.0-2.0-5.21","bp","1","pretest","true","4156818","52","../img/tt/1092tt.jpg","","4"
"null","<div style=""font-size:60px;""> </div>","","fixation","html-keyboard-response","134","447593","0.0-2.0-0.22","bp","1","pretest","true","4156818","null","","",""
"null","../img/tt/1292tt.jpg","","mooney1","image-keyboard-response","135","450594","0.0-2.0-1.22","bp","1","pretest","true","4156818","null","../img/tt/1292tt.jpg","",""
"1508","<p></p>","","recognized","html-keyboard-response","136","452104","0.0-2.0-2.22","bp","1","pretest","true","4156818","89","../img/tt/1292tt.jpg","y",""
"null","../img/gs/1292gs.jpg","","solution","image-keyboard-response","137","454106","0.0-2.0-3.22","bp","1","pretest","true","4156818","null","","",""
"null","../img/tt/1292tt.jpg","","mooney2","image-keyboard-response","138","456107","0.0-2.0-4.22","bp","1","pretest","true","4156818","null","","",""
"667","<p>How strong was your <strong>aha-experience</strong>?</p>","","aha","html-keyboard-response","139","456776","0.0-2.0-5.22","bp","1","pretest","true","4156818","53","../img/tt/1292tt.jpg","","5"
"null","<div style=""font-size:60px;""> </div>","","fixation","html-keyboard-response","140","456977","0.0-2.0-0.23","bp","1","pretest","true","4156818","null","","",""
"null","../img/tt/1086tt.jpg","","mooney1","image-keyboard-response","141","459979","0.0-2.0-1.23","bp","1","pretest","true","4156818","null","../img/tt/1086tt.jpg","",""
"2036","<p></p>","","recognized","html-keyboard-response","142","462016","0.0-2.0-2.23","bp","1","pretest","true","4156818","78","../img/tt/1086tt.jpg","n",""
"null","../img/gs/1086gs.jpg","","solution","image-keyboard-response","143","464017","0.0-2.0-3.23","bp","1","pretest","true","4156818","null","","",""
"null","../img/tt/1086tt.jpg","","mooney2","image-keyboard-response","144","466018","0.0-2.0-4.23","bp","1","pretest","true","4156818","null","","",""
"1878","<p>How strong was your <strong>aha-experience</strong>?</p>","","aha","html-keyboard-response","145","467896","0.0-2.0-5.23","bp","1","pretest","true","4156818","49","../img/tt/1086tt.jpg","","1"
"null","<div style=""font-size:60px;""> </div>","","fixation","html-keyboard-response","146","468098","0.0-2.0-0.24","bp","1","pretest","true","4156818","null","","",""
"null","../img/tt/076tt.jpg","","mooney1","image-keyboard-response","147","471099","0.0-2.0-1.24","bp","1","pretest","true","4156818","null","../img/tt/076tt.jpg","",""
"356","<p></p>","","recognized","html-keyboard-response","148","471456","0.0-2.0-2.24","bp","1","pretest","true","4156818","78","../img/tt/076tt.jpg","n",""
"null","../img/gs/076gs.jpg","","solution","image-keyboard-response","149","473457","0.0-2.0-3.24","bp","1","pretest","true","4156818","null","","",""
"null","../img/tt/076tt.jpg","","mooney2","image-keyboard-response","150","475458","0.0-2.0-4.24","bp","1","pretest","true","4156818","null","","",""
"1125","<p>How strong was your <strong>aha-experience</strong>?</p>","","aha","html-keyboard-response","151","476583","0.0-2.0-5.24","bp","1","pretest","true","4156818","52","../img/tt/076tt.jpg","","4"
"null","<div style=""font-size:60px;""> </div>","","fixation","html-keyboard-response","152","476785","0.0-2.0-0.25","bp","1","pretest","true","4156818","null","","",""
"null","../img/tt/1273tt.jpg","","mooney1","image-keyboard-response","153","479798","0.0-2.0-1.25","bp","1","pretest","true","4156818","null","../img/tt/1273tt.jpg","",""
"1753","<p></p>","","recognized","html-keyboard-response","154","481552","0.0-2.0-2.25","bp","1","pretest","true","4156818","78","../img/tt/1273tt.jpg","n",""
"null","../img/gs/1273gs.jpg","","solution","image-keyboard-response","155","483554","0.0-2.0-3.25","bp","1","pretest","true","4156818","null","","",""
"null","../img/tt/1273tt.jpg","","mooney2","image-keyboard-response","156","485555","0.0-2.0-4.25","bp","1","pretest","true","4156818","null","","",""
"278","<p>How strong was your <strong>aha-experience</strong>?</p>","","aha","html-keyboard-response","157","485834","0.0-2.0-5.25","bp","1","pretest","true","4156818","52","../img/tt/1273tt.jpg","","4"
"null","<div style=""font-size:60px;""> </div>","","fixation","html-keyboard-response","158","486036","0.0-2.0-0.26","bp","1","pretest","true","4156818","null","","",""
"null","../img/tt/119tt.jpg","","mooney1","image-keyboard-response","159","489037","0.0-2.0-1.26","bp","1","pretest","true","4156818","null","../img/tt/119tt.jpg","",""
"1525","<p></p>","","recognized","html-keyboard-response","160","490562","0.0-2.0-2.26","bp","1","pretest","true","4156818","78","../img/tt/119tt.jpg","n",""
"null","../img/gs/119gs.jpg","","solution","image-keyboard-response","161","492567","0.0-2.0-3.26","bp","1","pretest","true","4156818","null","","",""
"null","../img/tt/119tt.jpg","","mooney2","image-keyboard-response","162","494570","0.0-2.0-4.26","bp","1","pretest","true","4156818","null","","",""
"0","<p>How strong was your <strong>aha-experience</strong>?</p>","","aha","html-keyboard-response","163","494571","0.0-2.0-5.26","bp","1","pretest","true","4156818","51","../img/tt/119tt.jpg","","3"
"null","<div style=""font-size:60px;""> </div>","","fixation","html-keyboard-response","164","494773","0.0-2.0-0.27","bp","1","pretest","true","4156818","null","","",""
"null","../img/tt/1094tt.jpg","","mooney1","image-keyboard-response","165","497780","0.0-2.0-1.27","bp","1","pretest","true","4156818","null","../img/tt/1094tt.jpg","",""
"670","<p></p>","","recognized","html-keyboard-response","166","498450","0.0-2.0-2.27","bp","1","pretest","true","4156818","89","../img/tt/1094tt.jpg","y",""
"null","../img/gs/1094gs.jpg","","solution","image-keyboard-response","167","500451","0.0-2.0-3.27","bp","1","pretest","true","4156818","null","","",""
"null","../img/tt/1094tt.jpg","","mooney2","image-keyboard-response","168","502453","0.0-2.0-4.27","bp","1","pretest","true","4156818","null","","",""
"837","<p>How strong was your <strong>aha-experience</strong>?</p>","","aha","html-keyboard-response","169","503291","0.0-2.0-5.27","bp","1","pretest","true","4156818","53","../img/tt/1094tt.jpg","","5"
"null","<div style=""font-size:60px;""> </div>","","fixation","html-keyboard-response","170","503504","0.0-2.0-0.28","bp","1","pretest","true","4156818","null","","",""
"null","../img/tt/1065tt.jpg","","mooney1","image-keyboard-response","171","506506","0.0-2.0-1.28","bp","1","pretest","true","4156818","null","../img/tt/1065tt.jpg","",""
"2680","<p></p>","","recognized","html-keyboard-response","172","509186","0.0-2.0-2.28","bp","1","pretest","true","4156818","78","../img/tt/1065tt.jpg","n",""
"null","../img/gs/1065gs.jpg","","solution","image-keyboard-response","173","511188","0.0-2.0-3.28","bp","1","pretest","true","4156818","null","","",""
"null","../img/tt/1065tt.jpg","","mooney2","image-keyboard-response","174","513189","0.0-2.0-4.28","bp","1","pretest","true","4156818","null","","",""
"3781","<p>How strong was your <strong>aha-experience</strong>?</p>","","aha","html-keyboard-response","175","516970","0.0-2.0-5.28","bp","1","pretest","true","4156818","52","../img/tt/1065tt.jpg","","4"
"null","<div style=""font-size:60px;""> </div>","","fixation","html-keyboard-response","176","517186","0.0-2.0-0.29","bp","1","pretest","true","4156818","null","","",""
"null","../img/tt/1091tt.jpg","","mooney1","image-keyboard-response","177","520199","0.0-2.0-1.29","bp","1","pretest","true","4156818","null","../img/tt/1091tt.jpg","",""
"2107","<p></p>","","recognized","html-keyboard-response","178","522306","0.0-2.0-2.29","bp","1","pretest","true","4156818","78","../img/tt/1091tt.jpg","n",""
"null","../img/gs/1091gs.jpg","","solution","image-keyboard-response","179","524309","0.0-2.0-3.29","bp","1","pretest","true","4156818","null","","",""
"null","../img/tt/1091tt.jpg","","mooney2","image-keyboard-response","180","526310","0.0-2.0-4.29","bp","1","pretest","true","4156818","null","","",""
"1619","<p>How strong was your <strong>aha-experience</strong>?</p>","","aha","html-keyboard-response","181","527930","0.0-2.0-5.29","bp","1","pretest","true","4156818","51","../img/tt/1091tt.jpg","","3"
"null","<div style=""font-size:60px;""> </div>","","fixation","html-keyboard-response","182","528137","0.0-2.0-0.30","bp","1","pretest","true","4156818","null","","",""
"null","../img/tt/1100tt.jpg","","mooney1","image-keyboard-response","183","531138","0.0-2.0-1.30","bp","1","pretest","true","4156818","null","../img/tt/1100tt.jpg","",""
"1063","<p></p>","","recognized","html-keyboard-response","184","532202","0.0-2.0-2.30","bp","1","pretest","true","4156818","89","../img/tt/1100tt.jpg","y",""
"null","../img/gs/1100gs.jpg","","solution","image-keyboard-response","185","534205","0.0-2.0-3.30","bp","1","pretest","true","4156818","null","","",""
"null","../img/tt/1100tt.jpg","","mooney2","image-keyboard-response","186","536215","0.0-2.0-4.30","bp","1","pretest","true","4156818","null","","",""
"602","<p>How strong was your <strong>aha-experience</strong>?</p>","","aha","html-keyboard-response","187","536818","0.0-2.0-5.30","bp","1","pretest","true","4156818","50","../img/tt/1100tt.jpg","","2"
"null","<div style=""font-size:60px;""> </div>","","fixation","html-keyboard-response","188","537034","0.0-2.0-0.31","bp","1","pretest","true","4156818","null","","",""
"null","../img/tt/1227tt.jpg","","mooney1","image-keyboard-response","189","540035","0.0-2.0-1.31","bp","1","pretest","true","4156818","null","../img/tt/1227tt.jpg","",""
"1766","<p></p>","","recognized","html-keyboard-response","190","541802","0.0-2.0-2.31","bp","1","pretest","true","4156818","78","../img/tt/1227tt.jpg","n",""
"null","../img/gs/1227gs.jpg","","solution","image-keyboard-response","191","543804","0.0-2.0-3.31","bp","1","pretest","true","4156818","null","","",""
"null","../img/tt/1227tt.jpg","","mooney2","image-keyboard-response","192","545806","0.0-2.0-4.31","bp","1","pretest","true","4156818","null","","",""
"1371","<p>How strong was your <strong>aha-experience</strong>?</p>","","aha","html-keyboard-response","193","547177","0.0-2.0-5.31","bp","1","pretest","true","4156818","50","../img/tt/1227tt.jpg","","2"
"null","<div style=""font-size:60px;""> </div>","","fixation","html-keyboard-response","194","547378","0.0-2.0-0.32","bp","1","pretest","true","4156818","null","","",""
"null","../img/tt/1184tt.jpg","","mooney1","image-keyboard-response","195","550380","0.0-2.0-1.32","bp","1","pretest","true","4156818","null","../img/tt/1184tt.jpg","",""
"2086","<p></p>","","recognized","html-keyboard-response","196","552466","0.0-2.0-2.32","bp","1","pretest","true","4156818","89","../img/tt/1184tt.jpg","y",""
"null","../img/gs/1184gs.jpg","","solution","image-keyboard-response","197","554469","0.0-2.0-3.32","bp","1","pretest","true","4156818","null","","",""
"null","../img/tt/1184tt.jpg","","mooney2","image-keyboard-response","198","556471","0.0-2.0-4.32","bp","1","pretest","true","4156818","null","","",""
"1121","<p>How strong was your <strong>aha-experience</strong>?</p>","","aha","html-keyboard-response","199","557594","0.0-2.0-5.32","bp","1","pretest","true","4156818","53","../img/tt/1184tt.jpg","","5"
"null","<div style=""font-size:60px;""> </div>","","fixation","html-keyboard-response","200","557795","0.0-2.0-0.33","bp","1","pretest","true","4156818","null","","",""
"null","../img/tt/1165tt.jpg","","mooney1","image-keyboard-response","201","560803","0.0-2.0-1.33","bp","1","pretest","true","4156818","null","../img/tt/1165tt.jpg","",""
"1886","<p></p>","","recognized","html-keyboard-response","202","562689","0.0-2.0-2.33","bp","1","pretest","true","4156818","89","../img/tt/1165tt.jpg","y",""
"null","../img/gs/1165gs.jpg","","solution","image-keyboard-response","203","564703","0.0-2.0-3.33","bp","1","pretest","true","4156818","null","","",""
"null","../img/tt/1165tt.jpg","","mooney2","image-keyboard-response","204","566710","0.0-2.0-4.33","bp","1","pretest","true","4156818","null","","",""
"1234","<p>How strong was your <strong>aha-experience</strong>?</p>","","aha","html-keyboard-response","205","567946","0.0-2.0-5.33","bp","1","pretest","true","4156818","54","../img/tt/1165tt.jpg","","6"
"null","<div style=""font-size:60px;""> </div>","","fixation","html-keyboard-response","206","568147","0.0-2.0-0.34","bp","1","pretest","true","4156818","null","","",""
"null","../img/tt/1084tt.jpg","","mooney1","image-keyboard-response","207","571150","0.0-2.0-1.34","bp","1","pretest","true","4156818","null","../img/tt/1084tt.jpg","",""
"1899","<p></p>","","recognized","html-keyboard-response","208","573050","0.0-2.0-2.34","bp","1","pretest","true","4156818","78","../img/tt/1084tt.jpg","n",""
"null","../img/gs/1084gs.jpg","","solution","image-keyboard-response","209","575059","0.0-2.0-3.34","bp","1","pretest","true","4156818","null","","",""
"null","../img/tt/1084tt.jpg","","mooney2","image-keyboard-response","210","577060","0.0-2.0-4.34","bp","1","pretest","true","4156818","null","","",""
"700","<p>How strong was your <strong>aha-experience</strong>?</p>","","aha","html-keyboard-response","211","577761","0.0-2.0-5.34","bp","1","pretest","true","4156818","50","../img/tt/1084tt.jpg","","2"
"null","<div style=""font-size:60px;""> </div>","","fixation","html-keyboard-response","212","577962","0.0-2.0-0.35","bp","1","pretest","true","4156818","null","","",""
"null","../img/tt/1089tt.jpg","","mooney1","image-keyboard-response","213","580965","0.0-2.0-1.35","bp","1","pretest","true","4156818","null","../img/tt/1089tt.jpg","",""
"1620","<p></p>","","recognized","html-keyboard-response","214","582586","0.0-2.0-2.35","bp","1","pretest","true","4156818","89","../img/tt/1089tt.jpg","y",""
"null","../img/gs/1089gs.jpg","","solution","image-keyboard-response","215","584588","0.0-2.0-3.35","bp","1","pretest","true","4156818","null","","",""
"null","../img/tt/1089tt.jpg","","mooney2","image-keyboard-response","216","586590","0.0-2.0-4.35","bp","1","pretest","true","4156818","null","","",""
"2707","<p>How strong was your <strong>aha-experience</strong>?</p>","","aha","html-keyboard-response","217","589298","0.0-2.0-5.35","bp","1","pretest","true","4156818","53","../img/tt/1089tt.jpg","","5"
"null","<div style=""font-size:60px;""> </div>","","fixation","html-keyboard-response","218","589511","0.0-2.0-0.36","bp","1","pretest","true","4156818","null","","",""
"null","../img/tt/1167tt.jpg","","mooney1","image-keyboard-response","219","592513","0.0-2.0-1.36","bp","1","pretest","true","4156818","null","../img/tt/1167tt.jpg","",""
"736","<p></p>","","recognized","html-keyboard-response","220","593250","0.0-2.0-2.36","bp","1","pretest","true","4156818","89","../img/tt/1167tt.jpg","y",""
"null","../img/gs/1167gs.jpg","","solution","image-keyboard-response","221","595252","0.0-2.0-3.36","bp","1","pretest","true","4156818","null","","",""
"null","../img/tt/1167tt.jpg","","mooney2","image-keyboard-response","222","597269","0.0-2.0-4.36","bp","1","pretest","true","4156818","null","","",""
"1788","<p>How strong was your <strong>aha-experience</strong>?</p>","","aha","html-keyboard-response","223","599058","0.0-2.0-5.36","bp","1","pretest","true","4156818","53","../img/tt/1167tt.jpg","","5"
"null","<div style=""font-size:60px;""> </div>","","fixation","html-keyboard-response","224","599260","0.0-2.0-0.37","bp","1","pretest","true","4156818","null","","",""
"null","../img/tt/1269tt.jpg","","mooney1","image-keyboard-response","225","602263","0.0-2.0-1.37","bp","1","pretest","true","4156818","null","../img/tt/1269tt.jpg","",""
"82","<p></p>","","recognized","html-keyboard-response","226","602346","0.0-2.0-2.37","bp","1","pretest","true","4156818","89","../img/tt/1269tt.jpg","y",""
"null","../img/gs/1269gs.jpg","","solution","image-keyboard-response","227","604350","0.0-2.0-3.37","bp","1","pretest","true","4156818","null","","",""
"null","../img/tt/1269tt.jpg","","mooney2","image-keyboard-response","228","606352","0.0-2.0-4.37","bp","1","pretest","true","4156818","null","","",""
"857","<p>How strong was your <strong>aha-experience</strong>?</p>","","aha","html-keyboard-response","229","607210","0.0-2.0-5.37","bp","1","pretest","true","4156818","51","../img/tt/1269tt.jpg","","3"
"null","<div style=""font-size:60px;""> </div>","","fixation","html-keyboard-response","230","607412","0.0-2.0-0.38","bp","1","pretest","true","4156818","null","","",""
"null","../img/tt/1040tt.jpg","","mooney1","image-keyboard-response","231","610417","0.0-2.0-1.38","bp","1","pretest","true","4156818","null","../img/tt/1040tt.jpg","",""
"1168","<p></p>","","recognized","html-keyboard-response","232","611586","0.0-2.0-2.38","bp","1","pretest","true","4156818","89","../img/tt/1040tt.jpg","y",""
"null","../img/gs/1040gs.jpg","","solution","image-keyboard-response","233","613603","0.0-2.0-3.38","bp","1","pretest","true","4156818","null","","",""
"null","../img/tt/1040tt.jpg","","mooney2","image-keyboard-response","234","615615","0.0-2.0-4.38","bp","1","pretest","true","4156818","null","","",""
"594","<p>How strong was your <strong>aha-experience</strong>?</p>","","aha","html-keyboard-response","235","616210","0.0-2.0-5.38","bp","1","pretest","true","4156818","52","../img/tt/1040tt.jpg","","4"
"null","<div style=""font-size:60px;""> </div>","","fixation","html-keyboard-response","236","616424","0.0-2.0-0.39","bp","1","pretest","true","4156818","null","","",""
"null","../img/tt/1190tt.jpg","","mooney1","image-keyboard-response","237","619429","0.0-2.0-1.39","bp","1","pretest","true","4156818","null","../img/tt/1190tt.jpg","",""
"131","<p></p>","","recognized","html-keyboard-response","238","619562","0.0-2.0-2.39","bp","1","pretest","true","4156818","89","../img/tt/1190tt.jpg","y",""
"null","../img/gs/1190gs.jpg","","solution","image-keyboard-response","239","621566","0.0-2.0-3.39","bp","1","pretest","true","4156818","null","","",""
"null","../img/tt/1190tt.jpg","","mooney2","image-keyboard-response","240","623581","0.0-2.0-4.39","bp","1","pretest","true","4156818","null","","",""
"11","<p>How strong was your <strong>aha-experience</strong>?</p>","","aha","html-keyboard-response","241","623594","0.0-2.0-5.39","bp","1","pretest","true","4156818","53","../img/tt/1190tt.jpg","","5"
"null","<div style=""font-size:60px;""> </div>","","fixation","html-keyboard-response","242","623808","0.0-2.0-0.40","bp","1","pretest","true","4156818","null","","",""
"null","../img/tt/009tt.jpg","","mooney1","image-keyboard-response","243","626824","0.0-2.0-1.40","bp","1","pretest","true","4156818","null","../img/tt/009tt.jpg","",""
"776","<p></p>","","recognized","html-keyboard-response","244","627602","0.0-2.0-2.40","bp","1","pretest","true","4156818","78","../img/tt/009tt.jpg","n",""
"null","../img/gs/009gs.jpg","","solution","image-keyboard-response","245","629604","0.0-2.0-3.40","bp","1","pretest","true","4156818","null","","",""
"null","../img/tt/009tt.jpg","","mooney2","image-keyboard-response","246","631606","0.0-2.0-4.40","bp","1","pretest","true","4156818","null","","",""
"3923","<p>How strong was your <strong>aha-experience</strong>?</p>","","aha","html-keyboard-response","247","635530","0.0-2.0-5.40","bp","1","pretest","true","4156818","50","../img/tt/009tt.jpg","","2"
"null","<div style=""font-size:60px;""> </div>","","fixation","html-keyboard-response","248","635732","0.0-2.0-0.41","bp","1","pretest","true","4156818","null","","",""
"null","../img/tt/1004tt.jpg","","mooney1","image-keyboard-response","249","638735","0.0-2.0-1.41","bp","1","pretest","true","4156818","null","../img/tt/1004tt.jpg","",""
"465","<p></p>","","recognized","html-keyboard-response","250","639202","0.0-2.0-2.41","bp","1","pretest","true","4156818","78","../img/tt/1004tt.jpg","n",""
"null","../img/gs/1004gs.jpg","","solution","image-keyboard-response","251","641204","0.0-2.0-3.41","bp","1","pretest","true","4156818","null","","",""
"null","../img/tt/1004tt.jpg","","mooney2","image-keyboard-response","252","643206","0.0-2.0-4.41","bp","1","pretest","true","4156818","null","","",""
"851","<p>How strong was your <strong>aha-experience</strong>?</p>","","aha","html-keyboard-response","253","644058","0.0-2.0-5.41","bp","1","pretest","true","4156818","50","../img/tt/1004tt.jpg","","2"
"null","<div style=""font-size:60px;""> </div>","","fixation","html-keyboard-response","254","644259","0.0-2.0-0.42","bp","1","pretest","true","4156818","null","","",""
"null","../img/tt/052tt.jpg","","mooney1","image-keyboard-response","255","647266","0.0-2.0-1.42","bp","1","pretest","true","4156818","null","../img/tt/052tt.jpg","",""
"1719","<p></p>","","recognized","html-keyboard-response","256","648986","0.0-2.0-2.42","bp","1","pretest","true","4156818","78","../img/tt/052tt.jpg","n",""
"null","../img/gs/052gs.jpg","","solution","image-keyboard-response","257","650989","0.0-2.0-3.42","bp","1","pretest","true","4156818","null","","",""
"null","../img/tt/052tt.jpg","","mooney2","image-keyboard-response","258","652993","0.0-2.0-4.42","bp","1","pretest","true","4156818","null","","",""
"448","<p>How strong was your <strong>aha-experience</strong>?</p>","","aha","html-keyboard-response","259","653442","0.0-2.0-5.42","bp","1","pretest","true","4156818","51","../img/tt/052tt.jpg","","3"
"null","<div style=""font-size:60px;""> </div>","","fixation","html-keyboard-response","260","653653","0.0-2.0-0.43","bp","1","pretest","true","4156818","null","","",""
"null","../img/tt/1141tt.jpg","","mooney1","image-keyboard-response","261","656655","0.0-2.0-1.43","bp","1","pretest","true","4156818","null","../img/tt/1141tt.jpg","",""
"1130","<p></p>","","recognized","html-keyboard-response","262","657786","0.0-2.0-2.43","bp","1","pretest","true","4156818","89","../img/tt/1141tt.jpg","y",""
"null","../img/gs/1141gs.jpg","","solution","image-keyboard-response","263","659788","0.0-2.0-3.43","bp","1","pretest","true","4156818","null","","",""
"null","../img/tt/1141tt.jpg","","mooney2","image-keyboard-response","264","661790","0.0-2.0-4.43","bp","1","pretest","true","4156818","null","","",""
"1730","<p>How strong was your <strong>aha-experience</strong>?</p>","","aha","html-keyboard-response","265","663522","0.0-2.0-5.43","bp","1","pretest","true","4156818","50","../img/tt/1141tt.jpg","","2"
"null","<div style=""font-size:60px;""> </div>","","fixation","html-keyboard-response","266","663723","0.0-2.0-0.44","bp","1","pretest","true","4156818","null","","",""
"null","../img/tt/1164tt.jpg","","mooney1","image-keyboard-response","267","666725","0.0-2.0-1.44","bp","1","pretest","true","4156818","null","../img/tt/1164tt.jpg","",""
"1543","<p></p>","","recognized","html-keyboard-response","268","668269","0.0-2.0-2.44","bp","1","pretest","true","4156818","89","../img/tt/1164tt.jpg","y",""
"null","../img/gs/1164gs.jpg","","solution","image-keyboard-response","269","670283","0.0-2.0-3.44","bp","1","pretest","true","4156818","null","","",""
"null","../img/tt/1164tt.jpg","","mooney2","image-keyboard-response","270","672285","0.0-2.0-4.44","bp","1","pretest","true","4156818","null","","",""
"624","<p>How strong was your <strong>aha-experience</strong>?</p>","","aha","html-keyboard-response","271","672910","0.0-2.0-5.44","bp","1","pretest","true","4156818","52","../img/tt/1164tt.jpg","","4"
"null","<div style=""font-size:60px;""> </div>","","fixation","html-keyboard-response","272","673111","0.0-2.0-0.45","bp","1","pretest","true","4156818","null","","",""
"null","../img/tt/1129tt.jpg","","mooney1","image-keyboard-response","273","676115","0.0-2.0-1.45","bp","1","pretest","true","4156818","null","../img/tt/1129tt.jpg","",""
"633","<p></p>","","recognized","html-keyboard-response","274","676749","0.0-2.0-2.45","bp","1","pretest","true","4156818","89","../img/tt/1129tt.jpg","y",""
"null","../img/gs/1129gs.jpg","","solution","image-keyboard-response","275","678753","0.0-2.0-3.45","bp","1","pretest","true","4156818","null","","",""
"null","../img/tt/1129tt.jpg","","mooney2","image-keyboard-response","276","680763","0.0-2.0-4.45","bp","1","pretest","true","4156818","null","","",""
"3953","<p>How strong was your <strong>aha-experience</strong>?</p>","","aha","html-keyboard-response","277","684718","0.0-2.0-5.45","bp","1","pretest","true","4156818","52","../img/tt/1129tt.jpg","","4"
"null","<div style=""font-size:60px;""> </div>","","fixation","html-keyboard-response","278","684919","0.0-2.0-0.46","bp","1","pretest","true","4156818","null","","",""
"null","../img/tt/1139tt.jpg","","mooney1","image-keyboard-response","279","687922","0.0-2.0-1.46","bp","1","pretest","true","4156818","null","../img/tt/1139tt.jpg","",""
"2122","<p></p>","","recognized","html-keyboard-response","280","690045","0.0-2.0-2.46","bp","1","pretest","true","4156818","78","../img/tt/1139tt.jpg","n",""
"null","../img/gs/1139gs.jpg","","solution","image-keyboard-response","281","692048","0.0-2.0-3.46","bp","1","pretest","true","4156818","null","","",""
"null","../img/tt/1139tt.jpg","","mooney2","image-keyboard-response","282","694062","0.0-2.0-4.46","bp","1","pretest","true","4156818","null","","",""
"638","<p>How strong was your <strong>aha-experience</strong>?</p>","","aha","html-keyboard-response","283","694701","0.0-2.0-5.46","bp","1","pretest","true","4156818","50","../img/tt/1139tt.jpg","","2"
"null","<div style=""font-size:60px;""> </div>","","fixation","html-keyboard-response","284","694904","0.0-2.0-0.47","bp","1","pretest","true","4156818","null","","",""
"null","../img/tt/1102tt.jpg","","mooney1","image-keyboard-response","285","697906","0.0-2.0-1.47","bp","1","pretest","true","4156818","null","../img/tt/1102tt.jpg","",""
"1170","<p></p>","","recognized","html-keyboard-response","286","699078","0.0-2.0-2.47","bp","1","pretest","true","4156818","78","../img/tt/1102tt.jpg","n",""
"null","../img/gs/1102gs.jpg","","solution","image-keyboard-response","287","701093","0.0-2.0-3.47","bp","1","pretest","true","4156818","null","","",""
"null","../img/tt/1102tt.jpg","","mooney2","image-keyboard-response","288","703100","0.0-2.0-4.47","bp","1","pretest","true","4156818","null","","",""
"177","<p>How strong was your <strong>aha-experience</strong>?</p>","","aha","html-keyboard-response","289","703277","0.0-2.0-5.47","bp","1","pretest","true","4156818","50","../img/tt/1102tt.jpg","","2"
"null","<div style=""font-size:60px;""> </div>","","fixation","html-keyboard-response","290","703486","0.0-2.0-0.48","bp","1","pretest","true","4156818","null","","",""
"null","../img/tt/1281tt.jpg","","mooney1","image-keyboard-response","291","706489","0.0-2.0-1.48","bp","1","pretest","true","4156818","null","../img/tt/1281tt.jpg","",""
"1548","<p></p>","","recognized","html-keyboard-response","292","708037","0.0-2.0-2.48","bp","1","pretest","true","4156818","78","../img/tt/1281tt.jpg","n",""
"null","../img/gs/1281gs.jpg","","solution","image-keyboard-response","293","710045","0.0-2.0-3.48","bp","1","pretest","true","4156818","null","","",""
"null","../img/tt/1281tt.jpg","","mooney2","image-keyboard-response","294","712047","0.0-2.0-4.48","bp","1","pretest","true","4156818","null","","",""
"997","<p>How strong was your <strong>aha-experience</strong>?</p>","","aha","html-keyboard-response","295","713046","0.0-2.0-5.48","bp","1","pretest","true","4156818","51","../img/tt/1281tt.jpg","","3"
"null","<div style=""font-size:60px;""> </div>","","fixation","html-keyboard-response","296","713248","0.0-2.0-0.49","bp","1","pretest","true","4156818","null","","",""
"null","../img/tt/1223tt.jpg","","mooney1","image-keyboard-response","297","716264","0.0-2.0-1.49","bp","1","pretest","true","4156818","null","../img/tt/1223tt.jpg","",""
"725","<p></p>","","recognized","html-keyboard-response","298","716989","0.0-2.0-2.49","bp","1","pretest","true","4156818","89","../img/tt/1223tt.jpg","y",""
"null","../img/gs/1223gs.jpg","","solution","image-keyboard-response","299","718993","0.0-2.0-3.49","bp","1","pretest","true","4156818","null","","",""
"null","../img/tt/1223tt.jpg","","mooney2","image-keyboard-response","300","720995","0.0-2.0-4.49","bp","1","pretest","true","4156818","null","","",""
"945","<p>How strong was your <strong>aha-experience</strong>?</p>","","aha","html-keyboard-response","301","721941","0.0-2.0-5.49","bp","1","pretest","true","4156818","52","../img/tt/1223tt.jpg","","4"
"null","<div style=""font-size:60px;""> </div>","","fixation","html-keyboard-response","302","722151","0.0-2.0-0.50","bp","1","pretest","true","4156818","null","","",""
"null","../img/tt/1280tt.jpg","","mooney1","image-keyboard-response","303","725154","0.0-2.0-1.50","bp","1","pretest","true","4156818","null","../img/tt/1280tt.jpg","",""
"6279","<p></p>","","recognized","html-keyboard-response","304","731434","0.0-2.0-2.50","bp","1","pretest","true","4156818","78","../img/tt/1280tt.jpg","n",""
"null","../img/gs/1280gs.jpg","","solution","image-keyboard-response","305","733449","0.0-2.0-3.50","bp","1","pretest","true","4156818","null","","",""
"null","../img/tt/1280tt.jpg","","mooney2","image-keyboard-response","306","735451","0.0-2.0-4.50","bp","1","pretest","true","4156818","null","","",""
"2861","<p>How strong was your <strong>aha-experience</strong>?</p>","","aha","html-keyboard-response","307","738314","0.0-2.0-5.50","bp","1","pretest","true","4156818","52","../img/tt/1280tt.jpg","","4"
"null","<div style=""font-size:60px;""> </div>","","fixation","html-keyboard-response","308","738516","0.0-2.0-0.51","bp","1","pretest","true","4156818","null","","",""
"null","../img/tt/1101tt.jpg","","mooney1","image-keyboard-response","309","741519","0.0-2.0-1.51","bp","1","pretest","true","4156818","null","../img/tt/1101tt.jpg","",""
"1178","<p></p>","","recognized","html-keyboard-response","310","742698","0.0-2.0-2.51","bp","1","pretest","true","4156818","78","../img/tt/1101tt.jpg","n",""
"null","../img/gs/1101gs.jpg","","solution","image-keyboard-response","311","744702","0.0-2.0-3.51","bp","1","pretest","true","4156818","null","","",""
"null","../img/tt/1101tt.jpg","","mooney2","image-keyboard-response","312","746705","0.0-2.0-4.51","bp","1","pretest","true","4156818","null","","",""
"496","<p>How strong was your <strong>aha-experience</strong>?</p>","","aha","html-keyboard-response","313","747202","0.0-2.0-5.51","bp","1","pretest","true","4156818","50","../img/tt/1101tt.jpg","","2"
"null","<div style=""font-size:60px;""> </div>","","fixation","html-keyboard-response","314","747403","0.0-2.0-0.52","bp","1","pretest","true","4156818","null","","",""
"null","../img/tt/1071tt.jpg","","mooney1","image-keyboard-response","315","750406","0.0-2.0-1.52","bp","1","pretest","true","4156818","null","../img/tt/1071tt.jpg","",""
"4692","<p></p>","","recognized","html-keyboard-response","316","755098","0.0-2.0-2.52","bp","1","pretest","true","4156818","78","../img/tt/1071tt.jpg","n",""
"null","../img/gs/1071gs.jpg","","solution","image-keyboard-response","317","757100","0.0-2.0-3.52","bp","1","pretest","true","4156818","null","","",""
"null","../img/tt/1071tt.jpg","","mooney2","image-keyboard-response","318","759102","0.0-2.0-4.52","bp","1","pretest","true","4156818","null","","",""
"1108","<p>How strong was your <strong>aha-experience</strong>?</p>","","aha","html-keyboard-response","319","760210","0.0-2.0-5.52","bp","1","pretest","true","4156818","50","../img/tt/1071tt.jpg","","2"
"null","<div style=""font-size:60px;""> </div>","","fixation","html-keyboard-response","320","760411","0.0-2.0-0.53","bp","1","pretest","true","4156818","null","","",""
"null","../img/tt/1222tt.jpg","","mooney1","image-keyboard-response","321","763414","0.0-2.0-1.53","bp","1","pretest","true","4156818","null","../img/tt/1222tt.jpg","",""
"612","<p></p>","","recognized","html-keyboard-response","322","764026","0.0-2.0-2.53","bp","1","pretest","true","4156818","78","../img/tt/1222tt.jpg","n",""
"null","../img/gs/1222gs.jpg","","solution","image-keyboard-response","323","766030","0.0-2.0-3.53","bp","1","pretest","true","4156818","null","","",""
"null","../img/tt/1222tt.jpg","","mooney2","image-keyboard-response","324","768032","0.0-2.0-4.53","bp","1","pretest","true","4156818","null","","",""
"1545","<p>How strong was your <strong>aha-experience</strong>?</p>","","aha","html-keyboard-response","325","769578","0.0-2.0-5.53","bp","1","pretest","true","4156818","49","../img/tt/1222tt.jpg","","1"
"null","<div style=""font-size:60px;""> </div>","","fixation","html-keyboard-response","326","769790","0.0-2.0-0.54","bp","1","pretest","true","4156818","null","","",""
"null","../img/tt/1079tt.jpg","","mooney1","image-keyboard-response","327","772793","0.0-2.0-1.54","bp","1","pretest","true","4156818","null","../img/tt/1079tt.jpg","",""
"992","<p></p>","","recognized","html-keyboard-response","328","773786","0.0-2.0-2.54","bp","1","pretest","true","4156818","89","../img/tt/1079tt.jpg","y",""
"null","../img/gs/1079gs.jpg","","solution","image-keyboard-response","329","775790","0.0-2.0-3.54","bp","1","pretest","true","4156818","null","","",""
"null","../img/tt/1079tt.jpg","","mooney2","image-keyboard-response","330","777792","0.0-2.0-4.54","bp","1","pretest","true","4156818","null","","",""
"1681","<p>How strong was your <strong>aha-experience</strong>?</p>","","aha","html-keyboard-response","331","779474","0.0-2.0-5.54","bp","1","pretest","true","4156818","54","../img/tt/1079tt.jpg","","6"
"null","<div style=""font-size:60px;""> </div>","","fixation","html-keyboard-response","332","779677","0.0-2.0-0.55","bp","1","pretest","true","4156818","null","","",""
"null","../img/tt/1186tt.jpg","","mooney1","image-keyboard-response","333","782680","0.0-2.0-1.55","bp","1","pretest","true","4156818","null","../img/tt/1186tt.jpg","",""
"1258","<p></p>","","recognized","html-keyboard-response","334","783938","0.0-2.0-2.55","bp","1","pretest","true","4156818","78","../img/tt/1186tt.jpg","n",""
"null","../img/gs/1186gs.jpg","","solution","image-keyboard-response","335","785948","0.0-2.0-3.55","bp","1","pretest","true","4156818","null","","",""
"null","../img/tt/1186tt.jpg","","mooney2","image-keyboard-response","336","787950","0.0-2.0-4.55","bp","1","pretest","true","4156818","null","","",""
"1731","<p>How strong was your <strong>aha-experience</strong>?</p>","","aha","html-keyboard-response","337","789682","0.0-2.0-5.55","bp","1","pretest","true","4156818","53","../img/tt/1186tt.jpg","","5"
"null","<div style=""font-size:60px;""> </div>","","fixation","html-keyboard-response","338","789888","0.0-2.0-0.56","bp","1","pretest","true","4156818","null","","",""
"null","../img/tt/1039tt.jpg","","mooney1","image-keyboard-response","339","792892","0.0-2.0-1.56","bp","1","pretest","true","4156818","null","../img/tt/1039tt.jpg","",""
"878","<p></p>","","recognized","html-keyboard-response","340","793770","0.0-2.0-2.56","bp","1","pretest","true","4156818","89","../img/tt/1039tt.jpg","y",""
"null","../img/gs/1039gs.jpg","","solution","image-keyboard-response","341","795786","0.0-2.0-3.56","bp","1","pretest","true","4156818","null","","",""
"null","../img/tt/1039tt.jpg","","mooney2","image-keyboard-response","342","797788","0.0-2.0-4.56","bp","1","pretest","true","4156818","null","","",""
"1437","<p>How strong was your <strong>aha-experience</strong>?</p>","","aha","html-keyboard-response","343","799227","0.0-2.0-5.56","bp","1","pretest","true","4156818","53","../img/tt/1039tt.jpg","","5"
"null","<div style=""font-size:60px;""> </div>","","fixation","html-keyboard-response","344","799439","0.0-2.0-0.57","bp","1","pretest","true","4156818","null","","",""
"null","../img/tt/1289tt.jpg","","mooney1","image-keyboard-response","345","802441","0.0-2.0-1.57","bp","1","pretest","true","4156818","null","../img/tt/1289tt.jpg","",""
"552","<p></p>","","recognized","html-keyboard-response","346","802994","0.0-2.0-2.57","bp","1","pretest","true","4156818","89","../img/tt/1289tt.jpg","y",""
"null","../img/gs/1289gs.jpg","","solution","image-keyboard-response","347","805010","0.0-2.0-3.57","bp","1","pretest","true","4156818","null","","",""
"null","../img/tt/1289tt.jpg","","mooney2","image-keyboard-response","348","807012","0.0-2.0-4.57","bp","1","pretest","true","4156818","null","","",""
"1485","<p>How strong was your <strong>aha-experience</strong>?</p>","","aha","html-keyboard-response","349","808498","0.0-2.0-5.57","bp","1","pretest","true","4156818","51","../img/tt/1289tt.jpg","","3"
"null","<div style=""font-size:60px;""> </div>","","fixation","html-keyboard-response","350","808700","0.0-2.0-0.58","bp","1","pretest","true","4156818","null","","",""
"null","../img/tt/1156tt.jpg","","mooney1","image-keyboard-response","351","811703","0.0-2.0-1.58","bp","1","pretest","true","4156818","null","../img/tt/1156tt.jpg","",""
"1531","<p></p>","","recognized","html-keyboard-response","352","813235","0.0-2.0-2.58","bp","1","pretest","true","4156818","78","../img/tt/1156tt.jpg","n",""
"null","../img/gs/1156gs.jpg","","solution","image-keyboard-response","353","815239","0.0-2.0-3.58","bp","1","pretest","true","4156818","null","","",""
"null","../img/tt/1156tt.jpg","","mooney2","image-keyboard-response","354","817241","0.0-2.0-4.58","bp","1","pretest","true","4156818","null","","",""
"1472","<p>How strong was your <strong>aha-experience</strong>?</p>","","aha","html-keyboard-response","355","818714","0.0-2.0-5.58","bp","1","pretest","true","4156818","50","../img/tt/1156tt.jpg","","2"
"null","<div style=""font-size:60px;""> </div>","","fixation","html-keyboard-response","356","818917","0.0-2.0-0.59","bp","1","pretest","true","4156818","null","","",""
"null","../img/tt/1249tt.jpg","","mooney1","image-keyboard-response","357","821930","0.0-2.0-1.59","bp","1","pretest","true","4156818","null","../img/tt/1249tt.jpg","",""
"1630","<p></p>","","recognized","html-keyboard-response","358","823561","0.0-2.0-2.59","bp","1","pretest","true","4156818","78","../img/tt/1249tt.jpg","n",""
"null","../img/gs/1249gs.jpg","","solution","image-keyboard-response","359","825562","0.0-2.0-3.59","bp","1","pretest","true","4156818","null","","",""
"null","../img/tt/1249tt.jpg","","mooney2","image-keyboard-response","360","827566","0.0-2.0-4.59","bp","1","pretest","true","4156818","null","","",""
"755","<p>How strong was your <strong>aha-experience</strong>?</p>","","aha","html-keyboard-response","361","828322","0.0-2.0-5.59","bp","1","pretest","true","4156818","49","../img/tt/1249tt.jpg","","1"
"null","<div style=""font-size:60px;""> </div>","","fixation","html-keyboard-response","362","828534","0.0-2.0-0.60","bp","1","pretest","true","4156818","null","","",""
"null","../img/tt/1031tt.jpg","","mooney1","image-keyboard-response","363","831536","0.0-2.0-1.60","bp","1","pretest","true","4156818","null","../img/tt/1031tt.jpg","",""
"657","<p></p>","","recognized","html-keyboard-response","364","832194","0.0-2.0-2.60","bp","1","pretest","true","4156818","89","../img/tt/1031tt.jpg","y",""
"null","../img/gs/1031gs.jpg","","solution","image-keyboard-response","365","834197","0.0-2.0-3.60","bp","1","pretest","true","4156818","null","","",""
"null","../img/tt/1031tt.jpg","","mooney2","image-keyboard-response","366","836213","0.0-2.0-4.60","bp","1","pretest","true","4156818","null","","",""
"547","<p>How strong was your <strong>aha-experience</strong>?</p>","","aha","html-keyboard-response","367","836763","0.0-2.0-5.60","bp","1","pretest","true","4156818","51","../img/tt/1031tt.jpg","","3"
"null","<div style=""font-size:60px;""> </div>","","fixation","html-keyboard-response","368","836965","0.0-2.0-0.61","bp","1","pretest","true","4156818","null","","",""
"null","../img/tt/1105tt.jpg","","mooney1","image-keyboard-response","369","839971","0.0-2.0-1.61","bp","1","pretest","true","4156818","null","../img/tt/1105tt.jpg","",""
"3286","<p></p>","","recognized","html-keyboard-response","370","843258","0.0-2.0-2.61","bp","1","pretest","true","4156818","78","../img/tt/1105tt.jpg","n",""
"null","../img/gs/1105gs.jpg","","solution","image-keyboard-response","371","845261","0.0-2.0-3.61","bp","1","pretest","true","4156818","null","","",""
"null","../img/tt/1105tt.jpg","","mooney2","image-keyboard-response","372","847263","0.0-2.0-4.61","bp","1","pretest","true","4156818","null","","",""
"2594","<p>How strong was your <strong>aha-experience</strong>?</p>","","aha","html-keyboard-response","373","849858","0.0-2.0-5.61","bp","1","pretest","true","4156818","51","../img/tt/1105tt.jpg","","3"
"null","<div style=""font-size:60px;""> </div>","","fixation","html-keyboard-response","374","850060","0.0-2.0-0.62","bp","1","pretest","true","4156818","null","","",""
"null","../img/tt/062tt.jpg","","mooney1","image-keyboard-response","375","853071","0.0-2.0-1.62","bp","1","pretest","true","4156818","null","../img/tt/062tt.jpg","",""
"987","<p></p>","","recognized","html-keyboard-response","376","854058","0.0-2.0-2.62","bp","1","pretest","true","4156818","78","../img/tt/062tt.jpg","n",""
"null","../img/gs/062gs.jpg","","solution","image-keyboard-response","377","856061","0.0-2.0-3.62","bp","1","pretest","true","4156818","null","","",""
"null","../img/tt/062tt.jpg","","mooney2","image-keyboard-response","378","858063","0.0-2.0-4.62","bp","1","pretest","true","4156818","null","","",""
"490","<p>How strong was your <strong>aha-experience</strong>?</p>","","aha","html-keyboard-response","379","858554","0.0-2.0-5.62","bp","1","pretest","true","4156818","50","../img/tt/062tt.jpg","","2"
"null","<div style=""font-size:60px;""> </div>","","fixation","html-keyboard-response","380","858756","0.0-2.0-0.63","bp","1","pretest","true","4156818","null","","",""
"null","../img/tt/120tt.jpg","","mooney1","image-keyboard-response","381","861764","0.0-2.0-1.63","bp","1","pretest","true","4156818","null","../img/tt/120tt.jpg","",""
"1021","<p></p>","","recognized","html-keyboard-response","382","862786","0.0-2.0-2.63","bp","1","pretest","true","4156818","78","../img/tt/120tt.jpg","n",""
"null","../img/gs/120gs.jpg","","solution","image-keyboard-response","383","864803","0.0-2.0-3.63","bp","1","pretest","true","4156818","null","","",""
"null","../img/tt/120tt.jpg","","mooney2","image-keyboard-response","384","866817","0.0-2.0-4.63","bp","1","pretest","true","4156818","null","","",""
"592","<p>How strong was your <strong>aha-experience</strong>?</p>","","aha","html-keyboard-response","385","867410","0.0-2.0-5.63","bp","1","pretest","true","4156818","50","../img/tt/120tt.jpg","","2"
"null","<div style=""font-size:60px;""> </div>","","fixation","html-keyboard-response","386","867613","0.0-2.0-0.64","bp","1","pretest","true","4156818","null","","",""
"null","../img/tt/1127tt.jpg","","mooney1","image-keyboard-response","387","870614","0.0-2.0-1.64","bp","1","pretest","true","4156818","null","../img/tt/1127tt.jpg","",""
"267","<p></p>","","recognized","html-keyboard-response","388","870882","0.0-2.0-2.64","bp","1","pretest","true","4156818","78","../img/tt/1127tt.jpg","n",""
"null","../img/gs/1127gs.jpg","","solution","image-keyboard-response","389","872885","0.0-2.0-3.64","bp","1","pretest","true","4156818","null","","",""
"null","../img/tt/1127tt.jpg","","mooney2","image-keyboard-response","390","875852","0.0-2.0-4.64","bp","1","pretest","true","4156818","null","","",""
"55038","<p>How strong was your <strong>aha-experience</strong>?</p>","","aha","html-keyboard-response","391","930891","0.0-2.0-5.64","bp","1","pretest","true","4156818","50","../img/tt/1127tt.jpg","","2"
"null","<div style=""font-size:60px;""> </div>","","fixation","html-keyboard-response","392","931106","0.0-2.0-0.65","bp","1","pretest","true","4156818","null","","",""
"null","../img/tt/1007tt.jpg","","mooney1","image-keyboard-response","393","934113","0.0-2.0-1.65","bp","1","pretest","true","4156818","null","../img/tt/1007tt.jpg","",""
"528","<p></p>","","recognized","html-keyboard-response","394","934642","0.0-2.0-2.65","bp","1","pretest","true","4156818","89","../img/tt/1007tt.jpg","y",""
"null","../img/gs/1007gs.jpg","","solution","image-keyboard-response","395","936645","0.0-2.0-3.65","bp","1","pretest","true","4156818","null","","",""
"null","../img/tt/1007tt.jpg","","mooney2","image-keyboard-response","396","938648","0.0-2.0-4.65","bp","1","pretest","true","4156818","null","","",""
"641","<p>How strong was your <strong>aha-experience</strong>?</p>","","aha","html-keyboard-response","397","939290","0.0-2.0-5.65","bp","1","pretest","true","4156818","51","../img/tt/1007tt.jpg","","3"
"null","<div style=""font-size:60px;""> </div>","","fixation","html-keyboard-response","398","939491","0.0-2.0-0.66","bp","1","pretest","true","4156818","null","","",""
"null","../img/tt/1009tt.jpg","","mooney1","image-keyboard-response","399","942506","0.0-2.0-1.66","bp","1","pretest","true","4156818","null","../img/tt/1009tt.jpg","",""
"2959","<p></p>","","recognized","html-keyboard-response","400","945467","0.0-2.0-2.66","bp","1","pretest","true","4156818","89","../img/tt/1009tt.jpg","y",""
"null","../img/gs/1009gs.jpg","","solution","image-keyboard-response","401","947470","0.0-2.0-3.66","bp","1","pretest","true","4156818","null","","",""
"null","../img/tt/1009tt.jpg","","mooney2","image-keyboard-response","402","949471","0.0-2.0-4.66","bp","1","pretest","true","4156818","null","","",""
"8435","<p>How strong was your <strong>aha-experience</strong>?</p>","","aha","html-keyboard-response","403","957907","0.0-2.0-5.66","bp","1","pretest","true","4156818","50","../img/tt/1009tt.jpg","","2"
"null","<div style=""font-size:60px;""> </div>","","fixation","html-keyboard-response","404","958122","0.0-2.0-0.67","bp","1","pretest","true","4156818","null","","",""
"null","../img/tt/043tt.jpg","","mooney1","image-keyboard-response","405","961127","0.0-2.0-1.67","bp","1","pretest","true","4156818","null","../img/tt/043tt.jpg","",""
"2722","<p></p>","","recognized","html-keyboard-response","406","963850","0.0-2.0-2.67","bp","1","pretest","true","4156818","89","../img/tt/043tt.jpg","y",""
"null","../img/gs/043gs.jpg","","solution","image-keyboard-response","407","965865","0.0-2.0-3.67","bp","1","pretest","true","4156818","null","","",""
"null","../img/tt/043tt.jpg","","mooney2","image-keyboard-response","408","967882","0.0-2.0-4.67","bp","1","pretest","true","4156818","null","","",""
"1000","<p>How strong was your <strong>aha-experience</strong>?</p>","","aha","html-keyboard-response","409","968883","0.0-2.0-5.67","bp","1","pretest","true","4156818","49","../img/tt/043tt.jpg","","1"
"null","<div style=""font-size:60px;""> </div>","","fixation","html-keyboard-response","410","969085","0.0-2.0-0.68","bp","1","pretest","true","4156818","null","","",""
"null","../img/tt/1176tt.jpg","","mooney1","image-keyboard-response","411","972088","0.0-2.0-1.68","bp","1","pretest","true","4156818","null","../img/tt/1176tt.jpg","",""
"4089","<p></p>","","recognized","html-keyboard-response","412","976178","0.0-2.0-2.68","bp","1","pretest","true","4156818","89","../img/tt/1176tt.jpg","y",""
"null","../img/gs/1176gs.jpg","","solution","image-keyboard-response","413","978181","0.0-2.0-3.68","bp","1","pretest","true","4156818","null","","",""
"null","../img/tt/1176tt.jpg","","mooney2","image-keyboard-response","414","980183","0.0-2.0-4.68","bp","1","pretest","true","4156818","null","","",""
"1514","<p>How strong was your <strong>aha-experience</strong>?</p>","","aha","html-keyboard-response","415","981699","0.0-2.0-5.68","bp","1","pretest","true","4156818","53","../img/tt/1176tt.jpg","","5"
"null","<div style=""font-size:60px;""> </div>","","fixation","html-keyboard-response","416","981900","0.0-2.0-0.69","bp","1","pretest","true","4156818","null","","",""
"null","../img/tt/1012tt.jpg","","mooney1","image-keyboard-response","417","984893","0.0-2.0-1.69","bp","1","pretest","true","4156818","null","../img/tt/1012tt.jpg","",""
"4580","<p></p>","","recognized","html-keyboard-response","418","989474","0.0-2.0-2.69","bp","1","pretest","true","4156818","78","../img/tt/1012tt.jpg","n",""
"null","../img/gs/1012gs.jpg","","solution","image-keyboard-response","419","991476","0.0-2.0-3.69","bp","1","pretest","true","4156818","null","","",""
"null","../img/tt/1012tt.jpg","","mooney2","image-keyboard-response","420","993479","0.0-2.0-4.69","bp","1","pretest","true","4156818","null","","",""
"594","<p>How strong was your <strong>aha-experience</strong>?</p>","","aha","html-keyboard-response","421","994074","0.0-2.0-5.69","bp","1","pretest","true","4156818","52","../img/tt/1012tt.jpg","","4"
"null","<div style=""font-size:60px;""> </div>","","fixation","html-keyboard-response","422","994290","0.0-2.0-0.70","bp","1","pretest","true","4156818","null","","",""
"null","../img/tt/1160tt.jpg","","mooney1","image-keyboard-response","423","997307","0.0-2.0-1.70","bp","1","pretest","true","4156818","null","../img/tt/1160tt.jpg","",""
"4462","<p></p>","","recognized","html-keyboard-response","424","1001770","0.0-2.0-2.70","bp","1","pretest","true","4156818","89","../img/tt/1160tt.jpg","y",""
"null","../img/gs/1160gs.jpg","","solution","image-keyboard-response","425","1003772","0.0-2.0-3.70","bp","1","pretest","true","4156818","null","","",""
"null","../img/tt/1160tt.jpg","","mooney2","image-keyboard-response","426","1005786","0.0-2.0-4.70","bp","1","pretest","true","4156818","null","","",""
"2447","<p>How strong was your <strong>aha-experience</strong>?</p>","","aha","html-keyboard-response","427","1008234","0.0-2.0-5.70","bp","1","pretest","true","4156818","51","../img/tt/1160tt.jpg","","3"
"null","<div style=""font-size:60px;""> </div>","","fixation","html-keyboard-response","428","1008435","0.0-2.0-0.71","bp","1","pretest","true","4156818","null","","",""
"null","../img/tt/1191tt.jpg","","mooney1","image-keyboard-response","429","1011439","0.0-2.0-1.71","bp","1","pretest","true","4156818","null","../img/tt/1191tt.jpg","",""
"2779","<p></p>","","recognized","html-keyboard-response","430","1014218","0.0-2.0-2.71","bp","1","pretest","true","4156818","78","../img/tt/1191tt.jpg","n",""
"null","../img/gs/1191gs.jpg","","solution","image-keyboard-response","431","1016229","0.0-2.0-3.71","bp","1","pretest","true","4156818","null","","",""
"null","../img/tt/1191tt.jpg","","mooney2","image-keyboard-response","432","1018230","0.0-2.0-4.71","bp","1","pretest","true","4156818","null","","",""
"1035","<p>How strong was your <strong>aha-experience</strong>?</p>","","aha","html-keyboard-response","433","1019266","0.0-2.0-5.71","bp","1","pretest","true","4156818","52","../img/tt/1191tt.jpg","","4"
"null","<div style=""font-size:60px;""> </div>","","fixation","html-keyboard-response","434","1019472","0.0-2.0-0.72","bp","1","pretest","true","4156818","null","","",""
"null","../img/tt/1177tt.jpg","","mooney1","image-keyboard-response","435","1022474","0.0-2.0-1.72","bp","1","pretest","true","4156818","null","../img/tt/1177tt.jpg","",""
"1704","<p></p>","","recognized","html-keyboard-response","436","1024178","0.0-2.0-2.72","bp","1","pretest","true","4156818","78","../img/tt/1177tt.jpg","n",""
"null","../img/gs/1177gs.jpg","","solution","image-keyboard-response","437","1026183","0.0-2.0-3.72","bp","1","pretest","true","4156818","null","","",""
"null","../img/tt/1177tt.jpg","","mooney2","image-keyboard-response","438","1028185","0.0-2.0-4.72","bp","1","pretest","true","4156818","null","","",""
"632","<p>How strong was your <strong>aha-experience</strong>?</p>","","aha","html-keyboard-response","439","1028818","0.0-2.0-5.72","bp","1","pretest","true","4156818","50","../img/tt/1177tt.jpg","","2"
"null","<div style=""font-size:60px;""> </div>","","fixation","html-keyboard-response","440","1029020","0.0-2.0-0.73","bp","1","pretest","true","4156818","null","","",""
"null","../img/tt/040tt.jpg","","mooney1","image-keyboard-response","441","1032026","0.0-2.0-1.73","bp","1","pretest","true","4156818","null","../img/tt/040tt.jpg","",""
"1943","<p></p>","","recognized","html-keyboard-response","442","1033970","0.0-2.0-2.73","bp","1","pretest","true","4156818","78","../img/tt/040tt.jpg","n",""
"null","../img/gs/040gs.jpg","","solution","image-keyboard-response","443","1035974","0.0-2.0-3.73","bp","1","pretest","true","4156818","null","","",""
"null","../img/tt/040tt.jpg","","mooney2","image-keyboard-response","444","1037975","0.0-2.0-4.73","bp","1","pretest","true","4156818","null","","",""
"714","<p>How strong was your <strong>aha-experience</strong>?</p>","","aha","html-keyboard-response","445","1038690","0.0-2.0-5.73","bp","1","pretest","true","4156818","51","../img/tt/040tt.jpg","","3"
"null","<div style=""font-size:60px;""> </div>","","fixation","html-keyboard-response","446","1038891","0.0-2.0-0.74","bp","1","pretest","true","4156818","null","","",""
"null","../img/tt/1153tt.jpg","","mooney1","image-keyboard-response","447","1041894","0.0-2.0-1.74","bp","1","pretest","true","4156818","null","../img/tt/1153tt.jpg","",""
"723","<p></p>","","recognized","html-keyboard-response","448","1042618","0.0-2.0-2.74","bp","1","pretest","true","4156818","89","../img/tt/1153tt.jpg","y",""
"null","../img/gs/1153gs.jpg","","solution","image-keyboard-response","449","1044625","0.0-2.0-3.74","bp","1","pretest","true","4156818","null","","",""
"null","../img/tt/1153tt.jpg","","mooney2","image-keyboard-response","450","1046574","0.0-2.0-4.74","bp","1","pretest","true","4156818","null","","",""
"1209","<p>How strong was your <strong>aha-experience</strong>?</p>","","aha","html-keyboard-response","451","1047783","0.0-2.0-5.74","bp","1","pretest","true","4156818","51","../img/tt/1153tt.jpg","","3"
"null","<div style=""font-size:60px;""> </div>","","fixation","html-keyboard-response","452","1047986","0.0-2.0-0.75","bp","1","pretest","true","4156818","null","","",""
"null","../img/tt/1187tt.jpg","","mooney1","image-keyboard-response","453","1050988","0.0-2.0-1.75","bp","1","pretest","true","4156818","null","../img/tt/1187tt.jpg","",""
"2602","<p></p>","","recognized","html-keyboard-response","454","1053591","0.0-2.0-2.75","bp","1","pretest","true","4156818","89","../img/tt/1187tt.jpg","y",""
"null","../img/gs/1187gs.jpg","","solution","image-keyboard-response","455","1055608","0.0-2.0-3.75","bp","1","pretest","true","4156818","null","","",""
"null","../img/tt/1187tt.jpg","","mooney2","image-keyboard-response","456","1057621","0.0-2.0-4.75","bp","1","pretest","true","4156818","null","","",""
"2601","<p>How strong was your <strong>aha-experience</strong>?</p>","","aha","html-keyboard-response","457","1060224","0.0-2.0-5.75","bp","1","pretest","true","4156818","51","../img/tt/1187tt.jpg","","3"
"null","<div style=""font-size:60px;""> </div>","","fixation","html-keyboard-response","458","1060426","0.0-2.0-0.76","bp","1","pretest","true","4156818","null","","",""
"null","../img/tt/1061tt.jpg","","mooney1","image-keyboard-response","459","1063429","0.0-2.0-1.76","bp","1","pretest","true","4156818","null","../img/tt/1061tt.jpg","",""
"1882","<p></p>","","recognized","html-keyboard-response","460","1065311","0.0-2.0-2.76","bp","1","pretest","true","4156818","78","../img/tt/1061tt.jpg","n",""
"null","../img/gs/1061gs.jpg","","solution","image-keyboard-response","461","1067314","0.0-2.0-3.76","bp","1","pretest","true","4156818","null","","",""
"null","../img/tt/1061tt.jpg","","mooney2","image-keyboard-response","462","1069316","0.0-2.0-4.76","bp","1","pretest","true","4156818","null","","",""
"5282","<p>How strong was your <strong>aha-experience</strong>?</p>","","aha","html-keyboard-response","463","1074599","0.0-2.0-5.76","bp","1","pretest","true","4156818","50","../img/tt/1061tt.jpg","","2"
"null","<div style=""font-size:60px;""> </div>","","fixation","html-keyboard-response","464","1074801","0.0-2.0-0.77","bp","1","pretest","true","4156818","null","","",""
"null","../img/tt/1085tt.jpg","","mooney1","image-keyboard-response","465","1077816","0.0-2.0-1.77","bp","1","pretest","true","4156818","null","../img/tt/1085tt.jpg","",""
"703","<p></p>","","recognized","html-keyboard-response","466","1078519","0.0-2.0-2.77","bp","1","pretest","true","4156818","89","../img/tt/1085tt.jpg","y",""
"null","../img/gs/1085gs.jpg","","solution","image-keyboard-response","467","1080529","0.0-2.0-3.77","bp","1","pretest","true","4156818","null","","",""
"null","../img/tt/1085tt.jpg","","mooney2","image-keyboard-response","468","1082535","0.0-2.0-4.77","bp","1","pretest","true","4156818","null","","",""
"935","<p>How strong was your <strong>aha-experience</strong>?</p>","","aha","html-keyboard-response","469","1083471","0.0-2.0-5.77","bp","1","pretest","true","4156818","51","../img/tt/1085tt.jpg","","3"
"null","<div style=""font-size:60px;""> </div>","","fixation","html-keyboard-response","470","1083673","0.0-2.0-0.78","bp","1","pretest","true","4156818","null","","",""
"null","../img/tt/1221tt.jpg","","mooney1","image-keyboard-response","471","1086681","0.0-2.0-1.78","bp","1","pretest","true","4156818","null","../img/tt/1221tt.jpg","",""
"1350","<p></p>","","recognized","html-keyboard-response","472","1088031","0.0-2.0-2.78","bp","1","pretest","true","4156818","89","../img/tt/1221tt.jpg","y",""
"null","../img/gs/1221gs.jpg","","solution","image-keyboard-response","473","1090035","0.0-2.0-3.78","bp","1","pretest","true","4156818","null","","",""
"null","../img/tt/1221tt.jpg","","mooney2","image-keyboard-response","474","1092037","0.0-2.0-4.78","bp","1","pretest","true","4156818","null","","",""
"1569","<p>How strong was your <strong>aha-experience</strong>?</p>","","aha","html-keyboard-response","475","1093607","0.0-2.0-5.78","bp","1","pretest","true","4156818","51","../img/tt/1221tt.jpg","","3"
"null","<div style=""font-size:60px;""> </div>","","fixation","html-keyboard-response","476","1093809","0.0-2.0-0.79","bp","1","pretest","true","4156818","null","","",""
"null","../img/tt/036tt.jpg","","mooney1","image-keyboard-response","477","1096811","0.0-2.0-1.79","bp","1","pretest","true","4156818","null","../img/tt/036tt.jpg","",""
"700","<p></p>","","recognized","html-keyboard-response","478","1097511","0.0-2.0-2.79","bp","1","pretest","true","4156818","78","../img/tt/036tt.jpg","n",""
"null","../img/gs/036gs.jpg","","solution","image-keyboard-response","479","1099520","0.0-2.0-3.79","bp","1","pretest","true","4156818","null","","",""
"null","../img/tt/036tt.jpg","","mooney2","image-keyboard-response","480","1101522","0.0-2.0-4.79","bp","1","pretest","true","4156818","null","","",""
"756","<p>How strong was your <strong>aha-experience</strong>?</p>","","aha","html-keyboard-response","481","1102279","0.0-2.0-5.79","bp","1","pretest","true","4156818","53","../img/tt/036tt.jpg","","5"
"null","<div style=""font-size:60px;""> </div>","","fixation","html-keyboard-response","482","1102481","0.0-2.0-0.80","bp","1","pretest","true","4156818","null","","",""
"null","../img/tt/020tt.jpg","","mooney1","image-keyboard-response","483","1105483","0.0-2.0-1.80","bp","1","pretest","true","4156818","null","../img/tt/020tt.jpg","",""
"627","<p></p>","","recognized","html-keyboard-response","484","1106111","0.0-2.0-2.80","bp","1","pretest","true","4156818","78","../img/tt/020tt.jpg","n",""
"null","../img/gs/020gs.jpg","","solution","image-keyboard-response","485","1108056","0.0-2.0-3.80","bp","1","pretest","true","4156818","null","","",""
"null","../img/tt/020tt.jpg","","mooney2","image-keyboard-response","486","1110058","0.0-2.0-4.80","bp","1","pretest","true","4156818","null","","",""
"2409","<p>How strong was your <strong>aha-experience</strong>?</p>","","aha","html-keyboard-response","487","1112468","0.0-2.0-5.80","bp","1","pretest","true","4156818","51","../img/tt/020tt.jpg","","3"
"null","<div style=""font-size:60px;""> </div>","","fixation","html-keyboard-response","488","1112670","0.0-2.0-0.81","bp","1","pretest","true","4156818","null","","",""
"null","../img/tt/073tt.jpg","","mooney1","image-keyboard-response","489","1115673","0.0-2.0-1.81","bp","1","pretest","true","4156818","null","../img/tt/073tt.jpg","",""
"1708","<p></p>","","recognized","html-keyboard-response","490","1117381","0.0-2.0-2.81","bp","1","pretest","true","4156818","89","../img/tt/073tt.jpg","y",""
"null","../img/gs/073gs.jpg","","solution","image-keyboard-response","491","1119383","0.0-2.0-3.81","bp","1","pretest","true","4156818","null","","",""
"null","../img/tt/073tt.jpg","","mooney2","image-keyboard-response","492","1121387","0.0-2.0-4.81","bp","1","pretest","true","4156818","null","","",""
"825","<p>How strong was your <strong>aha-experience</strong>?</p>","","aha","html-keyboard-response","493","1122213","0.0-2.0-5.81","bp","1","pretest","true","4156818","50","../img/tt/073tt.jpg","","2"
"null","<div style=""font-size:60px;""> </div>","","fixation","html-keyboard-response","494","1122421","0.0-2.0-0.82","bp","1","pretest","true","4156818","null","","",""
"null","../img/tt/1253tt.jpg","","mooney1","image-keyboard-response","495","1125424","0.0-2.0-1.82","bp","1","pretest","true","4156818","null","../img/tt/1253tt.jpg","",""
"1037","<p></p>","","recognized","html-keyboard-response","496","1126461","0.0-2.0-2.82","bp","1","pretest","true","4156818","89","../img/tt/1253tt.jpg","y",""
"null","../img/gs/1253gs.jpg","","solution","image-keyboard-response","497","1128464","0.0-2.0-3.82","bp","1","pretest","true","4156818","null","","",""
"null","../img/tt/1253tt.jpg","","mooney2","image-keyboard-response","498","1130468","0.0-2.0-4.82","bp","1","pretest","true","4156818","null","","",""
"55","<p>How strong was your <strong>aha-experience</strong>?</p>","","aha","html-keyboard-response","499","1130524","0.0-2.0-5.82","bp","1","pretest","true","4156818","50","../img/tt/1253tt.jpg","","2"
"null","<div style=""font-size:60px;""> </div>","","fixation","html-keyboard-response","500","1130726","0.0-2.0-0.83","bp","1","pretest","true","4156818","null","","",""
"null","../img/tt/060tt.jpg","","mooney1","image-keyboard-response","501","1133729","0.0-2.0-1.83","bp","1","pretest","true","4156818","null","../img/tt/060tt.jpg","",""
"353","<p></p>","","recognized","html-keyboard-response","502","1134085","0.0-2.0-2.83","bp","1","pretest","true","4156818","89","../img/tt/060tt.jpg","y",""
"null","../img/gs/060gs.jpg","","solution","image-keyboard-response","503","1136088","0.0-2.0-3.83","bp","1","pretest","true","4156818","null","","",""
"null","../img/tt/060tt.jpg","","mooney2","image-keyboard-response","504","1138090","0.0-2.0-4.83","bp","1","pretest","true","4156818","null","","",""
"1970","<p>How strong was your <strong>aha-experience</strong>?</p>","","aha","html-keyboard-response","505","1140061","0.0-2.0-5.83","bp","1","pretest","true","4156818","50","../img/tt/060tt.jpg","","2"
"null","<div style=""font-size:60px;""> </div>","","fixation","html-keyboard-response","506","1140263","0.0-2.0-0.84","bp","1","pretest","true","4156818","null","","",""
"null","../img/tt/1124tt.jpg","","mooney1","image-keyboard-response","507","1143275","0.0-2.0-1.84","bp","1","pretest","true","4156818","null","../img/tt/1124tt.jpg","",""
"529","<p></p>","","recognized","html-keyboard-response","508","1143805","0.0-2.0-2.84","bp","1","pretest","true","4156818","89","../img/tt/1124tt.jpg","y",""
"null","../img/gs/1124gs.jpg","","solution","image-keyboard-response","509","1145808","0.0-2.0-3.84","bp","1","pretest","true","4156818","null","","",""
"null","../img/tt/1124tt.jpg","","mooney2","image-keyboard-response","510","1147810","0.0-2.0-4.84","bp","1","pretest","true","4156818","null","","",""
"4674","<p>How strong was your <strong>aha-experience</strong>?</p>","","aha","html-keyboard-response","511","1152485","0.0-2.0-5.84","bp","1","pretest","true","4156818","51","../img/tt/1124tt.jpg","","3"
"null","<div style=""font-size:60px;""> </div>","","fixation","html-keyboard-response","512","1152689","0.0-2.0-0.85","bp","1","pretest","true","4156818","null","","",""
"null","../img/tt/1136tt.jpg","","mooney1","image-keyboard-response","513","1155693","0.0-2.0-1.85","bp","1","pretest","true","4156818","null","../img/tt/1136tt.jpg","",""
"120","<p></p>","","recognized","html-keyboard-response","514","1155813","0.0-2.0-2.85","bp","1","pretest","true","4156818","89","../img/tt/1136tt.jpg","y",""
"null","../img/gs/1136gs.jpg","","solution","image-keyboard-response","515","1157815","0.0-2.0-3.85","bp","1","pretest","true","4156818","null","","",""
"null","../img/tt/1136tt.jpg","","mooney2","image-keyboard-response","516","1159816","0.0-2.0-4.85","bp","1","pretest","true","4156818","null","","",""
"1964","<p>How strong was your <strong>aha-experience</strong>?</p>","","aha","html-keyboard-response","517","1161781","0.0-2.0-5.85","bp","1","pretest","true","4156818","52","../img/tt/1136tt.jpg","","4"
"null","<div style=""font-size:60px;""> </div>","","fixation","html-keyboard-response","518","1161983","0.0-2.0-0.86","bp","1","pretest","true","4156818","null","","",""
"null","../img/tt/1145tt.jpg","","mooney1","image-keyboard-response","519","1164992","0.0-2.0-1.86","bp","1","pretest","true","4156818","null","../img/tt/1145tt.jpg","",""
"1236","<p></p>","","recognized","html-keyboard-response","520","1166229","0.0-2.0-2.86","bp","1","pretest","true","4156818","89","../img/tt/1145tt.jpg","y",""
"null","../img/gs/1145gs.jpg","","solution","image-keyboard-response","521","1168180","0.0-2.0-3.86","bp","1","pretest","true","4156818","null","","",""
"null","../img/tt/1145tt.jpg","","mooney2","image-keyboard-response","522","1170183","0.0-2.0-4.86","bp","1","pretest","true","4156818","null","","",""
"1988","<p>How strong was your <strong>aha-experience</strong>?</p>","","aha","html-keyboard-response","523","1172172","0.0-2.0-5.86","bp","1","pretest","true","4156818","51","../img/tt/1145tt.jpg","","3"
"null","<div style=""font-size:60px;""> </div>","","fixation","html-keyboard-response","524","1172374","0.0-2.0-0.87","bp","1","pretest","true","4156818","null","","",""
"null","../img/tt/1098tt.jpg","","mooney1","image-keyboard-response","525","1175377","0.0-2.0-1.87","bp","1","pretest","true","4156818","null","../img/tt/1098tt.jpg","",""
"2746","<p></p>","","recognized","html-keyboard-response","526","1178124","0.0-2.0-2.87","bp","1","pretest","true","4156818","89","../img/tt/1098tt.jpg","y",""
"null","../img/gs/1098gs.jpg","","solution","image-keyboard-response","527","1180141","0.0-2.0-3.87","bp","1","pretest","true","4156818","null","","",""
"null","../img/tt/1098tt.jpg","","mooney2","image-keyboard-response","528","1182143","0.0-2.0-4.87","bp","1","pretest","true","4156818","null","","",""
"1372","<p>How strong was your <strong>aha-experience</strong>?</p>","","aha","html-keyboard-response","529","1183516","0.0-2.0-5.87","bp","1","pretest","true","4156818","50","../img/tt/1098tt.jpg","","2"
"null","<div style=""font-size:60px;""> </div>","","fixation","html-keyboard-response","530","1183718","0.0-2.0-0.88","bp","1","pretest","true","4156818","null","","",""
"null","../img/tt/1183tt.jpg","","mooney1","image-keyboard-response","531","1186720","0.0-2.0-1.88","bp","1","pretest","true","4156818","null","../img/tt/1183tt.jpg","",""
"1627","<p></p>","","recognized","html-keyboard-response","532","1188348","0.0-2.0-2.88","bp","1","pretest","true","4156818","89","../img/tt/1183tt.jpg","y",""
"null","../img/gs/1183gs.jpg","","solution","image-keyboard-response","533","1190351","0.0-2.0-3.88","bp","1","pretest","true","4156818","null","","",""
"null","../img/tt/1183tt.jpg","","mooney2","image-keyboard-response","534","1192354","0.0-2.0-4.88","bp","1","pretest","true","4156818","null","","",""
"5128","<p>How strong was your <strong>aha-experience</strong>?</p>","","aha","html-keyboard-response","535","1197484","0.0-2.0-5.88","bp","1","pretest","true","4156818","49","../img/tt/1183tt.jpg","","1"
"null","<div style=""font-size:60px;""> </div>","","fixation","html-keyboard-response","536","1197701","0.0-2.0-0.89","bp","1","pretest","true","4156818","null","","",""
"null","../img/tt/1018tt.jpg","","mooney1","image-keyboard-response","537","1200702","0.0-2.0-1.89","bp","1","pretest","true","4156818","null","../img/tt/1018tt.jpg","",""
"1317","<p></p>","","recognized","html-keyboard-response","538","1202020","0.0-2.0-2.89","bp","1","pretest","true","4156818","89","../img/tt/1018tt.jpg","y",""
"null","../img/gs/1018gs.jpg","","solution","image-keyboard-response","539","1204023","0.0-2.0-3.89","bp","1","pretest","true","4156818","null","","",""
"null","../img/tt/1018tt.jpg","","mooney2","image-keyboard-response","540","1206025","0.0-2.0-4.89","bp","1","pretest","true","4156818","null","","",""
"1042","<p>How strong was your <strong>aha-experience</strong>?</p>","","aha","html-keyboard-response","541","1207068","0.0-2.0-5.89","bp","1","pretest","true","4156818","51","../img/tt/1018tt.jpg","","3"
"null","<div style=""font-size:60px;""> </div>","","fixation","html-keyboard-response","542","1207270","0.0-2.0-0.90","bp","1","pretest","true","4156818","null","","",""
"null","../img/tt/1175tt.jpg","","mooney1","image-keyboard-response","543","1210273","0.0-2.0-1.90","bp","1","pretest","true","4156818","null","../img/tt/1175tt.jpg","",""
"4082","<p></p>","","recognized","html-keyboard-response","544","1214356","0.0-2.0-2.90","bp","1","pretest","true","4156818","78","../img/tt/1175tt.jpg","n",""
"null","../img/gs/1175gs.jpg","","solution","image-keyboard-response","545","1216360","0.0-2.0-3.90","bp","1","pretest","true","4156818","null","","",""
"null","../img/tt/1175tt.jpg","","mooney2","image-keyboard-response","546","1218377","0.0-2.0-4.90","bp","1","pretest","true","4156818","null","","",""
"2058","<p>How strong was your <strong>aha-experience</strong>?</p>","","aha","html-keyboard-response","547","1220436","0.0-2.0-5.90","bp","1","pretest","true","4156818","50","../img/tt/1175tt.jpg","","2"
"null","<div style=""font-size:60px;""> </div>","","fixation","html-keyboard-response","548","1220641","0.0-2.0-0.91","bp","1","pretest","true","4156818","null","","",""
"null","../img/tt/044tt.jpg","","mooney1","image-keyboard-response","549","1223651","0.0-2.0-1.91","bp","1","pretest","true","4156818","null","../img/tt/044tt.jpg","",""
"168","<p></p>","","recognized","html-keyboard-response","550","1223820","0.0-2.0-2.91","bp","1","pretest","true","4156818","78","../img/tt/044tt.jpg","n",""
"null","../img/gs/044gs.jpg","","solution","image-keyboard-response","551","1225822","0.0-2.0-3.91","bp","1","pretest","true","4156818","null","","",""
"null","../img/tt/044tt.jpg","","mooney2","image-keyboard-response","552","1227825","0.0-2.0-4.91","bp","1","pretest","true","4156818","null","","",""
"42","<p>How strong was your <strong>aha-experience</strong>?</p>","","aha","html-keyboard-response","553","1227867","0.0-2.0-5.91","bp","1","pretest","true","4156818","55","../img/tt/044tt.jpg","","7"
"null","<div style=""font-size:60px;""> </div>","","fixation","html-keyboard-response","554","1228068","0.0-2.0-0.92","bp","1","pretest","true","4156818","null","","",""
"null","../img/tt/1106tt.jpg","","mooney1","image-keyboard-response","555","1231014","0.0-2.0-1.92","bp","1","pretest","true","4156818","null","../img/tt/1106tt.jpg","",""
"3783","<p></p>","","recognized","html-keyboard-response","556","1234799","0.0-2.0-2.92","bp","1","pretest","true","4156818","89","../img/tt/1106tt.jpg","y",""
"null","../img/gs/1106gs.jpg","","solution","image-keyboard-response","557","1236810","0.0-2.0-3.92","bp","1","pretest","true","4156818","null","","",""
"null","../img/tt/1106tt.jpg","","mooney2","image-keyboard-response","558","1238815","0.0-2.0-4.92","bp","1","pretest","true","4156818","null","","",""
"2479","<p>How strong was your <strong>aha-experience</strong>?</p>","","aha","html-keyboard-response","559","1241295","0.0-2.0-5.92","bp","1","pretest","true","4156818","50","../img/tt/1106tt.jpg","","2"
"null","<div style=""font-size:60px;""> </div>","","fixation","html-keyboard-response","560","1241502","0.0-2.0-0.93","bp","1","pretest","true","4156818","null","","",""
"null","../img/tt/1130tt.jpg","","mooney1","image-keyboard-response","561","1244515","0.0-2.0-1.93","bp","1","pretest","true","4156818","null","../img/tt/1130tt.jpg","",""
"1731","<p></p>","","recognized","html-keyboard-response","562","1246247","0.0-2.0-2.93","bp","1","pretest","true","4156818","89","../img/tt/1130tt.jpg","y",""
"null","../img/gs/1130gs.jpg","","solution","image-keyboard-response","563","1248264","0.0-2.0-3.93","bp","1","pretest","true","4156818","null","","",""
"null","../img/tt/1130tt.jpg","","mooney2","image-keyboard-response","564","1250281","0.0-2.0-4.93","bp","1","pretest","true","4156818","null","","",""
"2332","<p>How strong was your <strong>aha-experience</strong>?</p>","","aha","html-keyboard-response","565","1252614","0.0-2.0-5.93","bp","1","pretest","true","4156818","51","../img/tt/1130tt.jpg","","3"
"null","<div style=""font-size:60px;""> </div>","","fixation","html-keyboard-response","566","1252824","0.0-2.0-0.94","bp","1","pretest","true","4156818","null","","",""
"null","../img/tt/1170tt.jpg","","mooney1","image-keyboard-response","567","1255826","0.0-2.0-1.94","bp","1","pretest","true","4156818","null","../img/tt/1170tt.jpg","",""
