"rt","stimulus","button_pressed","test_part","trial_type","trial_index","time_elapsed","internal_node_id","subject","session","experiment_name","complete","totalTime","key_press","currentStim","recognized","aha"
"8814","<div style='word-wrap: break-word; width: 900px'><h3>Please consider this information carefully before deciding whether to participate in this research</h3><ul style='text-align: left; font-size: .8em;'><li><b>Purpose of the research</b>: To examine how people process images.</li><li><b>What you will do in this research</b>:  Stimuli (images) will be presented on the computer and you will be asked different questions about them.</li><li><b>Time required</b>: Participation will take max 60 minutes to complete.</li><li><b>Risks</b>:  There are no anticipated risks associated with participating in this study. The effects of participating should be comparable to those you would experience from viewing a computer monitor for 60 minutes and using a mouse or keyboard.</li><li><b>Benefits</b>:  This study provides no benefits to you individually. The study provides important information about the nature of perception and learning.</li><li><b>Confidentiality</b>:  Your participation in this study will remain confidential. No personally identifiable information will be associated with your data. Your de-identified data may be shared with other researchers and used in future projects.</li><li><b>Participation and withdrawal</b>:  Your participation in this study is completely voluntary and you may refuse to participate or you may choose to withdraw at any time without penalty.</li><li><b>How to contact the researchers</b>: If you have questions or concerns about your participation or payment, or want to request a summary of research findings, please contact Sander Van de Cruys (KU Leuven), at sander.vandecruys@kuleuven.be.</li></ul><p>The nature and purpose of this research have been sufficiently explained and I agree to participate in this study.  I understand that I am free to withdraw at any time without incurring any penalty.</p><p>Please consent by clicking the button below to continue. Otherwise, please exit the study at this time.</p></div>","0","instructions","html-button-response","0","8816","0.0-0.0","bp","2","pretest","true","4112756","","","",""
"2879","<div style='word-wrap: break-word; width: 900px'><h3>Instructions</h3><p>In this experiment you will see a series of distorted images like the one below on the left. As you can see in the righthand image, the distorted images are derived from actual photographs.In what follows, you will <strong>briefly</strong> be presented with <strong>only</strong> the distorted image.</p> <div style='float: left; margin-right: 20px;'><img src='../img/018tt.jpg' height='250' width='250'></img></div><div style='float: right; margin-left: 20px;'><img src='../img/018gs.jpg' height='250' width='250'></img></div><p>To be useful for future research, we need to select those images that people can generally not solve on their own. Therefore we'll show you the distorted image and ask you to indicate (yes or no) whether you already recognized what was in the image. This is not a competition, so please respond truthfully. We don't ask or check your answer, we just want to know whether you think you recognized it. All images depict objects from one of these broad level categories: animals, inanimate objects, plants, sports, vehicles, and food. Recognizing means knowing more than these broad labels for a given image. It means knowing at least the basic level category of the main object in the image, for example when you see a parrot in the image, 'parrot' will obviously be a correct answer but also correct is 'bird', but not 'animal' (the broad level category). For the example above, 'rose' would be correct or 'flower', but not 'plant'. When soccer players are depicted, you don't recognize the image when you just see 'humans', 'outdoors', or 'sports'. Note that complete certainty about your answer is not necessary, it's enough to have a good, definite guess on the object, to say 'yes, I recognized it'.</p><p>One additional question will be asked after we've revealed the solution: You'll be asked to indicate how strong your <strong>aha-experience</strong> was. This describes the positive 'click' you sometimes experience, when the pieces of the 'puzzle' fall together and you suddenly have 'insight' in the image. It describes how good you felt the 'fit' was between the distorted image and the solution.</p><p>Press any key to start.</p></div>","","instructions","html-keyboard-response","1","11697","0.0-1.0","bp","2","pretest","true","4112756","76","","",""
"null","<div style=""font-size:60px;""> </div>","","fixation","html-keyboard-response","2","11899","0.0-2.0-0.0","bp","2","pretest","true","4112756","null","","",""
"null","../img/tt/1333tt.jpg","","mooney1","image-keyboard-response","3","14912","0.0-2.0-1.0","bp","2","pretest","true","4112756","null","../img/tt/1333tt.jpg","",""
"2656","<p></p>","","recognized","html-keyboard-response","4","17569","0.0-2.0-2.0","bp","2","pretest","true","4112756","89","../img/tt/1333tt.jpg","y",""
"null","../img/gs/1333gs.jpg","","solution","image-keyboard-response","5","19585","0.0-2.0-3.0","bp","2","pretest","true","4112756","null","","",""
"null","../img/tt/1333tt.jpg","","mooney2","image-keyboard-response","6","21588","0.0-2.0-4.0","bp","2","pretest","true","4112756","null","","",""
"2283","<p>How strong was your <strong>aha-experience</strong>?</p>","","aha","html-keyboard-response","7","23872","0.0-2.0-5.0","bp","2","pretest","true","4112756","49","../img/tt/1333tt.jpg","","1"
"null","<div style=""font-size:60px;""> </div>","","fixation","html-keyboard-response","8","24076","0.0-2.0-0.1","bp","2","pretest","true","4112756","null","","",""
"null","../img/tt/173tt.jpg","","mooney1","image-keyboard-response","9","27079","0.0-2.0-1.1","bp","2","pretest","true","4112756","null","../img/tt/173tt.jpg","",""
"615473","<p></p>","","recognized","html-keyboard-response","10","642554","0.0-2.0-2.1","bp","2","pretest","true","4112756","78","../img/tt/173tt.jpg","n",""
"null","../img/gs/173gs.jpg","","solution","image-keyboard-response","11","644569","0.0-2.0-3.1","bp","2","pretest","true","4112756","null","","",""
"null","../img/tt/173tt.jpg","","mooney2","image-keyboard-response","12","646584","0.0-2.0-4.1","bp","2","pretest","true","4112756","null","","",""
"816","<p>How strong was your <strong>aha-experience</strong>?</p>","","aha","html-keyboard-response","13","647402","0.0-2.0-5.1","bp","2","pretest","true","4112756","53","../img/tt/173tt.jpg","","5"
"null","<div style=""font-size:60px;""> </div>","","fixation","html-keyboard-response","14","647604","0.0-2.0-0.2","bp","2","pretest","true","4112756","null","","",""
"null","../img/tt/203tt.jpg","","mooney1","image-keyboard-response","15","650616","0.0-2.0-1.2","bp","2","pretest","true","4112756","null","../img/tt/203tt.jpg","",""
"841","<p></p>","","recognized","html-keyboard-response","16","651457","0.0-2.0-2.2","bp","2","pretest","true","4112756","89","../img/tt/203tt.jpg","y",""
"null","../img/gs/203gs.jpg","","solution","image-keyboard-response","17","653465","0.0-2.0-3.2","bp","2","pretest","true","4112756","null","","",""
"null","../img/tt/203tt.jpg","","mooney2","image-keyboard-response","18","655468","0.0-2.0-4.2","bp","2","pretest","true","4112756","null","","",""
"556","<p>How strong was your <strong>aha-experience</strong>?</p>","","aha","html-keyboard-response","19","656025","0.0-2.0-5.2","bp","2","pretest","true","4112756","51","../img/tt/203tt.jpg","","3"
"null","<div style=""font-size:60px;""> </div>","","fixation","html-keyboard-response","20","656228","0.0-2.0-0.3","bp","2","pretest","true","4112756","null","","",""
"null","../img/tt/405tt.jpg","","mooney1","image-keyboard-response","21","659230","0.0-2.0-1.3","bp","2","pretest","true","4112756","null","../img/tt/405tt.jpg","",""
"1923","<p></p>","","recognized","html-keyboard-response","22","661153","0.0-2.0-2.3","bp","2","pretest","true","4112756","78","../img/tt/405tt.jpg","n",""
"null","../img/gs/405gs.jpg","","solution","image-keyboard-response","23","663160","0.0-2.0-3.3","bp","2","pretest","true","4112756","null","","",""
"null","../img/tt/405tt.jpg","","mooney2","image-keyboard-response","24","665163","0.0-2.0-4.3","bp","2","pretest","true","4112756","null","","",""
"1414","<p>How strong was your <strong>aha-experience</strong>?</p>","","aha","html-keyboard-response","25","666577","0.0-2.0-5.3","bp","2","pretest","true","4112756","51","../img/tt/405tt.jpg","","3"
"null","<div style=""font-size:60px;""> </div>","","fixation","html-keyboard-response","26","666778","0.0-2.0-0.4","bp","2","pretest","true","4112756","null","","",""
"null","../img/tt/1322tt.jpg","","mooney1","image-keyboard-response","27","669781","0.0-2.0-1.4","bp","2","pretest","true","4112756","null","../img/tt/1322tt.jpg","",""
"571","<p></p>","","recognized","html-keyboard-response","28","670353","0.0-2.0-2.4","bp","2","pretest","true","4112756","89","../img/tt/1322tt.jpg","y",""
"null","../img/gs/1322gs.jpg","","solution","image-keyboard-response","29","672379","0.0-2.0-3.4","bp","2","pretest","true","4112756","null","","",""
"null","../img/tt/1322tt.jpg","","mooney2","image-keyboard-response","30","674381","0.0-2.0-4.4","bp","2","pretest","true","4112756","null","","",""
"1938","<p>How strong was your <strong>aha-experience</strong>?</p>","","aha","html-keyboard-response","31","676320","0.0-2.0-5.4","bp","2","pretest","true","4112756","49","../img/tt/1322tt.jpg","","1"
"null","<div style=""font-size:60px;""> </div>","","fixation","html-keyboard-response","32","676522","0.0-2.0-0.5","bp","2","pretest","true","4112756","null","","",""
"null","../img/tt/143tt.jpg","","mooney1","image-keyboard-response","33","679530","0.0-2.0-1.5","bp","2","pretest","true","4112756","null","../img/tt/143tt.jpg","",""
"662","<p></p>","","recognized","html-keyboard-response","34","680193","0.0-2.0-2.5","bp","2","pretest","true","4112756","78","../img/tt/143tt.jpg","n",""
"null","../img/gs/143gs.jpg","","solution","image-keyboard-response","35","682200","0.0-2.0-3.5","bp","2","pretest","true","4112756","null","","",""
"null","../img/tt/143tt.jpg","","mooney2","image-keyboard-response","36","684203","0.0-2.0-4.5","bp","2","pretest","true","4112756","null","","",""
"1069","<p>How strong was your <strong>aha-experience</strong>?</p>","","aha","html-keyboard-response","37","685272","0.0-2.0-5.5","bp","2","pretest","true","4112756","51","../img/tt/143tt.jpg","","3"
"null","<div style=""font-size:60px;""> </div>","","fixation","html-keyboard-response","38","685473","0.0-2.0-0.6","bp","2","pretest","true","4112756","null","","",""
"null","../img/tt/599tt.jpg","","mooney1","image-keyboard-response","39","688477","0.0-2.0-1.6","bp","2","pretest","true","4112756","null","../img/tt/599tt.jpg","",""
"972","<p></p>","","recognized","html-keyboard-response","40","689449","0.0-2.0-2.6","bp","2","pretest","true","4112756","78","../img/tt/599tt.jpg","n",""
"null","../img/gs/599gs.jpg","","solution","image-keyboard-response","41","691460","0.0-2.0-3.6","bp","2","pretest","true","4112756","null","","",""
"null","../img/tt/599tt.jpg","","mooney2","image-keyboard-response","42","693472","0.0-2.0-4.6","bp","2","pretest","true","4112756","null","","",""
"752","<p>How strong was your <strong>aha-experience</strong>?</p>","","aha","html-keyboard-response","43","694225","0.0-2.0-5.6","bp","2","pretest","true","4112756","52","../img/tt/599tt.jpg","","4"
"null","<div style=""font-size:60px;""> </div>","","fixation","html-keyboard-response","44","694426","0.0-2.0-0.7","bp","2","pretest","true","4112756","null","","",""
"null","../img/tt/458tt.jpg","","mooney1","image-keyboard-response","45","697442","0.0-2.0-1.7","bp","2","pretest","true","4112756","null","../img/tt/458tt.jpg","",""
"726","<p></p>","","recognized","html-keyboard-response","46","698169","0.0-2.0-2.7","bp","2","pretest","true","4112756","89","../img/tt/458tt.jpg","y",""
"null","../img/gs/458gs.jpg","","solution","image-keyboard-response","47","700172","0.0-2.0-3.7","bp","2","pretest","true","4112756","null","","",""
"null","../img/tt/458tt.jpg","","mooney2","image-keyboard-response","48","702186","0.0-2.0-4.7","bp","2","pretest","true","4112756","null","","",""
"598","<p>How strong was your <strong>aha-experience</strong>?</p>","","aha","html-keyboard-response","49","702785","0.0-2.0-5.7","bp","2","pretest","true","4112756","51","../img/tt/458tt.jpg","","3"
"null","<div style=""font-size:60px;""> </div>","","fixation","html-keyboard-response","50","702994","0.0-2.0-0.8","bp","2","pretest","true","4112756","null","","",""
"null","../img/tt/588tt.jpg","","mooney1","image-keyboard-response","51","705996","0.0-2.0-1.8","bp","2","pretest","true","4112756","null","../img/tt/588tt.jpg","",""
"756","<p></p>","","recognized","html-keyboard-response","52","706753","0.0-2.0-2.8","bp","2","pretest","true","4112756","78","../img/tt/588tt.jpg","n",""
"null","../img/gs/588gs.jpg","","solution","image-keyboard-response","53","708760","0.0-2.0-3.8","bp","2","pretest","true","4112756","null","","",""
"null","../img/tt/588tt.jpg","","mooney2","image-keyboard-response","54","710762","0.0-2.0-4.8","bp","2","pretest","true","4112756","null","","",""
"2862","<p>How strong was your <strong>aha-experience</strong>?</p>","","aha","html-keyboard-response","55","713625","0.0-2.0-5.8","bp","2","pretest","true","4112756","52","../img/tt/588tt.jpg","","4"
"null","<div style=""font-size:60px;""> </div>","","fixation","html-keyboard-response","56","713827","0.0-2.0-0.9","bp","2","pretest","true","4112756","null","","",""
"null","../img/tt/209tt.jpg","","mooney1","image-keyboard-response","57","716843","0.0-2.0-1.9","bp","2","pretest","true","4112756","null","../img/tt/209tt.jpg","",""
"557","<p></p>","","recognized","html-keyboard-response","58","717401","0.0-2.0-2.9","bp","2","pretest","true","4112756","89","../img/tt/209tt.jpg","y",""
"null","../img/gs/209gs.jpg","","solution","image-keyboard-response","59","719404","0.0-2.0-3.9","bp","2","pretest","true","4112756","null","","",""
"null","../img/tt/209tt.jpg","","mooney2","image-keyboard-response","60","721408","0.0-2.0-4.9","bp","2","pretest","true","4112756","null","","",""
"712","<p>How strong was your <strong>aha-experience</strong>?</p>","","aha","html-keyboard-response","61","722121","0.0-2.0-5.9","bp","2","pretest","true","4112756","50","../img/tt/209tt.jpg","","2"
"null","<div style=""font-size:60px;""> </div>","","fixation","html-keyboard-response","62","722323","0.0-2.0-0.10","bp","2","pretest","true","4112756","null","","",""
"null","../img/tt/1369tt.jpg","","mooney1","image-keyboard-response","63","725338","0.0-2.0-1.10","bp","2","pretest","true","4112756","null","../img/tt/1369tt.jpg","",""
"718","<p></p>","","recognized","html-keyboard-response","64","726057","0.0-2.0-2.10","bp","2","pretest","true","4112756","78","../img/tt/1369tt.jpg","n",""
"null","../img/gs/1369gs.jpg","","solution","image-keyboard-response","65","728071","0.0-2.0-3.10","bp","2","pretest","true","4112756","null","","",""
"null","../img/tt/1369tt.jpg","","mooney2","image-keyboard-response","66","730079","0.0-2.0-4.10","bp","2","pretest","true","4112756","null","","",""
"1705","<p>How strong was your <strong>aha-experience</strong>?</p>","","aha","html-keyboard-response","67","731785","0.0-2.0-5.10","bp","2","pretest","true","4112756","51","../img/tt/1369tt.jpg","","3"
"null","<div style=""font-size:60px;""> </div>","","fixation","html-keyboard-response","68","731987","0.0-2.0-0.11","bp","2","pretest","true","4112756","null","","",""
"null","../img/tt/269tt.jpg","","mooney1","image-keyboard-response","69","734998","0.0-2.0-1.11","bp","2","pretest","true","4112756","null","../img/tt/269tt.jpg","",""
"787","<p></p>","","recognized","html-keyboard-response","70","735785","0.0-2.0-2.11","bp","2","pretest","true","4112756","89","../img/tt/269tt.jpg","y",""
"null","../img/gs/269gs.jpg","","solution","image-keyboard-response","71","737795","0.0-2.0-3.11","bp","2","pretest","true","4112756","null","","",""
"null","../img/tt/269tt.jpg","","mooney2","image-keyboard-response","72","739797","0.0-2.0-4.11","bp","2","pretest","true","4112756","null","","",""
"587","<p>How strong was your <strong>aha-experience</strong>?</p>","","aha","html-keyboard-response","73","740385","0.0-2.0-5.11","bp","2","pretest","true","4112756","50","../img/tt/269tt.jpg","","2"
"null","<div style=""font-size:60px;""> </div>","","fixation","html-keyboard-response","74","740593","0.0-2.0-0.12","bp","2","pretest","true","4112756","null","","",""
"null","../img/tt/488tt.jpg","","mooney1","image-keyboard-response","75","743595","0.0-2.0-1.12","bp","2","pretest","true","4112756","null","../img/tt/488tt.jpg","",""
"838","<p></p>","","recognized","html-keyboard-response","76","744433","0.0-2.0-2.12","bp","2","pretest","true","4112756","89","../img/tt/488tt.jpg","y",""
"null","../img/gs/488gs.jpg","","solution","image-keyboard-response","77","746445","0.0-2.0-3.12","bp","2","pretest","true","4112756","null","","",""
"null","../img/tt/488tt.jpg","","mooney2","image-keyboard-response","78","748448","0.0-2.0-4.12","bp","2","pretest","true","4112756","null","","",""
"666","<p>How strong was your <strong>aha-experience</strong>?</p>","","aha","html-keyboard-response","79","749114","0.0-2.0-5.12","bp","2","pretest","true","4112756","51","../img/tt/488tt.jpg","","3"
"null","<div style=""font-size:60px;""> </div>","","fixation","html-keyboard-response","80","749321","0.0-2.0-0.13","bp","2","pretest","true","4112756","null","","",""
"null","../img/tt/194tt.jpg","","mooney1","image-keyboard-response","81","752328","0.0-2.0-1.13","bp","2","pretest","true","4112756","null","../img/tt/194tt.jpg","",""
"865","<p></p>","","recognized","html-keyboard-response","82","753194","0.0-2.0-2.13","bp","2","pretest","true","4112756","78","../img/tt/194tt.jpg","n",""
"null","../img/gs/194gs.jpg","","solution","image-keyboard-response","83","755197","0.0-2.0-3.13","bp","2","pretest","true","4112756","null","","",""
"null","../img/tt/194tt.jpg","","mooney2","image-keyboard-response","84","757210","0.0-2.0-4.13","bp","2","pretest","true","4112756","null","","",""
"799","<p>How strong was your <strong>aha-experience</strong>?</p>","","aha","html-keyboard-response","85","758010","0.0-2.0-5.13","bp","2","pretest","true","4112756","49","../img/tt/194tt.jpg","","1"
"null","<div style=""font-size:60px;""> </div>","","fixation","html-keyboard-response","86","758211","0.0-2.0-0.14","bp","2","pretest","true","4112756","null","","",""
"null","../img/tt/265tt.jpg","","mooney1","image-keyboard-response","87","761214","0.0-2.0-1.14","bp","2","pretest","true","4112756","null","../img/tt/265tt.jpg","",""
"612","<p></p>","","recognized","html-keyboard-response","88","761826","0.0-2.0-2.14","bp","2","pretest","true","4112756","78","../img/tt/265tt.jpg","n",""
"null","../img/gs/265gs.jpg","","solution","image-keyboard-response","89","763829","0.0-2.0-3.14","bp","2","pretest","true","4112756","null","","",""
"null","../img/tt/265tt.jpg","","mooney2","image-keyboard-response","90","765831","0.0-2.0-4.14","bp","2","pretest","true","4112756","null","","",""
"330","<p>How strong was your <strong>aha-experience</strong>?</p>","","aha","html-keyboard-response","91","766162","0.0-2.0-5.14","bp","2","pretest","true","4112756","51","../img/tt/265tt.jpg","","3"
"null","<div style=""font-size:60px;""> </div>","","fixation","html-keyboard-response","92","766364","0.0-2.0-0.15","bp","2","pretest","true","4112756","null","","",""
"null","../img/tt/520tt.jpg","","mooney1","image-keyboard-response","93","769365","0.0-2.0-1.15","bp","2","pretest","true","4112756","null","../img/tt/520tt.jpg","",""
"733","<p></p>","","recognized","html-keyboard-response","94","770098","0.0-2.0-2.15","bp","2","pretest","true","4112756","89","../img/tt/520tt.jpg","y",""
"null","../img/gs/520gs.jpg","","solution","image-keyboard-response","95","772101","0.0-2.0-3.15","bp","2","pretest","true","4112756","null","","",""
"null","../img/tt/520tt.jpg","","mooney2","image-keyboard-response","96","774103","0.0-2.0-4.15","bp","2","pretest","true","4112756","null","","",""
"10530","<p>How strong was your <strong>aha-experience</strong>?</p>","","aha","html-keyboard-response","97","784635","0.0-2.0-5.15","bp","2","pretest","true","4112756","50","../img/tt/520tt.jpg","","2"
"null","<div style=""font-size:60px;""> </div>","","fixation","html-keyboard-response","98","784836","0.0-2.0-0.16","bp","2","pretest","true","4112756","null","","",""
"null","../img/tt/197tt.jpg","","mooney1","image-keyboard-response","99","787839","0.0-2.0-1.16","bp","2","pretest","true","4112756","null","../img/tt/197tt.jpg","",""
"203","<p></p>","","recognized","html-keyboard-response","100","788043","0.0-2.0-2.16","bp","2","pretest","true","4112756","89","../img/tt/197tt.jpg","y",""
"null","../img/gs/197gs.jpg","","solution","image-keyboard-response","101","790045","0.0-2.0-3.16","bp","2","pretest","true","4112756","null","","",""
"null","../img/tt/197tt.jpg","","mooney2","image-keyboard-response","102","792047","0.0-2.0-4.16","bp","2","pretest","true","4112756","null","","",""
"1722","<p>How strong was your <strong>aha-experience</strong>?</p>","","aha","html-keyboard-response","103","793770","0.0-2.0-5.16","bp","2","pretest","true","4112756","49","../img/tt/197tt.jpg","","1"
"null","<div style=""font-size:60px;""> </div>","","fixation","html-keyboard-response","104","793971","0.0-2.0-0.17","bp","2","pretest","true","4112756","null","","",""
"null","../img/tt/523tt.jpg","","mooney1","image-keyboard-response","105","796973","0.0-2.0-1.17","bp","2","pretest","true","4112756","null","../img/tt/523tt.jpg","",""
"1236","<p></p>","","recognized","html-keyboard-response","106","798210","0.0-2.0-2.17","bp","2","pretest","true","4112756","89","../img/tt/523tt.jpg","y",""
"null","../img/gs/523gs.jpg","","solution","image-keyboard-response","107","800213","0.0-2.0-3.17","bp","2","pretest","true","4112756","null","","",""
"null","../img/tt/523tt.jpg","","mooney2","image-keyboard-response","108","802217","0.0-2.0-4.17","bp","2","pretest","true","4112756","null","","",""
"568","<p>How strong was your <strong>aha-experience</strong>?</p>","","aha","html-keyboard-response","109","802786","0.0-2.0-5.17","bp","2","pretest","true","4112756","49","../img/tt/523tt.jpg","","1"
"null","<div style=""font-size:60px;""> </div>","","fixation","html-keyboard-response","110","802987","0.0-2.0-0.18","bp","2","pretest","true","4112756","null","","",""
"null","../img/tt/1302tt.jpg","","mooney1","image-keyboard-response","111","805994","0.0-2.0-1.18","bp","2","pretest","true","4112756","null","../img/tt/1302tt.jpg","",""
"840","<p></p>","","recognized","html-keyboard-response","112","806834","0.0-2.0-2.18","bp","2","pretest","true","4112756","89","../img/tt/1302tt.jpg","y",""
"null","../img/gs/1302gs.jpg","","solution","image-keyboard-response","113","808846","0.0-2.0-3.18","bp","2","pretest","true","4112756","null","","",""
"null","../img/tt/1302tt.jpg","","mooney2","image-keyboard-response","114","810857","0.0-2.0-4.18","bp","2","pretest","true","4112756","null","","",""
"2056","<p>How strong was your <strong>aha-experience</strong>?</p>","","aha","html-keyboard-response","115","812915","0.0-2.0-5.18","bp","2","pretest","true","4112756","49","../img/tt/1302tt.jpg","","1"
"null","<div style=""font-size:60px;""> </div>","","fixation","html-keyboard-response","116","813125","0.0-2.0-0.19","bp","2","pretest","true","4112756","null","","",""
"null","../img/tt/358tt.jpg","","mooney1","image-keyboard-response","117","816128","0.0-2.0-1.19","bp","2","pretest","true","4112756","null","../img/tt/358tt.jpg","",""
"776","<p></p>","","recognized","html-keyboard-response","118","816906","0.0-2.0-2.19","bp","2","pretest","true","4112756","89","../img/tt/358tt.jpg","y",""
"null","../img/gs/358gs.jpg","","solution","image-keyboard-response","119","818920","0.0-2.0-3.19","bp","2","pretest","true","4112756","null","","",""
"null","../img/tt/358tt.jpg","","mooney2","image-keyboard-response","120","820922","0.0-2.0-4.19","bp","2","pretest","true","4112756","null","","",""
"1120","<p>How strong was your <strong>aha-experience</strong>?</p>","","aha","html-keyboard-response","121","822042","0.0-2.0-5.19","bp","2","pretest","true","4112756","49","../img/tt/358tt.jpg","","1"
"null","<div style=""font-size:60px;""> </div>","","fixation","html-keyboard-response","122","822255","0.0-2.0-0.20","bp","2","pretest","true","4112756","null","","",""
"null","../img/tt/398tt.jpg","","mooney1","image-keyboard-response","123","825270","0.0-2.0-1.20","bp","2","pretest","true","4112756","null","../img/tt/398tt.jpg","",""
"715","<p></p>","","recognized","html-keyboard-response","124","825987","0.0-2.0-2.20","bp","2","pretest","true","4112756","89","../img/tt/398tt.jpg","y",""
"null","../img/gs/398gs.jpg","","solution","image-keyboard-response","125","828003","0.0-2.0-3.20","bp","2","pretest","true","4112756","null","","",""
"null","../img/tt/398tt.jpg","","mooney2","image-keyboard-response","126","830005","0.0-2.0-4.20","bp","2","pretest","true","4112756","null","","",""
"964","<p>How strong was your <strong>aha-experience</strong>?</p>","","aha","html-keyboard-response","127","830970","0.0-2.0-5.20","bp","2","pretest","true","4112756","51","../img/tt/398tt.jpg","","3"
"null","<div style=""font-size:60px;""> </div>","","fixation","html-keyboard-response","128","831172","0.0-2.0-0.21","bp","2","pretest","true","4112756","null","","",""
"null","../img/tt/515tt.jpg","","mooney1","image-keyboard-response","129","834175","0.0-2.0-1.21","bp","2","pretest","true","4112756","null","../img/tt/515tt.jpg","",""
"907","<p></p>","","recognized","html-keyboard-response","130","835083","0.0-2.0-2.21","bp","2","pretest","true","4112756","89","../img/tt/515tt.jpg","y",""
"null","../img/gs/515gs.jpg","","solution","image-keyboard-response","131","837086","0.0-2.0-3.21","bp","2","pretest","true","4112756","null","","",""
"null","../img/tt/515tt.jpg","","mooney2","image-keyboard-response","132","839088","0.0-2.0-4.21","bp","2","pretest","true","4112756","null","","",""
"1210","<p>How strong was your <strong>aha-experience</strong>?</p>","","aha","html-keyboard-response","133","840299","0.0-2.0-5.21","bp","2","pretest","true","4112756","53","../img/tt/515tt.jpg","","5"
"null","<div style=""font-size:60px;""> </div>","","fixation","html-keyboard-response","134","840500","0.0-2.0-0.22","bp","2","pretest","true","4112756","null","","",""
"null","../img/tt/533tt.jpg","","mooney1","image-keyboard-response","135","843507","0.0-2.0-1.22","bp","2","pretest","true","4112756","null","../img/tt/533tt.jpg","",""
"1023","<p></p>","","recognized","html-keyboard-response","136","844530","0.0-2.0-2.22","bp","2","pretest","true","4112756","78","../img/tt/533tt.jpg","n",""
"null","../img/gs/533gs.jpg","","solution","image-keyboard-response","137","846533","0.0-2.0-3.22","bp","2","pretest","true","4112756","null","","",""
"null","../img/tt/533tt.jpg","","mooney2","image-keyboard-response","138","848543","0.0-2.0-4.22","bp","2","pretest","true","4112756","null","","",""
"1322","<p>How strong was your <strong>aha-experience</strong>?</p>","","aha","html-keyboard-response","139","849866","0.0-2.0-5.22","bp","2","pretest","true","4112756","49","../img/tt/533tt.jpg","","1"
"null","<div style=""font-size:60px;""> </div>","","fixation","html-keyboard-response","140","850070","0.0-2.0-0.23","bp","2","pretest","true","4112756","null","","",""
"null","../img/tt/546tt.jpg","","mooney1","image-keyboard-response","141","853072","0.0-2.0-1.23","bp","2","pretest","true","4112756","null","../img/tt/546tt.jpg","",""
"833","<p></p>","","recognized","html-keyboard-response","142","853907","0.0-2.0-2.23","bp","2","pretest","true","4112756","89","../img/tt/546tt.jpg","y",""
"null","../img/gs/546gs.jpg","","solution","image-keyboard-response","143","855918","0.0-2.0-3.23","bp","2","pretest","true","4112756","null","","",""
"null","../img/tt/546tt.jpg","","mooney2","image-keyboard-response","144","857934","0.0-2.0-4.23","bp","2","pretest","true","4112756","null","","",""
"1019","<p>How strong was your <strong>aha-experience</strong>?</p>","","aha","html-keyboard-response","145","858954","0.0-2.0-5.23","bp","2","pretest","true","4112756","51","../img/tt/546tt.jpg","","3"
"null","<div style=""font-size:60px;""> </div>","","fixation","html-keyboard-response","146","859162","0.0-2.0-0.24","bp","2","pretest","true","4112756","null","","",""
"null","../img/tt/190tt.jpg","","mooney1","image-keyboard-response","147","862170","0.0-2.0-1.24","bp","2","pretest","true","4112756","null","../img/tt/190tt.jpg","",""
"879","<p></p>","","recognized","html-keyboard-response","148","863050","0.0-2.0-2.24","bp","2","pretest","true","4112756","89","../img/tt/190tt.jpg","y",""
"null","../img/gs/190gs.jpg","","solution","image-keyboard-response","149","865062","0.0-2.0-3.24","bp","2","pretest","true","4112756","null","","",""
"null","../img/tt/190tt.jpg","","mooney2","image-keyboard-response","150","867067","0.0-2.0-4.24","bp","2","pretest","true","4112756","null","","",""
"647","<p>How strong was your <strong>aha-experience</strong>?</p>","","aha","html-keyboard-response","151","867716","0.0-2.0-5.24","bp","2","pretest","true","4112756","52","../img/tt/190tt.jpg","","4"
"null","<div style=""font-size:60px;""> </div>","","fixation","html-keyboard-response","152","867917","0.0-2.0-0.25","bp","2","pretest","true","4112756","null","","",""
"null","../img/tt/331tt.jpg","","mooney1","image-keyboard-response","153","870926","0.0-2.0-1.25","bp","2","pretest","true","4112756","null","../img/tt/331tt.jpg","",""
"773","<p></p>","","recognized","html-keyboard-response","154","871700","0.0-2.0-2.25","bp","2","pretest","true","4112756","89","../img/tt/331tt.jpg","y",""
"null","../img/gs/331gs.jpg","","solution","image-keyboard-response","155","873709","0.0-2.0-3.25","bp","2","pretest","true","4112756","null","","",""
"null","../img/tt/331tt.jpg","","mooney2","image-keyboard-response","156","875724","0.0-2.0-4.25","bp","2","pretest","true","4112756","null","","",""
"687","<p>How strong was your <strong>aha-experience</strong>?</p>","","aha","html-keyboard-response","157","876412","0.0-2.0-5.25","bp","2","pretest","true","4112756","49","../img/tt/331tt.jpg","","1"
"null","<div style=""font-size:60px;""> </div>","","fixation","html-keyboard-response","158","876618","0.0-2.0-0.26","bp","2","pretest","true","4112756","null","","",""
"null","../img/tt/1332tt.jpg","","mooney1","image-keyboard-response","159","879629","0.0-2.0-1.26","bp","2","pretest","true","4112756","null","../img/tt/1332tt.jpg","",""
"567","<p></p>","","recognized","html-keyboard-response","160","880196","0.0-2.0-2.26","bp","2","pretest","true","4112756","89","../img/tt/1332tt.jpg","y",""
"null","../img/gs/1332gs.jpg","","solution","image-keyboard-response","161","882213","0.0-2.0-3.26","bp","2","pretest","true","4112756","null","","",""
"null","../img/tt/1332tt.jpg","","mooney2","image-keyboard-response","162","884214","0.0-2.0-4.26","bp","2","pretest","true","4112756","null","","",""
"397","<p>How strong was your <strong>aha-experience</strong>?</p>","","aha","html-keyboard-response","163","884612","0.0-2.0-5.26","bp","2","pretest","true","4112756","49","../img/tt/1332tt.jpg","","1"
"null","<div style=""font-size:60px;""> </div>","","fixation","html-keyboard-response","164","884822","0.0-2.0-0.27","bp","2","pretest","true","4112756","null","","",""
"null","../img/tt/208tt.jpg","","mooney1","image-keyboard-response","165","887831","0.0-2.0-1.27","bp","2","pretest","true","4112756","null","../img/tt/208tt.jpg","",""
"453","<p></p>","","recognized","html-keyboard-response","166","888284","0.0-2.0-2.27","bp","2","pretest","true","4112756","89","../img/tt/208tt.jpg","y",""
"null","../img/gs/208gs.jpg","","solution","image-keyboard-response","167","890301","0.0-2.0-3.27","bp","2","pretest","true","4112756","null","","",""
"null","../img/tt/208tt.jpg","","mooney2","image-keyboard-response","168","892317","0.0-2.0-4.27","bp","2","pretest","true","4112756","null","","",""
"1446","<p>How strong was your <strong>aha-experience</strong>?</p>","","aha","html-keyboard-response","169","893764","0.0-2.0-5.27","bp","2","pretest","true","4112756","49","../img/tt/208tt.jpg","","1"
"null","<div style=""font-size:60px;""> </div>","","fixation","html-keyboard-response","170","893966","0.0-2.0-0.28","bp","2","pretest","true","4112756","null","","",""
"null","../img/tt/145tt.jpg","","mooney1","image-keyboard-response","171","896969","0.0-2.0-1.28","bp","2","pretest","true","4112756","null","../img/tt/145tt.jpg","",""
"498","<p></p>","","recognized","html-keyboard-response","172","897468","0.0-2.0-2.28","bp","2","pretest","true","4112756","78","../img/tt/145tt.jpg","n",""
"null","../img/gs/145gs.jpg","","solution","image-keyboard-response","173","899470","0.0-2.0-3.28","bp","2","pretest","true","4112756","null","","",""
"null","../img/tt/145tt.jpg","","mooney2","image-keyboard-response","174","901475","0.0-2.0-4.28","bp","2","pretest","true","4112756","null","","",""
"1311","<p>How strong was your <strong>aha-experience</strong>?</p>","","aha","html-keyboard-response","175","902788","0.0-2.0-5.28","bp","2","pretest","true","4112756","49","../img/tt/145tt.jpg","","1"
"null","<div style=""font-size:60px;""> </div>","","fixation","html-keyboard-response","176","902990","0.0-2.0-0.29","bp","2","pretest","true","4112756","null","","",""
"null","../img/tt/372tt.jpg","","mooney1","image-keyboard-response","177","905994","0.0-2.0-1.29","bp","2","pretest","true","4112756","null","../img/tt/372tt.jpg","",""
"890","<p></p>","","recognized","html-keyboard-response","178","906884","0.0-2.0-2.29","bp","2","pretest","true","4112756","89","../img/tt/372tt.jpg","y",""
"null","../img/gs/372gs.jpg","","solution","image-keyboard-response","179","908887","0.0-2.0-3.29","bp","2","pretest","true","4112756","null","","",""
"null","../img/tt/372tt.jpg","","mooney2","image-keyboard-response","180","910888","0.0-2.0-4.29","bp","2","pretest","true","4112756","null","","",""
"699","<p>How strong was your <strong>aha-experience</strong>?</p>","","aha","html-keyboard-response","181","911588","0.0-2.0-5.29","bp","2","pretest","true","4112756","52","../img/tt/372tt.jpg","","4"
"null","<div style=""font-size:60px;""> </div>","","fixation","html-keyboard-response","182","911796","0.0-2.0-0.30","bp","2","pretest","true","4112756","null","","",""
"null","../img/tt/1330tt.jpg","","mooney1","image-keyboard-response","183","914798","0.0-2.0-1.30","bp","2","pretest","true","4112756","null","../img/tt/1330tt.jpg","",""
"989","<p></p>","","recognized","html-keyboard-response","184","915788","0.0-2.0-2.30","bp","2","pretest","true","4112756","89","../img/tt/1330tt.jpg","y",""
"null","../img/gs/1330gs.jpg","","solution","image-keyboard-response","185","917791","0.0-2.0-3.30","bp","2","pretest","true","4112756","null","","",""
"null","../img/tt/1330tt.jpg","","mooney2","image-keyboard-response","186","919792","0.0-2.0-4.30","bp","2","pretest","true","4112756","null","","",""
"827","<p>How strong was your <strong>aha-experience</strong>?</p>","","aha","html-keyboard-response","187","920620","0.0-2.0-5.30","bp","2","pretest","true","4112756","51","../img/tt/1330tt.jpg","","3"
"null","<div style=""font-size:60px;""> </div>","","fixation","html-keyboard-response","188","920822","0.0-2.0-0.31","bp","2","pretest","true","4112756","null","","",""
"null","../img/tt/175tt.jpg","","mooney1","image-keyboard-response","189","923825","0.0-2.0-1.31","bp","2","pretest","true","4112756","null","../img/tt/175tt.jpg","",""
"587","<p></p>","","recognized","html-keyboard-response","190","924412","0.0-2.0-2.31","bp","2","pretest","true","4112756","89","../img/tt/175tt.jpg","y",""
"null","../img/gs/175gs.jpg","","solution","image-keyboard-response","191","926414","0.0-2.0-3.31","bp","2","pretest","true","4112756","null","","",""
"null","../img/tt/175tt.jpg","","mooney2","image-keyboard-response","192","928428","0.0-2.0-4.31","bp","2","pretest","true","4112756","null","","",""
"717","<p>How strong was your <strong>aha-experience</strong>?</p>","","aha","html-keyboard-response","193","929146","0.0-2.0-5.31","bp","2","pretest","true","4112756","51","../img/tt/175tt.jpg","","3"
"null","<div style=""font-size:60px;""> </div>","","fixation","html-keyboard-response","194","929347","0.0-2.0-0.32","bp","2","pretest","true","4112756","null","","",""
"null","../img/tt/367tt.jpg","","mooney1","image-keyboard-response","195","932357","0.0-2.0-1.32","bp","2","pretest","true","4112756","null","../img/tt/367tt.jpg","",""
"684","<p></p>","","recognized","html-keyboard-response","196","933042","0.0-2.0-2.32","bp","2","pretest","true","4112756","89","../img/tt/367tt.jpg","y",""
"null","../img/gs/367gs.jpg","","solution","image-keyboard-response","197","935045","0.0-2.0-3.32","bp","2","pretest","true","4112756","null","","",""
"null","../img/tt/367tt.jpg","","mooney2","image-keyboard-response","198","937047","0.0-2.0-4.32","bp","2","pretest","true","4112756","null","","",""
"722","<p>How strong was your <strong>aha-experience</strong>?</p>","","aha","html-keyboard-response","199","937770","0.0-2.0-5.32","bp","2","pretest","true","4112756","51","../img/tt/367tt.jpg","","3"
"null","<div style=""font-size:60px;""> </div>","","fixation","html-keyboard-response","200","937974","0.0-2.0-0.33","bp","2","pretest","true","4112756","null","","",""
"null","../img/tt/314tt.jpg","","mooney1","image-keyboard-response","201","940983","0.0-2.0-1.33","bp","2","pretest","true","4112756","null","../img/tt/314tt.jpg","",""
"882","<p></p>","","recognized","html-keyboard-response","202","941866","0.0-2.0-2.33","bp","2","pretest","true","4112756","78","../img/tt/314tt.jpg","n",""
"null","../img/gs/314gs.jpg","","solution","image-keyboard-response","203","943869","0.0-2.0-3.33","bp","2","pretest","true","4112756","null","","",""
"null","../img/tt/314tt.jpg","","mooney2","image-keyboard-response","204","945870","0.0-2.0-4.33","bp","2","pretest","true","4112756","null","","",""
"755","<p>How strong was your <strong>aha-experience</strong>?</p>","","aha","html-keyboard-response","205","946626","0.0-2.0-5.33","bp","2","pretest","true","4112756","49","../img/tt/314tt.jpg","","1"
"null","<div style=""font-size:60px;""> </div>","","fixation","html-keyboard-response","206","946828","0.0-2.0-0.34","bp","2","pretest","true","4112756","null","","",""
"null","../img/tt/549tt.jpg","","mooney1","image-keyboard-response","207","949830","0.0-2.0-1.34","bp","2","pretest","true","4112756","null","../img/tt/549tt.jpg","",""
"451","<p></p>","","recognized","html-keyboard-response","208","950282","0.0-2.0-2.34","bp","2","pretest","true","4112756","78","../img/tt/549tt.jpg","n",""
"null","../img/gs/549gs.jpg","","solution","image-keyboard-response","209","952284","0.0-2.0-3.34","bp","2","pretest","true","4112756","null","","",""
"null","../img/tt/549tt.jpg","","mooney2","image-keyboard-response","210","954286","0.0-2.0-4.34","bp","2","pretest","true","4112756","null","","",""
"699","<p>How strong was your <strong>aha-experience</strong>?</p>","","aha","html-keyboard-response","211","954986","0.0-2.0-5.34","bp","2","pretest","true","4112756","51","../img/tt/549tt.jpg","","3"
"null","<div style=""font-size:60px;""> </div>","","fixation","html-keyboard-response","212","955188","0.0-2.0-0.35","bp","2","pretest","true","4112756","null","","",""
"null","../img/tt/551tt.jpg","","mooney1","image-keyboard-response","213","958189","0.0-2.0-1.35","bp","2","pretest","true","4112756","null","../img/tt/551tt.jpg","",""
"724","<p></p>","","recognized","html-keyboard-response","214","958914","0.0-2.0-2.35","bp","2","pretest","true","4112756","78","../img/tt/551tt.jpg","n",""
"null","../img/gs/551gs.jpg","","solution","image-keyboard-response","215","960921","0.0-2.0-3.35","bp","2","pretest","true","4112756","null","","",""
"null","../img/tt/551tt.jpg","","mooney2","image-keyboard-response","216","962931","0.0-2.0-4.35","bp","2","pretest","true","4112756","null","","",""
"774","<p>How strong was your <strong>aha-experience</strong>?</p>","","aha","html-keyboard-response","217","963706","0.0-2.0-5.35","bp","2","pretest","true","4112756","51","../img/tt/551tt.jpg","","3"
"null","<div style=""font-size:60px;""> </div>","","fixation","html-keyboard-response","218","963907","0.0-2.0-0.36","bp","2","pretest","true","4112756","null","","",""
"null","../img/tt/437tt.jpg","","mooney1","image-keyboard-response","219","966916","0.0-2.0-1.36","bp","2","pretest","true","4112756","null","../img/tt/437tt.jpg","",""
"541","<p></p>","","recognized","html-keyboard-response","220","967458","0.0-2.0-2.36","bp","2","pretest","true","4112756","78","../img/tt/437tt.jpg","n",""
"null","../img/gs/437gs.jpg","","solution","image-keyboard-response","221","969463","0.0-2.0-3.36","bp","2","pretest","true","4112756","null","","",""
"null","../img/tt/437tt.jpg","","mooney2","image-keyboard-response","222","971466","0.0-2.0-4.36","bp","2","pretest","true","4112756","null","","",""
"104","<p>How strong was your <strong>aha-experience</strong>?</p>","","aha","html-keyboard-response","223","971570","0.0-2.0-5.36","bp","2","pretest","true","4112756","52","../img/tt/437tt.jpg","","4"
"null","<div style=""font-size:60px;""> </div>","","fixation","html-keyboard-response","224","971771","0.0-2.0-0.37","bp","2","pretest","true","4112756","null","","",""
"null","../img/tt/1331tt.jpg","","mooney1","image-keyboard-response","225","974780","0.0-2.0-1.37","bp","2","pretest","true","4112756","null","../img/tt/1331tt.jpg","",""
"1069","<p></p>","","recognized","html-keyboard-response","226","975850","0.0-2.0-2.37","bp","2","pretest","true","4112756","78","../img/tt/1331tt.jpg","n",""
"null","../img/gs/1331gs.jpg","","solution","image-keyboard-response","227","977853","0.0-2.0-3.37","bp","2","pretest","true","4112756","null","","",""
"null","../img/tt/1331tt.jpg","","mooney2","image-keyboard-response","228","979855","0.0-2.0-4.37","bp","2","pretest","true","4112756","null","","",""
"722","<p>How strong was your <strong>aha-experience</strong>?</p>","","aha","html-keyboard-response","229","980578","0.0-2.0-5.37","bp","2","pretest","true","4112756","51","../img/tt/1331tt.jpg","","3"
"null","<div style=""font-size:60px;""> </div>","","fixation","html-keyboard-response","230","980780","0.0-2.0-0.38","bp","2","pretest","true","4112756","null","","",""
"null","../img/tt/356tt.jpg","","mooney1","image-keyboard-response","231","983782","0.0-2.0-1.38","bp","2","pretest","true","4112756","null","../img/tt/356tt.jpg","",""
"651","<p></p>","","recognized","html-keyboard-response","232","984434","0.0-2.0-2.38","bp","2","pretest","true","4112756","89","../img/tt/356tt.jpg","y",""
"null","../img/gs/356gs.jpg","","solution","image-keyboard-response","233","986438","0.0-2.0-3.38","bp","2","pretest","true","4112756","null","","",""
"null","../img/tt/356tt.jpg","","mooney2","image-keyboard-response","234","988451","0.0-2.0-4.38","bp","2","pretest","true","4112756","null","","",""
"929","<p>How strong was your <strong>aha-experience</strong>?</p>","","aha","html-keyboard-response","235","989381","0.0-2.0-5.38","bp","2","pretest","true","4112756","52","../img/tt/356tt.jpg","","4"
"null","<div style=""font-size:60px;""> </div>","","fixation","html-keyboard-response","236","989588","0.0-2.0-0.39","bp","2","pretest","true","4112756","null","","",""
"null","../img/tt/1303tt.jpg","","mooney1","image-keyboard-response","237","992591","0.0-2.0-1.39","bp","2","pretest","true","4112756","null","../img/tt/1303tt.jpg","",""
"533","<p></p>","","recognized","html-keyboard-response","238","993126","0.0-2.0-2.39","bp","2","pretest","true","4112756","89","../img/tt/1303tt.jpg","y",""
"null","../img/gs/1303gs.jpg","","solution","image-keyboard-response","239","995131","0.0-2.0-3.39","bp","2","pretest","true","4112756","null","","",""
"null","../img/tt/1303tt.jpg","","mooney2","image-keyboard-response","240","997144","0.0-2.0-4.39","bp","2","pretest","true","4112756","null","","",""
"1196","<p>How strong was your <strong>aha-experience</strong>?</p>","","aha","html-keyboard-response","241","998341","0.0-2.0-5.39","bp","2","pretest","true","4112756","51","../img/tt/1303tt.jpg","","3"
"null","<div style=""font-size:60px;""> </div>","","fixation","html-keyboard-response","242","998543","0.0-2.0-0.40","bp","2","pretest","true","4112756","null","","",""
"null","../img/tt/1356tt.jpg","","mooney1","image-keyboard-response","243","1001559","0.0-2.0-1.40","bp","2","pretest","true","4112756","null","../img/tt/1356tt.jpg","",""
"462","<p></p>","","recognized","html-keyboard-response","244","1002021","0.0-2.0-2.40","bp","2","pretest","true","4112756","89","../img/tt/1356tt.jpg","y",""
"null","../img/gs/1356gs.jpg","","solution","image-keyboard-response","245","1004036","0.0-2.0-3.40","bp","2","pretest","true","4112756","null","","",""
"null","../img/tt/1356tt.jpg","","mooney2","image-keyboard-response","246","1006042","0.0-2.0-4.40","bp","2","pretest","true","4112756","null","","",""
"1050","<p>How strong was your <strong>aha-experience</strong>?</p>","","aha","html-keyboard-response","247","1007093","0.0-2.0-5.40","bp","2","pretest","true","4112756","53","../img/tt/1356tt.jpg","","5"
"null","<div style=""font-size:60px;""> </div>","","fixation","html-keyboard-response","248","1007295","0.0-2.0-0.41","bp","2","pretest","true","4112756","null","","",""
"null","../img/tt/303tt.jpg","","mooney1","image-keyboard-response","249","1010306","0.0-2.0-1.41","bp","2","pretest","true","4112756","null","../img/tt/303tt.jpg","",""
"690","<p></p>","","recognized","html-keyboard-response","250","1010997","0.0-2.0-2.41","bp","2","pretest","true","4112756","78","../img/tt/303tt.jpg","n",""
"null","../img/gs/303gs.jpg","","solution","image-keyboard-response","251","1013000","0.0-2.0-3.41","bp","2","pretest","true","4112756","null","","",""
"null","../img/tt/303tt.jpg","","mooney2","image-keyboard-response","252","1015001","0.0-2.0-4.41","bp","2","pretest","true","4112756","null","","",""
"1595","<p>How strong was your <strong>aha-experience</strong>?</p>","","aha","html-keyboard-response","253","1016598","0.0-2.0-5.41","bp","2","pretest","true","4112756","51","../img/tt/303tt.jpg","","3"
"null","<div style=""font-size:60px;""> </div>","","fixation","html-keyboard-response","254","1016804","0.0-2.0-0.42","bp","2","pretest","true","4112756","null","","",""
"null","../img/tt/491tt.jpg","","mooney1","image-keyboard-response","255","1019807","0.0-2.0-1.42","bp","2","pretest","true","4112756","null","../img/tt/491tt.jpg","",""
"1750","<p></p>","","recognized","html-keyboard-response","256","1021557","0.0-2.0-2.42","bp","2","pretest","true","4112756","89","../img/tt/491tt.jpg","y",""
"null","../img/gs/491gs.jpg","","solution","image-keyboard-response","257","1023571","0.0-2.0-3.42","bp","2","pretest","true","4112756","null","","",""
"null","../img/tt/491tt.jpg","","mooney2","image-keyboard-response","258","1025584","0.0-2.0-4.42","bp","2","pretest","true","4112756","null","","",""
"373","<p>How strong was your <strong>aha-experience</strong>?</p>","","aha","html-keyboard-response","259","1025957","0.0-2.0-5.42","bp","2","pretest","true","4112756","49","../img/tt/491tt.jpg","","1"
"null","<div style=""font-size:60px;""> </div>","","fixation","html-keyboard-response","260","1026170","0.0-2.0-0.43","bp","2","pretest","true","4112756","null","","",""
"null","../img/tt/390tt.jpg","","mooney1","image-keyboard-response","261","1029184","0.0-2.0-1.43","bp","2","pretest","true","4112756","null","../img/tt/390tt.jpg","",""
"2173","<p></p>","","recognized","html-keyboard-response","262","1031358","0.0-2.0-2.43","bp","2","pretest","true","4112756","78","../img/tt/390tt.jpg","n",""
"null","../img/gs/390gs.jpg","","solution","image-keyboard-response","263","1033360","0.0-2.0-3.43","bp","2","pretest","true","4112756","null","","",""
"null","../img/tt/390tt.jpg","","mooney2","image-keyboard-response","264","1035362","0.0-2.0-4.43","bp","2","pretest","true","4112756","null","","",""
"2498","<p>How strong was your <strong>aha-experience</strong>?</p>","","aha","html-keyboard-response","265","1037861","0.0-2.0-5.43","bp","2","pretest","true","4112756","51","../img/tt/390tt.jpg","","3"
"null","<div style=""font-size:60px;""> </div>","","fixation","html-keyboard-response","266","1038068","0.0-2.0-0.44","bp","2","pretest","true","4112756","null","","",""
"null","../img/tt/387tt.jpg","","mooney1","image-keyboard-response","267","1041071","0.0-2.0-1.44","bp","2","pretest","true","4112756","null","../img/tt/387tt.jpg","",""
"845","<p></p>","","recognized","html-keyboard-response","268","1041918","0.0-2.0-2.44","bp","2","pretest","true","4112756","89","../img/tt/387tt.jpg","y",""
"null","../img/gs/387gs.jpg","","solution","image-keyboard-response","269","1043921","0.0-2.0-3.44","bp","2","pretest","true","4112756","null","","",""
"null","../img/tt/387tt.jpg","","mooney2","image-keyboard-response","270","1045923","0.0-2.0-4.44","bp","2","pretest","true","4112756","null","","",""
"761","<p>How strong was your <strong>aha-experience</strong>?</p>","","aha","html-keyboard-response","271","1046686","0.0-2.0-5.44","bp","2","pretest","true","4112756","49","../img/tt/387tt.jpg","","1"
"null","<div style=""font-size:60px;""> </div>","","fixation","html-keyboard-response","272","1046901","0.0-2.0-0.45","bp","2","pretest","true","4112756","null","","",""
"null","../img/tt/409tt.jpg","","mooney1","image-keyboard-response","273","1049905","0.0-2.0-1.45","bp","2","pretest","true","4112756","null","../img/tt/409tt.jpg","",""
"773","<p></p>","","recognized","html-keyboard-response","274","1050679","0.0-2.0-2.45","bp","2","pretest","true","4112756","89","../img/tt/409tt.jpg","y",""
"null","../img/gs/409gs.jpg","","solution","image-keyboard-response","275","1052682","0.0-2.0-3.45","bp","2","pretest","true","4112756","null","","",""
"null","../img/tt/409tt.jpg","","mooney2","image-keyboard-response","276","1054684","0.0-2.0-4.45","bp","2","pretest","true","4112756","null","","",""
"634","<p>How strong was your <strong>aha-experience</strong>?</p>","","aha","html-keyboard-response","277","1055320","0.0-2.0-5.45","bp","2","pretest","true","4112756","49","../img/tt/409tt.jpg","","1"
"null","<div style=""font-size:60px;""> </div>","","fixation","html-keyboard-response","278","1055533","0.0-2.0-0.46","bp","2","pretest","true","4112756","null","","",""
"null","../img/tt/279tt.jpg","","mooney1","image-keyboard-response","279","1058536","0.0-2.0-1.46","bp","2","pretest","true","4112756","null","../img/tt/279tt.jpg","",""
"167","<p></p>","","recognized","html-keyboard-response","280","1058703","0.0-2.0-2.46","bp","2","pretest","true","4112756","78","../img/tt/279tt.jpg","n",""
"null","../img/gs/279gs.jpg","","solution","image-keyboard-response","281","1060715","0.0-2.0-3.46","bp","2","pretest","true","4112756","null","","",""
"null","../img/tt/279tt.jpg","","mooney2","image-keyboard-response","282","1062716","0.0-2.0-4.46","bp","2","pretest","true","4112756","null","","",""
"3762","<p>How strong was your <strong>aha-experience</strong>?</p>","","aha","html-keyboard-response","283","1066480","0.0-2.0-5.46","bp","2","pretest","true","4112756","51","../img/tt/279tt.jpg","","3"
"null","<div style=""font-size:60px;""> </div>","","fixation","html-keyboard-response","284","1066682","0.0-2.0-0.47","bp","2","pretest","true","4112756","null","","",""
"null","../img/tt/480tt.jpg","","mooney1","image-keyboard-response","285","1069688","0.0-2.0-1.47","bp","2","pretest","true","4112756","null","../img/tt/480tt.jpg","",""
"1119","<p></p>","","recognized","html-keyboard-response","286","1070807","0.0-2.0-2.47","bp","2","pretest","true","4112756","89","../img/tt/480tt.jpg","y",""
"null","../img/gs/480gs.jpg","","solution","image-keyboard-response","287","1072810","0.0-2.0-3.47","bp","2","pretest","true","4112756","null","","",""
"null","../img/tt/480tt.jpg","","mooney2","image-keyboard-response","288","1074812","0.0-2.0-4.47","bp","2","pretest","true","4112756","null","","",""
"634","<p>How strong was your <strong>aha-experience</strong>?</p>","","aha","html-keyboard-response","289","1075447","0.0-2.0-5.47","bp","2","pretest","true","4112756","49","../img/tt/480tt.jpg","","1"
"null","<div style=""font-size:60px;""> </div>","","fixation","html-keyboard-response","290","1075650","0.0-2.0-0.48","bp","2","pretest","true","4112756","null","","",""
"null","../img/tt/1320tt.jpg","","mooney1","image-keyboard-response","291","1078652","0.0-2.0-1.48","bp","2","pretest","true","4112756","null","../img/tt/1320tt.jpg","",""
"972","<p></p>","","recognized","html-keyboard-response","292","1079624","0.0-2.0-2.48","bp","2","pretest","true","4112756","89","../img/tt/1320tt.jpg","y",""
"null","../img/gs/1320gs.jpg","","solution","image-keyboard-response","293","1081636","0.0-2.0-3.48","bp","2","pretest","true","4112756","null","","",""
"null","../img/tt/1320tt.jpg","","mooney2","image-keyboard-response","294","1083650","0.0-2.0-4.48","bp","2","pretest","true","4112756","null","","",""
"1508","<p>How strong was your <strong>aha-experience</strong>?</p>","","aha","html-keyboard-response","295","1085159","0.0-2.0-5.48","bp","2","pretest","true","4112756","51","../img/tt/1320tt.jpg","","3"
"null","<div style=""font-size:60px;""> </div>","","fixation","html-keyboard-response","296","1085365","0.0-2.0-0.49","bp","2","pretest","true","4112756","null","","",""
"null","../img/tt/1312tt.jpg","","mooney1","image-keyboard-response","297","1088373","0.0-2.0-1.49","bp","2","pretest","true","4112756","null","../img/tt/1312tt.jpg","",""
"745","<p></p>","","recognized","html-keyboard-response","298","1089120","0.0-2.0-2.49","bp","2","pretest","true","4112756","89","../img/tt/1312tt.jpg","y",""
"null","../img/gs/1312gs.jpg","","solution","image-keyboard-response","299","1091123","0.0-2.0-3.49","bp","2","pretest","true","4112756","null","","",""
"null","../img/tt/1312tt.jpg","","mooney2","image-keyboard-response","300","1093125","0.0-2.0-4.49","bp","2","pretest","true","4112756","null","","",""
"873","<p>How strong was your <strong>aha-experience</strong>?</p>","","aha","html-keyboard-response","301","1093999","0.0-2.0-5.49","bp","2","pretest","true","4112756","49","../img/tt/1312tt.jpg","","1"
"null","<div style=""font-size:60px;""> </div>","","fixation","html-keyboard-response","302","1094212","0.0-2.0-0.50","bp","2","pretest","true","4112756","null","","",""
"null","../img/tt/221tt.jpg","","mooney1","image-keyboard-response","303","1097214","0.0-2.0-1.50","bp","2","pretest","true","4112756","null","../img/tt/221tt.jpg","",""
"432","<p></p>","","recognized","html-keyboard-response","304","1097647","0.0-2.0-2.50","bp","2","pretest","true","4112756","78","../img/tt/221tt.jpg","n",""
"null","../img/gs/221gs.jpg","","solution","image-keyboard-response","305","1099652","0.0-2.0-3.50","bp","2","pretest","true","4112756","null","","",""
"null","../img/tt/221tt.jpg","","mooney2","image-keyboard-response","306","1101654","0.0-2.0-4.50","bp","2","pretest","true","4112756","null","","",""
"457","<p>How strong was your <strong>aha-experience</strong>?</p>","","aha","html-keyboard-response","307","1102112","0.0-2.0-5.50","bp","2","pretest","true","4112756","52","../img/tt/221tt.jpg","","4"
"null","<div style=""font-size:60px;""> </div>","","fixation","html-keyboard-response","308","1102313","0.0-2.0-0.51","bp","2","pretest","true","4112756","null","","",""
"null","../img/tt/536tt.jpg","","mooney1","image-keyboard-response","309","1105325","0.0-2.0-1.51","bp","2","pretest","true","4112756","null","../img/tt/536tt.jpg","",""
"537","<p></p>","","recognized","html-keyboard-response","310","1105863","0.0-2.0-2.51","bp","2","pretest","true","4112756","78","../img/tt/536tt.jpg","n",""
"null","../img/gs/536gs.jpg","","solution","image-keyboard-response","311","1107866","0.0-2.0-3.51","bp","2","pretest","true","4112756","null","","",""
"null","../img/tt/536tt.jpg","","mooney2","image-keyboard-response","312","1109868","0.0-2.0-4.51","bp","2","pretest","true","4112756","null","","",""
"588","<p>How strong was your <strong>aha-experience</strong>?</p>","","aha","html-keyboard-response","313","1110457","0.0-2.0-5.51","bp","2","pretest","true","4112756","49","../img/tt/536tt.jpg","","1"
"null","<div style=""font-size:60px;""> </div>","","fixation","html-keyboard-response","314","1110665","0.0-2.0-0.52","bp","2","pretest","true","4112756","null","","",""
"null","../img/tt/418tt.jpg","","mooney1","image-keyboard-response","315","1113670","0.0-2.0-1.52","bp","2","pretest","true","4112756","null","../img/tt/418tt.jpg","",""
"1050","<p></p>","","recognized","html-keyboard-response","316","1114721","0.0-2.0-2.52","bp","2","pretest","true","4112756","78","../img/tt/418tt.jpg","n",""
"null","../img/gs/418gs.jpg","","solution","image-keyboard-response","317","1116729","0.0-2.0-3.52","bp","2","pretest","true","4112756","null","","",""
"null","../img/tt/418tt.jpg","","mooney2","image-keyboard-response","318","1118731","0.0-2.0-4.52","bp","2","pretest","true","4112756","null","","",""
"1381","<p>How strong was your <strong>aha-experience</strong>?</p>","","aha","html-keyboard-response","319","1120113","0.0-2.0-5.52","bp","2","pretest","true","4112756","49","../img/tt/418tt.jpg","","1"
"null","<div style=""font-size:60px;""> </div>","","fixation","html-keyboard-response","320","1120328","0.0-2.0-0.53","bp","2","pretest","true","4112756","null","","",""
"null","../img/tt/529tt.jpg","","mooney1","image-keyboard-response","321","1123330","0.0-2.0-1.53","bp","2","pretest","true","4112756","null","../img/tt/529tt.jpg","",""
"566","<p></p>","","recognized","html-keyboard-response","322","1123896","0.0-2.0-2.53","bp","2","pretest","true","4112756","89","../img/tt/529tt.jpg","y",""
"null","../img/gs/529gs.jpg","","solution","image-keyboard-response","323","1125898","0.0-2.0-3.53","bp","2","pretest","true","4112756","null","","",""
"null","../img/tt/529tt.jpg","","mooney2","image-keyboard-response","324","1127900","0.0-2.0-4.53","bp","2","pretest","true","4112756","null","","",""
"675","<p>How strong was your <strong>aha-experience</strong>?</p>","","aha","html-keyboard-response","325","1128576","0.0-2.0-5.53","bp","2","pretest","true","4112756","49","../img/tt/529tt.jpg","","1"
"null","<div style=""font-size:60px;""> </div>","","fixation","html-keyboard-response","326","1128779","0.0-2.0-0.54","bp","2","pretest","true","4112756","null","","",""
"null","../img/tt/236tt.jpg","","mooney1","image-keyboard-response","327","1131781","0.0-2.0-1.54","bp","2","pretest","true","4112756","null","../img/tt/236tt.jpg","",""
"851","<p></p>","","recognized","html-keyboard-response","328","1132633","0.0-2.0-2.54","bp","2","pretest","true","4112756","89","../img/tt/236tt.jpg","y",""
"null","../img/gs/236gs.jpg","","solution","image-keyboard-response","329","1134638","0.0-2.0-3.54","bp","2","pretest","true","4112756","null","","",""
"null","../img/tt/236tt.jpg","","mooney2","image-keyboard-response","330","1136651","0.0-2.0-4.54","bp","2","pretest","true","4112756","null","","",""
"1045","<p>How strong was your <strong>aha-experience</strong>?</p>","","aha","html-keyboard-response","331","1137697","0.0-2.0-5.54","bp","2","pretest","true","4112756","51","../img/tt/236tt.jpg","","3"
"null","<div style=""font-size:60px;""> </div>","","fixation","html-keyboard-response","332","1137900","0.0-2.0-0.55","bp","2","pretest","true","4112756","null","","",""
"null","../img/tt/137tt.jpg","","mooney1","image-keyboard-response","333","1140903","0.0-2.0-1.55","bp","2","pretest","true","4112756","null","../img/tt/137tt.jpg","",""
"801","<p></p>","","recognized","html-keyboard-response","334","1141705","0.0-2.0-2.55","bp","2","pretest","true","4112756","89","../img/tt/137tt.jpg","y",""
"null","../img/gs/137gs.jpg","","solution","image-keyboard-response","335","1143707","0.0-2.0-3.55","bp","2","pretest","true","4112756","null","","",""
"null","../img/tt/137tt.jpg","","mooney2","image-keyboard-response","336","1145718","0.0-2.0-4.55","bp","2","pretest","true","4112756","null","","",""
"779","<p>How strong was your <strong>aha-experience</strong>?</p>","","aha","html-keyboard-response","337","1146497","0.0-2.0-5.55","bp","2","pretest","true","4112756","52","../img/tt/137tt.jpg","","4"
"null","<div style=""font-size:60px;""> </div>","","fixation","html-keyboard-response","338","1146699","0.0-2.0-0.56","bp","2","pretest","true","4112756","null","","",""
"null","../img/tt/419tt.jpg","","mooney1","image-keyboard-response","339","1149703","0.0-2.0-1.56","bp","2","pretest","true","4112756","null","../img/tt/419tt.jpg","",""
"634","<p></p>","","recognized","html-keyboard-response","340","1150337","0.0-2.0-2.56","bp","2","pretest","true","4112756","89","../img/tt/419tt.jpg","y",""
"null","../img/gs/419gs.jpg","","solution","image-keyboard-response","341","1152339","0.0-2.0-3.56","bp","2","pretest","true","4112756","null","","",""
"null","../img/tt/419tt.jpg","","mooney2","image-keyboard-response","342","1154342","0.0-2.0-4.56","bp","2","pretest","true","4112756","null","","",""
"930","<p>How strong was your <strong>aha-experience</strong>?</p>","","aha","html-keyboard-response","343","1155273","0.0-2.0-5.56","bp","2","pretest","true","4112756","51","../img/tt/419tt.jpg","","3"
"null","<div style=""font-size:60px;""> </div>","","fixation","html-keyboard-response","344","1155475","0.0-2.0-0.57","bp","2","pretest","true","4112756","null","","",""
"null","../img/tt/1318tt.jpg","","mooney1","image-keyboard-response","345","1158481","0.0-2.0-1.57","bp","2","pretest","true","4112756","null","../img/tt/1318tt.jpg","",""
"742","<p></p>","","recognized","html-keyboard-response","346","1159225","0.0-2.0-2.57","bp","2","pretest","true","4112756","89","../img/tt/1318tt.jpg","y",""
"null","../img/gs/1318gs.jpg","","solution","image-keyboard-response","347","1161227","0.0-2.0-3.57","bp","2","pretest","true","4112756","null","","",""
"null","../img/tt/1318tt.jpg","","mooney2","image-keyboard-response","348","1163243","0.0-2.0-4.57","bp","2","pretest","true","4112756","null","","",""
"757","<p>How strong was your <strong>aha-experience</strong>?</p>","","aha","html-keyboard-response","349","1164001","0.0-2.0-5.57","bp","2","pretest","true","4112756","49","../img/tt/1318tt.jpg","","1"
"null","<div style=""font-size:60px;""> </div>","","fixation","html-keyboard-response","350","1164207","0.0-2.0-0.58","bp","2","pretest","true","4112756","null","","",""
"null","../img/tt/1360tt.jpg","","mooney1","image-keyboard-response","351","1167209","0.0-2.0-1.58","bp","2","pretest","true","4112756","null","../img/tt/1360tt.jpg","",""
"767","<p></p>","","recognized","html-keyboard-response","352","1167977","0.0-2.0-2.58","bp","2","pretest","true","4112756","89","../img/tt/1360tt.jpg","y",""
"null","../img/gs/1360gs.jpg","","solution","image-keyboard-response","353","1169982","0.0-2.0-3.58","bp","2","pretest","true","4112756","null","","",""
"null","../img/tt/1360tt.jpg","","mooney2","image-keyboard-response","354","1171993","0.0-2.0-4.58","bp","2","pretest","true","4112756","null","","",""
"680","<p>How strong was your <strong>aha-experience</strong>?</p>","","aha","html-keyboard-response","355","1172675","0.0-2.0-5.58","bp","2","pretest","true","4112756","49","../img/tt/1360tt.jpg","","1"
"null","<div style=""font-size:60px;""> </div>","","fixation","html-keyboard-response","356","1172877","0.0-2.0-0.59","bp","2","pretest","true","4112756","null","","",""
"null","../img/tt/541tt.jpg","","mooney1","image-keyboard-response","357","1175889","0.0-2.0-1.59","bp","2","pretest","true","4112756","null","../img/tt/541tt.jpg","",""
"1210","<p></p>","","recognized","html-keyboard-response","358","1177099","0.0-2.0-2.59","bp","2","pretest","true","4112756","89","../img/tt/541tt.jpg","y",""
"null","../img/gs/541gs.jpg","","solution","image-keyboard-response","359","1179108","0.0-2.0-3.59","bp","2","pretest","true","4112756","null","","",""
"null","../img/tt/541tt.jpg","","mooney2","image-keyboard-response","360","1181109","0.0-2.0-4.59","bp","2","pretest","true","4112756","null","","",""
"1589","<p>How strong was your <strong>aha-experience</strong>?</p>","","aha","html-keyboard-response","361","1182699","0.0-2.0-5.59","bp","2","pretest","true","4112756","52","../img/tt/541tt.jpg","","4"
"null","<div style=""font-size:60px;""> </div>","","fixation","html-keyboard-response","362","1182908","0.0-2.0-0.60","bp","2","pretest","true","4112756","null","","",""
"null","../img/tt/357tt.jpg","","mooney1","image-keyboard-response","363","1185923","0.0-2.0-1.60","bp","2","pretest","true","4112756","null","../img/tt/357tt.jpg","",""
"719","<p></p>","","recognized","html-keyboard-response","364","1186643","0.0-2.0-2.60","bp","2","pretest","true","4112756","89","../img/tt/357tt.jpg","y",""
"null","../img/gs/357gs.jpg","","solution","image-keyboard-response","365","1188652","0.0-2.0-3.60","bp","2","pretest","true","4112756","null","","",""
"null","../img/tt/357tt.jpg","","mooney2","image-keyboard-response","366","1190666","0.0-2.0-4.60","bp","2","pretest","true","4112756","null","","",""
"488","<p>How strong was your <strong>aha-experience</strong>?</p>","","aha","html-keyboard-response","367","1191155","0.0-2.0-5.60","bp","2","pretest","true","4112756","52","../img/tt/357tt.jpg","","4"
"null","<div style=""font-size:60px;""> </div>","","fixation","html-keyboard-response","368","1191371","0.0-2.0-0.61","bp","2","pretest","true","4112756","null","","",""
"null","../img/tt/344tt.jpg","","mooney1","image-keyboard-response","369","1194374","0.0-2.0-1.61","bp","2","pretest","true","4112756","null","../img/tt/344tt.jpg","",""
"708","<p></p>","","recognized","html-keyboard-response","370","1195083","0.0-2.0-2.61","bp","2","pretest","true","4112756","89","../img/tt/344tt.jpg","y",""
"null","../img/gs/344gs.jpg","","solution","image-keyboard-response","371","1197087","0.0-2.0-3.61","bp","2","pretest","true","4112756","null","","",""
"null","../img/tt/344tt.jpg","","mooney2","image-keyboard-response","372","1199088","0.0-2.0-4.61","bp","2","pretest","true","4112756","null","","",""
"1034","<p>How strong was your <strong>aha-experience</strong>?</p>","","aha","html-keyboard-response","373","1200123","0.0-2.0-5.61","bp","2","pretest","true","4112756","52","../img/tt/344tt.jpg","","4"
"null","<div style=""font-size:60px;""> </div>","","fixation","html-keyboard-response","374","1200324","0.0-2.0-0.62","bp","2","pretest","true","4112756","null","","",""
"null","../img/tt/593tt.jpg","","mooney1","image-keyboard-response","375","1203327","0.0-2.0-1.62","bp","2","pretest","true","4112756","null","../img/tt/593tt.jpg","",""
"859","<p></p>","","recognized","html-keyboard-response","376","1204187","0.0-2.0-2.62","bp","2","pretest","true","4112756","89","../img/tt/593tt.jpg","y",""
"null","../img/gs/593gs.jpg","","solution","image-keyboard-response","377","1206191","0.0-2.0-3.62","bp","2","pretest","true","4112756","null","","",""
"null","../img/tt/593tt.jpg","","mooney2","image-keyboard-response","378","1208193","0.0-2.0-4.62","bp","2","pretest","true","4112756","null","","",""
"1145","<p>How strong was your <strong>aha-experience</strong>?</p>","","aha","html-keyboard-response","379","1209339","0.0-2.0-5.62","bp","2","pretest","true","4112756","51","../img/tt/593tt.jpg","","3"
"null","<div style=""font-size:60px;""> </div>","","fixation","html-keyboard-response","380","1209554","0.0-2.0-0.63","bp","2","pretest","true","4112756","null","","",""
"null","../img/tt/187tt.jpg","","mooney1","image-keyboard-response","381","1212557","0.0-2.0-1.63","bp","2","pretest","true","4112756","null","../img/tt/187tt.jpg","",""
"797","<p></p>","","recognized","html-keyboard-response","382","1213355","0.0-2.0-2.63","bp","2","pretest","true","4112756","78","../img/tt/187tt.jpg","n",""
"null","../img/gs/187gs.jpg","","solution","image-keyboard-response","383","1215358","0.0-2.0-3.63","bp","2","pretest","true","4112756","null","","",""
"null","../img/tt/187tt.jpg","","mooney2","image-keyboard-response","384","1217359","0.0-2.0-4.63","bp","2","pretest","true","4112756","null","","",""
"1850","<p>How strong was your <strong>aha-experience</strong>?</p>","","aha","html-keyboard-response","385","1219210","0.0-2.0-5.63","bp","2","pretest","true","4112756","49","../img/tt/187tt.jpg","","1"
"null","<div style=""font-size:60px;""> </div>","","fixation","html-keyboard-response","386","1219411","0.0-2.0-0.64","bp","2","pretest","true","4112756","null","","",""
"null","../img/tt/553tt.jpg","","mooney1","image-keyboard-response","387","1222426","0.0-2.0-1.64","bp","2","pretest","true","4112756","null","../img/tt/553tt.jpg","",""
"729","<p></p>","","recognized","html-keyboard-response","388","1223155","0.0-2.0-2.64","bp","2","pretest","true","4112756","78","../img/tt/553tt.jpg","n",""
"null","../img/gs/553gs.jpg","","solution","image-keyboard-response","389","1225157","0.0-2.0-3.64","bp","2","pretest","true","4112756","null","","",""
"null","../img/tt/553tt.jpg","","mooney2","image-keyboard-response","390","1227158","0.0-2.0-4.64","bp","2","pretest","true","4112756","null","","",""
"699","<p>How strong was your <strong>aha-experience</strong>?</p>","","aha","html-keyboard-response","391","1227859","0.0-2.0-5.64","bp","2","pretest","true","4112756","49","../img/tt/553tt.jpg","","1"
"null","<div style=""font-size:60px;""> </div>","","fixation","html-keyboard-response","392","1228060","0.0-2.0-0.65","bp","2","pretest","true","4112756","null","","",""
"null","../img/tt/254tt.jpg","","mooney1","image-keyboard-response","393","1231063","0.0-2.0-1.65","bp","2","pretest","true","4112756","null","../img/tt/254tt.jpg","",""
"698","<p></p>","","recognized","html-keyboard-response","394","1231763","0.0-2.0-2.65","bp","2","pretest","true","4112756","89","../img/tt/254tt.jpg","y",""
"null","../img/gs/254gs.jpg","","solution","image-keyboard-response","395","1233766","0.0-2.0-3.65","bp","2","pretest","true","4112756","null","","",""
"null","../img/tt/254tt.jpg","","mooney2","image-keyboard-response","396","1235779","0.0-2.0-4.65","bp","2","pretest","true","4112756","null","","",""
"1008","<p>How strong was your <strong>aha-experience</strong>?</p>","","aha","html-keyboard-response","397","1236787","0.0-2.0-5.65","bp","2","pretest","true","4112756","49","../img/tt/254tt.jpg","","1"
"null","<div style=""font-size:60px;""> </div>","","fixation","html-keyboard-response","398","1237001","0.0-2.0-0.66","bp","2","pretest","true","4112756","null","","",""
"null","../img/tt/343tt.jpg","","mooney1","image-keyboard-response","399","1240017","0.0-2.0-1.66","bp","2","pretest","true","4112756","null","../img/tt/343tt.jpg","",""
"777","<p></p>","","recognized","html-keyboard-response","400","1240795","0.0-2.0-2.66","bp","2","pretest","true","4112756","89","../img/tt/343tt.jpg","y",""
"null","../img/gs/343gs.jpg","","solution","image-keyboard-response","401","1242798","0.0-2.0-3.66","bp","2","pretest","true","4112756","null","","",""
"null","../img/tt/343tt.jpg","","mooney2","image-keyboard-response","402","1244814","0.0-2.0-4.66","bp","2","pretest","true","4112756","null","","",""
"796","<p>How strong was your <strong>aha-experience</strong>?</p>","","aha","html-keyboard-response","403","1245611","0.0-2.0-5.66","bp","2","pretest","true","4112756","49","../img/tt/343tt.jpg","","1"
"null","<div style=""font-size:60px;""> </div>","","fixation","html-keyboard-response","404","1245819","0.0-2.0-0.67","bp","2","pretest","true","4112756","null","","",""
"null","../img/tt/518tt.jpg","","mooney1","image-keyboard-response","405","1248821","0.0-2.0-1.67","bp","2","pretest","true","4112756","null","../img/tt/518tt.jpg","",""
"821","<p></p>","","recognized","html-keyboard-response","406","1249643","0.0-2.0-2.67","bp","2","pretest","true","4112756","78","../img/tt/518tt.jpg","n",""
"null","../img/gs/518gs.jpg","","solution","image-keyboard-response","407","1251655","0.0-2.0-3.67","bp","2","pretest","true","4112756","null","","",""
"null","../img/tt/518tt.jpg","","mooney2","image-keyboard-response","408","1253671","0.0-2.0-4.67","bp","2","pretest","true","4112756","null","","",""
"763","<p>How strong was your <strong>aha-experience</strong>?</p>","","aha","html-keyboard-response","409","1254435","0.0-2.0-5.67","bp","2","pretest","true","4112756","51","../img/tt/518tt.jpg","","3"
"null","<div style=""font-size:60px;""> </div>","","fixation","html-keyboard-response","410","1254650","0.0-2.0-0.68","bp","2","pretest","true","4112756","null","","",""
"null","../img/tt/436tt.jpg","","mooney1","image-keyboard-response","411","1257651","0.0-2.0-1.68","bp","2","pretest","true","4112756","null","../img/tt/436tt.jpg","",""
"695","<p></p>","","recognized","html-keyboard-response","412","1258348","0.0-2.0-2.68","bp","2","pretest","true","4112756","89","../img/tt/436tt.jpg","y",""
"null","../img/gs/436gs.jpg","","solution","image-keyboard-response","413","1260350","0.0-2.0-3.68","bp","2","pretest","true","4112756","null","","",""
"null","../img/tt/436tt.jpg","","mooney2","image-keyboard-response","414","1262353","0.0-2.0-4.68","bp","2","pretest","true","4112756","null","","",""
"513","<p>How strong was your <strong>aha-experience</strong>?</p>","","aha","html-keyboard-response","415","1262867","0.0-2.0-5.68","bp","2","pretest","true","4112756","53","../img/tt/436tt.jpg","","5"
"null","<div style=""font-size:60px;""> </div>","","fixation","html-keyboard-response","416","1263080","0.0-2.0-0.69","bp","2","pretest","true","4112756","null","","",""
"null","../img/tt/230tt.jpg","","mooney1","image-keyboard-response","417","1266082","0.0-2.0-1.69","bp","2","pretest","true","4112756","null","../img/tt/230tt.jpg","",""
"728","<p></p>","","recognized","html-keyboard-response","418","1266811","0.0-2.0-2.69","bp","2","pretest","true","4112756","89","../img/tt/230tt.jpg","y",""
"null","../img/gs/230gs.jpg","","solution","image-keyboard-response","419","1268814","0.0-2.0-3.69","bp","2","pretest","true","4112756","null","","",""
"null","../img/tt/230tt.jpg","","mooney2","image-keyboard-response","420","1270829","0.0-2.0-4.69","bp","2","pretest","true","4112756","null","","",""
"662","<p>How strong was your <strong>aha-experience</strong>?</p>","","aha","html-keyboard-response","421","1271491","0.0-2.0-5.69","bp","2","pretest","true","4112756","52","../img/tt/230tt.jpg","","4"
"null","<div style=""font-size:60px;""> </div>","","fixation","html-keyboard-response","422","1271693","0.0-2.0-0.70","bp","2","pretest","true","4112756","null","","",""
"null","../img/tt/580tt.jpg","","mooney1","image-keyboard-response","423","1274695","0.0-2.0-1.70","bp","2","pretest","true","4112756","null","../img/tt/580tt.jpg","",""
"740","<p></p>","","recognized","html-keyboard-response","424","1275435","0.0-2.0-2.70","bp","2","pretest","true","4112756","89","../img/tt/580tt.jpg","y",""
"null","../img/gs/580gs.jpg","","solution","image-keyboard-response","425","1277441","0.0-2.0-3.70","bp","2","pretest","true","4112756","null","","",""
"null","../img/tt/580tt.jpg","","mooney2","image-keyboard-response","426","1279447","0.0-2.0-4.70","bp","2","pretest","true","4112756","null","","",""
"675","<p>How strong was your <strong>aha-experience</strong>?</p>","","aha","html-keyboard-response","427","1280123","0.0-2.0-5.70","bp","2","pretest","true","4112756","53","../img/tt/580tt.jpg","","5"
"null","<div style=""font-size:60px;""> </div>","","fixation","html-keyboard-response","428","1280329","0.0-2.0-0.71","bp","2","pretest","true","4112756","null","","",""
"null","../img/tt/396tt.jpg","","mooney1","image-keyboard-response","429","1283351","0.0-2.0-1.71","bp","2","pretest","true","4112756","null","../img/tt/396tt.jpg","",""
"611","<p></p>","","recognized","html-keyboard-response","430","1283964","0.0-2.0-2.71","bp","2","pretest","true","4112756","78","../img/tt/396tt.jpg","n",""
"null","../img/gs/396gs.jpg","","solution","image-keyboard-response","431","1285966","0.0-2.0-3.71","bp","2","pretest","true","4112756","null","","",""
"null","../img/tt/396tt.jpg","","mooney2","image-keyboard-response","432","1287968","0.0-2.0-4.71","bp","2","pretest","true","4112756","null","","",""
"562","<p>How strong was your <strong>aha-experience</strong>?</p>","","aha","html-keyboard-response","433","1288531","0.0-2.0-5.71","bp","2","pretest","true","4112756","49","../img/tt/396tt.jpg","","1"
"null","<div style=""font-size:60px;""> </div>","","fixation","html-keyboard-response","434","1288733","0.0-2.0-0.72","bp","2","pretest","true","4112756","null","","",""
"null","../img/tt/583tt.jpg","","mooney1","image-keyboard-response","435","1291736","0.0-2.0-1.72","bp","2","pretest","true","4112756","null","../img/tt/583tt.jpg","",""
"563","<p></p>","","recognized","html-keyboard-response","436","1292299","0.0-2.0-2.72","bp","2","pretest","true","4112756","89","../img/tt/583tt.jpg","y",""
"null","../img/gs/583gs.jpg","","solution","image-keyboard-response","437","1294302","0.0-2.0-3.72","bp","2","pretest","true","4112756","null","","",""
"null","../img/tt/583tt.jpg","","mooney2","image-keyboard-response","438","1296305","0.0-2.0-4.72","bp","2","pretest","true","4112756","null","","",""
"578","<p>How strong was your <strong>aha-experience</strong>?</p>","","aha","html-keyboard-response","439","1296884","0.0-2.0-5.72","bp","2","pretest","true","4112756","49","../img/tt/583tt.jpg","","1"
"null","<div style=""font-size:60px;""> </div>","","fixation","html-keyboard-response","440","1297087","0.0-2.0-0.73","bp","2","pretest","true","4112756","null","","",""
"null","../img/tt/1304tt.jpg","","mooney1","image-keyboard-response","441","1300089","0.0-2.0-1.73","bp","2","pretest","true","4112756","null","../img/tt/1304tt.jpg","",""
"577","<p></p>","","recognized","html-keyboard-response","442","1300667","0.0-2.0-2.73","bp","2","pretest","true","4112756","89","../img/tt/1304tt.jpg","y",""
"null","../img/gs/1304gs.jpg","","solution","image-keyboard-response","443","1302669","0.0-2.0-3.73","bp","2","pretest","true","4112756","null","","",""
"null","../img/tt/1304tt.jpg","","mooney2","image-keyboard-response","444","1304672","0.0-2.0-4.73","bp","2","pretest","true","4112756","null","","",""
"227","<p>How strong was your <strong>aha-experience</strong>?</p>","","aha","html-keyboard-response","445","1304900","0.0-2.0-5.73","bp","2","pretest","true","4112756","52","../img/tt/1304tt.jpg","","4"
"null","<div style=""font-size:60px;""> </div>","","fixation","html-keyboard-response","446","1305111","0.0-2.0-0.74","bp","2","pretest","true","4112756","null","","",""
"null","../img/tt/424tt.jpg","","mooney1","image-keyboard-response","447","1308113","0.0-2.0-1.74","bp","2","pretest","true","4112756","null","../img/tt/424tt.jpg","",""
"634","<p></p>","","recognized","html-keyboard-response","448","1308748","0.0-2.0-2.74","bp","2","pretest","true","4112756","89","../img/tt/424tt.jpg","y",""
"null","../img/gs/424gs.jpg","","solution","image-keyboard-response","449","1310752","0.0-2.0-3.74","bp","2","pretest","true","4112756","null","","",""
"null","../img/tt/424tt.jpg","","mooney2","image-keyboard-response","450","1312754","0.0-2.0-4.74","bp","2","pretest","true","4112756","null","","",""
"1218","<p>How strong was your <strong>aha-experience</strong>?</p>","","aha","html-keyboard-response","451","1313972","0.0-2.0-5.74","bp","2","pretest","true","4112756","53","../img/tt/424tt.jpg","","5"
"null","<div style=""font-size:60px;""> </div>","","fixation","html-keyboard-response","452","1314174","0.0-2.0-0.75","bp","2","pretest","true","4112756","null","","",""
"null","../img/tt/1308tt.jpg","","mooney1","image-keyboard-response","453","1317184","0.0-2.0-1.75","bp","2","pretest","true","4112756","null","../img/tt/1308tt.jpg","",""
"963","<p></p>","","recognized","html-keyboard-response","454","1318148","0.0-2.0-2.75","bp","2","pretest","true","4112756","89","../img/tt/1308tt.jpg","y",""
"null","../img/gs/1308gs.jpg","","solution","image-keyboard-response","455","1320151","0.0-2.0-3.75","bp","2","pretest","true","4112756","null","","",""
"null","../img/tt/1308tt.jpg","","mooney2","image-keyboard-response","456","1322153","0.0-2.0-4.75","bp","2","pretest","true","4112756","null","","",""
"794","<p>How strong was your <strong>aha-experience</strong>?</p>","","aha","html-keyboard-response","457","1322948","0.0-2.0-5.75","bp","2","pretest","true","4112756","52","../img/tt/1308tt.jpg","","4"
"null","<div style=""font-size:60px;""> </div>","","fixation","html-keyboard-response","458","1323159","0.0-2.0-0.76","bp","2","pretest","true","4112756","null","","",""
"null","../img/tt/179tt.jpg","","mooney1","image-keyboard-response","459","1326167","0.0-2.0-1.76","bp","2","pretest","true","4112756","null","../img/tt/179tt.jpg","",""
"588","<p></p>","","recognized","html-keyboard-response","460","1326756","0.0-2.0-2.76","bp","2","pretest","true","4112756","78","../img/tt/179tt.jpg","n",""
"null","../img/gs/179gs.jpg","","solution","image-keyboard-response","461","1328758","0.0-2.0-3.76","bp","2","pretest","true","4112756","null","","",""
"null","../img/tt/179tt.jpg","","mooney2","image-keyboard-response","462","1330763","0.0-2.0-4.76","bp","2","pretest","true","4112756","null","","",""
"504","<p>How strong was your <strong>aha-experience</strong>?</p>","","aha","html-keyboard-response","463","1331268","0.0-2.0-5.76","bp","2","pretest","true","4112756","49","../img/tt/179tt.jpg","","1"
"null","<div style=""font-size:60px;""> </div>","","fixation","html-keyboard-response","464","1331474","0.0-2.0-0.77","bp","2","pretest","true","4112756","null","","",""
"null","../img/tt/452tt.jpg","","mooney1","image-keyboard-response","465","1334476","0.0-2.0-1.77","bp","2","pretest","true","4112756","null","../img/tt/452tt.jpg","",""
"487","<p></p>","","recognized","html-keyboard-response","466","1334964","0.0-2.0-2.77","bp","2","pretest","true","4112756","78","../img/tt/452tt.jpg","n",""
"null","../img/gs/452gs.jpg","","solution","image-keyboard-response","467","1336968","0.0-2.0-3.77","bp","2","pretest","true","4112756","null","","",""
"null","../img/tt/452tt.jpg","","mooney2","image-keyboard-response","468","1338979","0.0-2.0-4.77","bp","2","pretest","true","4112756","null","","",""
"792","<p>How strong was your <strong>aha-experience</strong>?</p>","","aha","html-keyboard-response","469","1339772","0.0-2.0-5.77","bp","2","pretest","true","4112756","51","../img/tt/452tt.jpg","","3"
"null","<div style=""font-size:60px;""> </div>","","fixation","html-keyboard-response","470","1339974","0.0-2.0-0.78","bp","2","pretest","true","4112756","null","","",""
"null","../img/tt/447tt.jpg","","mooney1","image-keyboard-response","471","1342976","0.0-2.0-1.78","bp","2","pretest","true","4112756","null","../img/tt/447tt.jpg","",""
"627","<p></p>","","recognized","html-keyboard-response","472","1343604","0.0-2.0-2.78","bp","2","pretest","true","4112756","89","../img/tt/447tt.jpg","y",""
"null","../img/gs/447gs.jpg","","solution","image-keyboard-response","473","1345608","0.0-2.0-3.78","bp","2","pretest","true","4112756","null","","",""
"null","../img/tt/447tt.jpg","","mooney2","image-keyboard-response","474","1347625","0.0-2.0-4.78","bp","2","pretest","true","4112756","null","","",""
"858","<p>How strong was your <strong>aha-experience</strong>?</p>","","aha","html-keyboard-response","475","1348484","0.0-2.0-5.78","bp","2","pretest","true","4112756","51","../img/tt/447tt.jpg","","3"
"null","<div style=""font-size:60px;""> </div>","","fixation","html-keyboard-response","476","1348686","0.0-2.0-0.79","bp","2","pretest","true","4112756","null","","",""
"null","../img/tt/243tt.jpg","","mooney1","image-keyboard-response","477","1351690","0.0-2.0-1.79","bp","2","pretest","true","4112756","null","../img/tt/243tt.jpg","",""
"801","<p></p>","","recognized","html-keyboard-response","478","1352492","0.0-2.0-2.79","bp","2","pretest","true","4112756","89","../img/tt/243tt.jpg","y",""
"null","../img/gs/243gs.jpg","","solution","image-keyboard-response","479","1354496","0.0-2.0-3.79","bp","2","pretest","true","4112756","null","","",""
"null","../img/tt/243tt.jpg","","mooney2","image-keyboard-response","480","1356503","0.0-2.0-4.79","bp","2","pretest","true","4112756","null","","",""
"604","<p>How strong was your <strong>aha-experience</strong>?</p>","","aha","html-keyboard-response","481","1357109","0.0-2.0-5.79","bp","2","pretest","true","4112756","49","../img/tt/243tt.jpg","","1"
"null","<div style=""font-size:60px;""> </div>","","fixation","html-keyboard-response","482","1357316","0.0-2.0-0.80","bp","2","pretest","true","4112756","null","","",""
"null","../img/tt/426tt.jpg","","mooney1","image-keyboard-response","483","1360318","0.0-2.0-1.80","bp","2","pretest","true","4112756","null","../img/tt/426tt.jpg","",""
"805","<p></p>","","recognized","html-keyboard-response","484","1361125","0.0-2.0-2.80","bp","2","pretest","true","4112756","89","../img/tt/426tt.jpg","y",""
"null","../img/gs/426gs.jpg","","solution","image-keyboard-response","485","1363142","0.0-2.0-3.80","bp","2","pretest","true","4112756","null","","",""
"null","../img/tt/426tt.jpg","","mooney2","image-keyboard-response","486","1365145","0.0-2.0-4.80","bp","2","pretest","true","4112756","null","","",""
"706","<p>How strong was your <strong>aha-experience</strong>?</p>","","aha","html-keyboard-response","487","1365852","0.0-2.0-5.80","bp","2","pretest","true","4112756","52","../img/tt/426tt.jpg","","4"
"null","<div style=""font-size:60px;""> </div>","","fixation","html-keyboard-response","488","1366054","0.0-2.0-0.81","bp","2","pretest","true","4112756","null","","",""
"null","../img/tt/144tt.jpg","","mooney1","image-keyboard-response","489","1369058","0.0-2.0-1.81","bp","2","pretest","true","4112756","null","../img/tt/144tt.jpg","",""
"522","<p></p>","","recognized","html-keyboard-response","490","1369581","0.0-2.0-2.81","bp","2","pretest","true","4112756","89","../img/tt/144tt.jpg","y",""
"null","../img/gs/144gs.jpg","","solution","image-keyboard-response","491","1371585","0.0-2.0-3.81","bp","2","pretest","true","4112756","null","","",""
"null","../img/tt/144tt.jpg","","mooney2","image-keyboard-response","492","1373586","0.0-2.0-4.81","bp","2","pretest","true","4112756","null","","",""
"90","<p>How strong was your <strong>aha-experience</strong>?</p>","","aha","html-keyboard-response","493","1373677","0.0-2.0-5.81","bp","2","pretest","true","4112756","51","../img/tt/144tt.jpg","","3"
"null","<div style=""font-size:60px;""> </div>","","fixation","html-keyboard-response","494","1373878","0.0-2.0-0.82","bp","2","pretest","true","4112756","null","","",""
"null","../img/tt/568tt.jpg","","mooney1","image-keyboard-response","495","1376893","0.0-2.0-1.82","bp","2","pretest","true","4112756","null","../img/tt/568tt.jpg","",""
"2670","<p></p>","","recognized","html-keyboard-response","496","1379564","0.0-2.0-2.82","bp","2","pretest","true","4112756","89","../img/tt/568tt.jpg","y",""
"null","../img/gs/568gs.jpg","","solution","image-keyboard-response","497","1381568","0.0-2.0-3.82","bp","2","pretest","true","4112756","null","","",""
"null","../img/tt/568tt.jpg","","mooney2","image-keyboard-response","498","1383580","0.0-2.0-4.82","bp","2","pretest","true","4112756","null","","",""
"1856","<p>How strong was your <strong>aha-experience</strong>?</p>","","aha","html-keyboard-response","499","1385437","0.0-2.0-5.82","bp","2","pretest","true","4112756","49","../img/tt/568tt.jpg","","1"
"null","<div style=""font-size:60px;""> </div>","","fixation","html-keyboard-response","500","1385644","0.0-2.0-0.83","bp","2","pretest","true","4112756","null","","",""
"null","../img/tt/601tt.jpg","","mooney1","image-keyboard-response","501","1388645","0.0-2.0-1.83","bp","2","pretest","true","4112756","null","../img/tt/601tt.jpg","",""
"485","<p></p>","","recognized","html-keyboard-response","502","1389133","0.0-2.0-2.83","bp","2","pretest","true","4112756","78","../img/tt/601tt.jpg","n",""
"null","../img/gs/601gs.jpg","","solution","image-keyboard-response","503","1391135","0.0-2.0-3.83","bp","2","pretest","true","4112756","null","","",""
"null","../img/tt/601tt.jpg","","mooney2","image-keyboard-response","504","1393137","0.0-2.0-4.83","bp","2","pretest","true","4112756","null","","",""
"570","<p>How strong was your <strong>aha-experience</strong>?</p>","","aha","html-keyboard-response","505","1393708","0.0-2.0-5.83","bp","2","pretest","true","4112756","49","../img/tt/601tt.jpg","","1"
"null","<div style=""font-size:60px;""> </div>","","fixation","html-keyboard-response","506","1393910","0.0-2.0-0.84","bp","2","pretest","true","4112756","null","","",""
"null","../img/tt/1337tt.jpg","","mooney1","image-keyboard-response","507","1396925","0.0-2.0-1.84","bp","2","pretest","true","4112756","null","../img/tt/1337tt.jpg","",""
"462","<p></p>","","recognized","html-keyboard-response","508","1397388","0.0-2.0-2.84","bp","2","pretest","true","4112756","89","../img/tt/1337tt.jpg","y",""
"null","../img/gs/1337gs.jpg","","solution","image-keyboard-response","509","1399390","0.0-2.0-3.84","bp","2","pretest","true","4112756","null","","",""
"null","../img/tt/1337tt.jpg","","mooney2","image-keyboard-response","510","1401392","0.0-2.0-4.84","bp","2","pretest","true","4112756","null","","",""
"963","<p>How strong was your <strong>aha-experience</strong>?</p>","","aha","html-keyboard-response","511","1402357","0.0-2.0-5.84","bp","2","pretest","true","4112756","53","../img/tt/1337tt.jpg","","5"
"null","<div style=""font-size:60px;""> </div>","","fixation","html-keyboard-response","512","1402558","0.0-2.0-0.85","bp","2","pretest","true","4112756","null","","",""
"null","../img/tt/253tt.jpg","","mooney1","image-keyboard-response","513","1405560","0.0-2.0-1.85","bp","2","pretest","true","4112756","null","../img/tt/253tt.jpg","",""
"500","<p></p>","","recognized","html-keyboard-response","514","1406061","0.0-2.0-2.85","bp","2","pretest","true","4112756","78","../img/tt/253tt.jpg","n",""
"null","../img/gs/253gs.jpg","","solution","image-keyboard-response","515","1408075","0.0-2.0-3.85","bp","2","pretest","true","4112756","null","","",""
"null","../img/tt/253tt.jpg","","mooney2","image-keyboard-response","516","1410077","0.0-2.0-4.85","bp","2","pretest","true","4112756","null","","",""
"966","<p>How strong was your <strong>aha-experience</strong>?</p>","","aha","html-keyboard-response","517","1411045","0.0-2.0-5.85","bp","2","pretest","true","4112756","51","../img/tt/253tt.jpg","","3"
"null","<div style=""font-size:60px;""> </div>","","fixation","html-keyboard-response","518","1411249","0.0-2.0-0.86","bp","2","pretest","true","4112756","null","","",""
"null","../img/tt/383tt.jpg","","mooney1","image-keyboard-response","519","1414251","0.0-2.0-1.86","bp","2","pretest","true","4112756","null","../img/tt/383tt.jpg","",""
"733","<p></p>","","recognized","html-keyboard-response","520","1414987","0.0-2.0-2.86","bp","2","pretest","true","4112756","89","../img/tt/383tt.jpg","y",""
"null","../img/gs/383gs.jpg","","solution","image-keyboard-response","521","1416990","0.0-2.0-3.86","bp","2","pretest","true","4112756","null","","",""
"null","../img/tt/383tt.jpg","","mooney2","image-keyboard-response","522","1418992","0.0-2.0-4.86","bp","2","pretest","true","4112756","null","","",""
"626","<p>How strong was your <strong>aha-experience</strong>?</p>","","aha","html-keyboard-response","523","1419619","0.0-2.0-5.86","bp","2","pretest","true","4112756","51","../img/tt/383tt.jpg","","3"
"null","<div style=""font-size:60px;""> </div>","","fixation","html-keyboard-response","524","1419821","0.0-2.0-0.87","bp","2","pretest","true","4112756","null","","",""
"null","../img/tt/559tt.jpg","","mooney1","image-keyboard-response","525","1422823","0.0-2.0-1.87","bp","2","pretest","true","4112756","null","../img/tt/559tt.jpg","",""
"675","<p></p>","","recognized","html-keyboard-response","526","1423499","0.0-2.0-2.87","bp","2","pretest","true","4112756","78","../img/tt/559tt.jpg","n",""
"null","../img/gs/559gs.jpg","","solution","image-keyboard-response","527","1425501","0.0-2.0-3.87","bp","2","pretest","true","4112756","null","","",""
"null","../img/tt/559tt.jpg","","mooney2","image-keyboard-response","528","1427517","0.0-2.0-4.87","bp","2","pretest","true","4112756","null","","",""
"500","<p>How strong was your <strong>aha-experience</strong>?</p>","","aha","html-keyboard-response","529","1428019","0.0-2.0-5.87","bp","2","pretest","true","4112756","49","../img/tt/559tt.jpg","","1"
"null","<div style=""font-size:60px;""> </div>","","fixation","html-keyboard-response","530","1428221","0.0-2.0-0.88","bp","2","pretest","true","4112756","null","","",""
"null","../img/tt/489tt.jpg","","mooney1","image-keyboard-response","531","1431224","0.0-2.0-1.88","bp","2","pretest","true","4112756","null","../img/tt/489tt.jpg","",""
"657","<p></p>","","recognized","html-keyboard-response","532","1431883","0.0-2.0-2.88","bp","2","pretest","true","4112756","89","../img/tt/489tt.jpg","y",""
"null","../img/gs/489gs.jpg","","solution","image-keyboard-response","533","1433885","0.0-2.0-3.88","bp","2","pretest","true","4112756","null","","",""
"null","../img/tt/489tt.jpg","","mooney2","image-keyboard-response","534","1435899","0.0-2.0-4.88","bp","2","pretest","true","4112756","null","","",""
"1158","<p>How strong was your <strong>aha-experience</strong>?</p>","","aha","html-keyboard-response","535","1437059","0.0-2.0-5.88","bp","2","pretest","true","4112756","51","../img/tt/489tt.jpg","","3"
"null","<div style=""font-size:60px;""> </div>","","fixation","html-keyboard-response","536","1437261","0.0-2.0-0.89","bp","2","pretest","true","4112756","null","","",""
"null","../img/tt/1339tt.jpg","","mooney1","image-keyboard-response","537","1440263","0.0-2.0-1.89","bp","2","pretest","true","4112756","null","../img/tt/1339tt.jpg","",""
"666","<p></p>","","recognized","html-keyboard-response","538","1440931","0.0-2.0-2.89","bp","2","pretest","true","4112756","89","../img/tt/1339tt.jpg","y",""
"null","../img/gs/1339gs.jpg","","solution","image-keyboard-response","539","1442933","0.0-2.0-3.89","bp","2","pretest","true","4112756","null","","",""
"null","../img/tt/1339tt.jpg","","mooney2","image-keyboard-response","540","1444944","0.0-2.0-4.89","bp","2","pretest","true","4112756","null","","",""
"793","<p>How strong was your <strong>aha-experience</strong>?</p>","","aha","html-keyboard-response","541","1445739","0.0-2.0-5.89","bp","2","pretest","true","4112756","49","../img/tt/1339tt.jpg","","1"
"null","<div style=""font-size:60px;""> </div>","","fixation","html-keyboard-response","542","1445941","0.0-2.0-0.90","bp","2","pretest","true","4112756","null","","",""
"null","../img/tt/186tt.jpg","","mooney1","image-keyboard-response","543","1448944","0.0-2.0-1.90","bp","2","pretest","true","4112756","null","../img/tt/186tt.jpg","",""
"2075","<p></p>","","recognized","html-keyboard-response","544","1451019","0.0-2.0-2.90","bp","2","pretest","true","4112756","89","../img/tt/186tt.jpg","y",""
"null","../img/gs/186gs.jpg","","solution","image-keyboard-response","545","1453022","0.0-2.0-3.90","bp","2","pretest","true","4112756","null","","",""
"null","../img/tt/186tt.jpg","","mooney2","image-keyboard-response","546","1455024","0.0-2.0-4.90","bp","2","pretest","true","4112756","null","","",""
"665","<p>How strong was your <strong>aha-experience</strong>?</p>","","aha","html-keyboard-response","547","1455691","0.0-2.0-5.90","bp","2","pretest","true","4112756","51","../img/tt/186tt.jpg","","3"
"null","<div style=""font-size:60px;""> </div>","","fixation","html-keyboard-response","548","1455893","0.0-2.0-0.91","bp","2","pretest","true","4112756","null","","",""
"null","../img/tt/246tt.jpg","","mooney1","image-keyboard-response","549","1458895","0.0-2.0-1.91","bp","2","pretest","true","4112756","null","../img/tt/246tt.jpg","",""
"2147","<p></p>","","recognized","html-keyboard-response","550","1461043","0.0-2.0-2.91","bp","2","pretest","true","4112756","89","../img/tt/246tt.jpg","y",""
"null","../img/gs/246gs.jpg","","solution","image-keyboard-response","551","1463046","0.0-2.0-3.91","bp","2","pretest","true","4112756","null","","",""
"null","../img/tt/246tt.jpg","","mooney2","image-keyboard-response","552","1465054","0.0-2.0-4.91","bp","2","pretest","true","4112756","null","","",""
"819","<p>How strong was your <strong>aha-experience</strong>?</p>","","aha","html-keyboard-response","553","1465875","0.0-2.0-5.91","bp","2","pretest","true","4112756","52","../img/tt/246tt.jpg","","4"
"null","<div style=""font-size:60px;""> </div>","","fixation","html-keyboard-response","554","1466085","0.0-2.0-0.92","bp","2","pretest","true","4112756","null","","",""
"null","../img/tt/408tt.jpg","","mooney1","image-keyboard-response","555","1469098","0.0-2.0-1.92","bp","2","pretest","true","4112756","null","../img/tt/408tt.jpg","",""
"575","<p></p>","","recognized","html-keyboard-response","556","1469674","0.0-2.0-2.92","bp","2","pretest","true","4112756","89","../img/tt/408tt.jpg","y",""
"null","../img/gs/408gs.jpg","","solution","image-keyboard-response","557","1471675","0.0-2.0-3.92","bp","2","pretest","true","4112756","null","","",""
"null","../img/tt/408tt.jpg","","mooney2","image-keyboard-response","558","1473691","0.0-2.0-4.92","bp","2","pretest","true","4112756","null","","",""
"1543","<p>How strong was your <strong>aha-experience</strong>?</p>","","aha","html-keyboard-response","559","1475235","0.0-2.0-5.92","bp","2","pretest","true","4112756","53","../img/tt/408tt.jpg","","5"
"null","<div style=""font-size:60px;""> </div>","","fixation","html-keyboard-response","560","1475447","0.0-2.0-0.93","bp","2","pretest","true","4112756","null","","",""
"null","../img/tt/598tt.jpg","","mooney1","image-keyboard-response","561","1478451","0.0-2.0-1.93","bp","2","pretest","true","4112756","null","../img/tt/598tt.jpg","",""
"2343","<p></p>","","recognized","html-keyboard-response","562","1480795","0.0-2.0-2.93","bp","2","pretest","true","4112756","78","../img/tt/598tt.jpg","n",""
"null","../img/gs/598gs.jpg","","solution","image-keyboard-response","563","1482800","0.0-2.0-3.93","bp","2","pretest","true","4112756","null","","",""
"null","../img/tt/598tt.jpg","","mooney2","image-keyboard-response","564","1484803","0.0-2.0-4.93","bp","2","pretest","true","4112756","null","","",""
"71","<p>How strong was your <strong>aha-experience</strong>?</p>","","aha","html-keyboard-response","565","1484875","0.0-2.0-5.93","bp","2","pretest","true","4112756","52","../img/tt/598tt.jpg","","4"
"null","<div style=""font-size:60px;""> </div>","","fixation","html-keyboard-response","566","1485076","0.0-2.0-0.94","bp","2","pretest","true","4112756","null","","",""
"null","../img/tt/552tt.jpg","","mooney1","image-keyboard-response","567","1488080","0.0-2.0-1.94","bp","2","pretest","true","4112756","null","../img/tt/552tt.jpg","",""
"458","<p></p>","","recognized","html-keyboard-response","568","1488538","0.0-2.0-2.94","bp","2","pretest","true","4112756","78","../img/tt/552tt.jpg","n",""
