"rt","stimulus","button_pressed","test_part","trial_type","trial_index","time_elapsed","internal_node_id","subject","session","experiment_name","complete","totalTime","key_press","currentStim","recognized","aha"
"17298","<div style='word-wrap: break-word; width: 900px'><h3>Please consider this information carefully before deciding whether to participate in this research</h3><ul style='text-align: left; font-size: .8em;'><li><b>Purpose of the research</b>: To examine how people process images.</li><li><b>What you will do in this research</b>:  Stimuli (images) will be presented on the computer and you will be asked different questions about them.</li><li><b>Time required</b>: Participation will take max 60 minutes to complete.</li><li><b>Risks</b>:  There are no anticipated risks associated with participating in this study. The effects of participating should be comparable to those you would experience from viewing a computer monitor for 60 minutes and using a mouse or keyboard.</li><li><b>Benefits</b>:  This study provides no benefits to you individually. The study provides important information about the nature of perception and learning.</li><li><b>Confidentiality</b>:  Your participation in this study will remain confidential. No personally identifiable information will be associated with your data. Your de-identified data may be shared with other researchers and used in future projects.</li><li><b>Participation and withdrawal</b>:  Your participation in this study is completely voluntary and you may refuse to participate or you may choose to withdraw at any time without penalty.</li><li><b>How to contact the researchers</b>: If you have questions or concerns about your participation or payment, or want to request a summary of research findings, please contact Sander Van de Cruys (KU Leuven), at sander.vandecruys@kuleuven.be.</li></ul><p>The nature and purpose of this research have been sufficiently explained and I agree to participate in this study.  I understand that I am free to withdraw at any time without incurring any penalty.</p><p>Please consent by clicking the button below to continue. Otherwise, please exit the study at this time.</p></div>","0","instructions","html-button-response","0","17300","0.0-0.0","CAL","1","pretest","true","1566376184","","","",""
"59147","<div style='word-wrap: break-word; width: 900px'><h3>Instructions</h3><p>In this experiment you will see a series of distorted images like the one below on the left. As you can see in the righthand image, the distorted images are derived from actual photographs.In what follows, you will <strong>briefly</strong> be presented with <strong>only</strong> the distorted image.</p> <div style='float: left; margin-right: 20px;'><img src='../img/018tt.jpg' height='250' width='250'></img></div><div style='float: right; margin-left: 20px;'><img src='../img/018gs.jpg' height='250' width='250'></img></div><p>To be useful for future research, we need to select those images that people can generally not solve on their own. Therefore we'll show you the distorted image and ask you to indicate (yes or no) whether you already recognized what was in the image. This is not a competition, so please respond truthfully. We don't ask or check your answer, we just want to know whether you think you recognized it. All images depict objects from one of these broad level categories: animals, inanimate objects, plants, sports, vehicles, and food. Recognizing means knowing more than these broad labels for a given image. It means knowing at least the basic level category of the main object in the image, for example when you see a parrot in the image, 'parrot' will obviously be a correct answer but also correct is 'bird', but not 'animal' (the broad level category). For the example above, 'rose' would be correct or 'flower', but not 'plant'. When soccer players are depicted, you don't recognize the image when you just see 'humans', 'outdoors', or 'sports'. Note that complete certainty about your answer is not necessary, it's enough to have a good, definite guess on the object, to say 'yes, I recognized it'.</p><p>One additional question will be asked after we've revealed the solution: You'll be asked to indicate how strong your <strong>aha-experience</strong> was. This describes the positive 'click' you sometimes experience, when the pieces of the 'puzzle' fall together and you suddenly have 'insight' in the image. It describes how good you felt the 'fit' was between the distorted image and the solution.</p><p>Press any key to start.</p></div>","","instructions","html-keyboard-response","1","76448","0.0-1.0","CAL","1","pretest","true","1566376184","68","","",""
"null","<div style=""font-size:60px;""> </div>","","fixation","html-keyboard-response","2","76651","0.0-2.0-0.0","CAL","1","pretest","true","1566376184","null","","",""
"null","../img/tt/1088tt.jpg","","mooney1","image-keyboard-response","3","79654","0.0-2.0-1.0","CAL","1","pretest","true","1566376184","null","../img/tt/1088tt.jpg","",""
"2151","<p></p>","","recognized","html-keyboard-response","4","81805","0.0-2.0-2.0","CAL","1","pretest","true","1566376184","89","../img/tt/1088tt.jpg","y",""
"null","../img/gs/1088gs.jpg","","solution","image-keyboard-response","5","83808","0.0-2.0-3.0","CAL","1","pretest","true","1566376184","null","","",""
"null","../img/tt/1088tt.jpg","","mooney2","image-keyboard-response","6","85810","0.0-2.0-4.0","CAL","1","pretest","true","1566376184","null","","",""
"15683","<p>How strong was your <strong>aha-experience</strong>?</p>","","aha","html-keyboard-response","7","101493","0.0-2.0-5.0","CAL","1","pretest","true","1566376184","53","../img/tt/1088tt.jpg","","5"
"null","<div style=""font-size:60px;""> </div>","","fixation","html-keyboard-response","8","101696","0.0-2.0-0.1","CAL","1","pretest","true","1566376184","null","","",""
"null","../img/tt/1074tt.jpg","","mooney1","image-keyboard-response","9","104697","0.0-2.0-1.1","CAL","1","pretest","true","1566376184","null","../img/tt/1074tt.jpg","",""
"2504","<p></p>","","recognized","html-keyboard-response","10","107202","0.0-2.0-2.1","CAL","1","pretest","true","1566376184","78","../img/tt/1074tt.jpg","n",""
"null","../img/gs/1074gs.jpg","","solution","image-keyboard-response","11","109205","0.0-2.0-3.1","CAL","1","pretest","true","1566376184","null","","",""
"null","../img/tt/1074tt.jpg","","mooney2","image-keyboard-response","12","111207","0.0-2.0-4.1","CAL","1","pretest","true","1566376184","null","","",""
"6966","<p>How strong was your <strong>aha-experience</strong>?</p>","","aha","html-keyboard-response","13","118174","0.0-2.0-5.1","CAL","1","pretest","true","1566376184","49","../img/tt/1074tt.jpg","","1"
"null","<div style=""font-size:60px;""> </div>","","fixation","html-keyboard-response","14","118376","0.0-2.0-0.2","CAL","1","pretest","true","1566376184","null","","",""
"null","../img/tt/078tt.jpg","","mooney1","image-keyboard-response","15","121378","0.0-2.0-1.2","CAL","1","pretest","true","1566376184","null","../img/tt/078tt.jpg","",""
"1751","<p></p>","","recognized","html-keyboard-response","16","123129","0.0-2.0-2.2","CAL","1","pretest","true","1566376184","78","../img/tt/078tt.jpg","n",""
"null","../img/gs/078gs.jpg","","solution","image-keyboard-response","17","125131","0.0-2.0-3.2","CAL","1","pretest","true","1566376184","null","","",""
"null","../img/tt/078tt.jpg","","mooney2","image-keyboard-response","18","127133","0.0-2.0-4.2","CAL","1","pretest","true","1566376184","null","","",""
"2583","<p>How strong was your <strong>aha-experience</strong>?</p>","","aha","html-keyboard-response","19","129716","0.0-2.0-5.2","CAL","1","pretest","true","1566376184","49","../img/tt/078tt.jpg","","1"
"null","<div style=""font-size:60px;""> </div>","","fixation","html-keyboard-response","20","129917","0.0-2.0-0.3","CAL","1","pretest","true","1566376184","null","","",""
"null","../img/tt/1204tt.jpg","","mooney1","image-keyboard-response","21","132919","0.0-2.0-1.3","CAL","1","pretest","true","1566376184","null","../img/tt/1204tt.jpg","",""
"1736","<p></p>","","recognized","html-keyboard-response","22","134657","0.0-2.0-2.3","CAL","1","pretest","true","1566376184","89","../img/tt/1204tt.jpg","y",""
"null","../img/gs/1204gs.jpg","","solution","image-keyboard-response","23","136658","0.0-2.0-3.3","CAL","1","pretest","true","1566376184","null","","",""
"null","../img/tt/1204tt.jpg","","mooney2","image-keyboard-response","24","138659","0.0-2.0-4.3","CAL","1","pretest","true","1566376184","null","","",""
"3829","<p>How strong was your <strong>aha-experience</strong>?</p>","","aha","html-keyboard-response","25","142489","0.0-2.0-5.3","CAL","1","pretest","true","1566376184","52","../img/tt/1204tt.jpg","","4"
"null","<div style=""font-size:60px;""> </div>","","fixation","html-keyboard-response","26","142690","0.0-2.0-0.4","CAL","1","pretest","true","1566376184","null","","",""
"null","../img/tt/1225tt.jpg","","mooney1","image-keyboard-response","27","145692","0.0-2.0-1.4","CAL","1","pretest","true","1566376184","null","../img/tt/1225tt.jpg","",""
"985","<p></p>","","recognized","html-keyboard-response","28","146679","0.0-2.0-2.4","CAL","1","pretest","true","1566376184","78","../img/tt/1225tt.jpg","n",""
"null","../img/gs/1225gs.jpg","","solution","image-keyboard-response","29","148681","0.0-2.0-3.4","CAL","1","pretest","true","1566376184","null","","",""
"null","../img/tt/1225tt.jpg","","mooney2","image-keyboard-response","30","150683","0.0-2.0-4.4","CAL","1","pretest","true","1566376184","null","","",""
"1775","<p>How strong was your <strong>aha-experience</strong>?</p>","","aha","html-keyboard-response","31","152458","0.0-2.0-5.4","CAL","1","pretest","true","1566376184","49","../img/tt/1225tt.jpg","","1"
"null","<div style=""font-size:60px;""> </div>","","fixation","html-keyboard-response","32","152659","0.0-2.0-0.5","CAL","1","pretest","true","1566376184","null","","",""
"null","../img/tt/1052tt.jpg","","mooney1","image-keyboard-response","33","155661","0.0-2.0-1.5","CAL","1","pretest","true","1566376184","null","../img/tt/1052tt.jpg","",""
"935","<p></p>","","recognized","html-keyboard-response","34","156596","0.0-2.0-2.5","CAL","1","pretest","true","1566376184","89","../img/tt/1052tt.jpg","y",""
"null","../img/gs/1052gs.jpg","","solution","image-keyboard-response","35","158599","0.0-2.0-3.5","CAL","1","pretest","true","1566376184","null","","",""
"null","../img/tt/1052tt.jpg","","mooney2","image-keyboard-response","36","160600","0.0-2.0-4.5","CAL","1","pretest","true","1566376184","null","","",""
"2915","<p>How strong was your <strong>aha-experience</strong>?</p>","","aha","html-keyboard-response","37","163516","0.0-2.0-5.5","CAL","1","pretest","true","1566376184","53","../img/tt/1052tt.jpg","","5"
"null","<div style=""font-size:60px;""> </div>","","fixation","html-keyboard-response","38","163718","0.0-2.0-0.6","CAL","1","pretest","true","1566376184","null","","",""
"null","../img/tt/1194tt.jpg","","mooney1","image-keyboard-response","39","166719","0.0-2.0-1.6","CAL","1","pretest","true","1566376184","null","../img/tt/1194tt.jpg","",""
"718","<p></p>","","recognized","html-keyboard-response","40","167438","0.0-2.0-2.6","CAL","1","pretest","true","1566376184","89","../img/tt/1194tt.jpg","y",""
"null","../img/gs/1194gs.jpg","","solution","image-keyboard-response","41","169439","0.0-2.0-3.6","CAL","1","pretest","true","1566376184","null","","",""
"null","../img/tt/1194tt.jpg","","mooney2","image-keyboard-response","42","171441","0.0-2.0-4.6","CAL","1","pretest","true","1566376184","null","","",""
"5787","<p>How strong was your <strong>aha-experience</strong>?</p>","","aha","html-keyboard-response","43","177228","0.0-2.0-5.6","CAL","1","pretest","true","1566376184","52","../img/tt/1194tt.jpg","","4"
"null","<div style=""font-size:60px;""> </div>","","fixation","html-keyboard-response","44","177430","0.0-2.0-0.7","CAL","1","pretest","true","1566376184","null","","",""
"null","../img/tt/1211tt.jpg","","mooney1","image-keyboard-response","45","180431","0.0-2.0-1.7","CAL","1","pretest","true","1566376184","null","../img/tt/1211tt.jpg","",""
"1504","<p></p>","","recognized","html-keyboard-response","46","181936","0.0-2.0-2.7","CAL","1","pretest","true","1566376184","89","../img/tt/1211tt.jpg","y",""
"null","../img/gs/1211gs.jpg","","solution","image-keyboard-response","47","183938","0.0-2.0-3.7","CAL","1","pretest","true","1566376184","null","","",""
"null","../img/tt/1211tt.jpg","","mooney2","image-keyboard-response","48","185940","0.0-2.0-4.7","CAL","1","pretest","true","1566376184","null","","",""
"1007","<p>How strong was your <strong>aha-experience</strong>?</p>","","aha","html-keyboard-response","49","186948","0.0-2.0-5.7","CAL","1","pretest","true","1566376184","52","../img/tt/1211tt.jpg","","4"
"null","<div style=""font-size:60px;""> </div>","","fixation","html-keyboard-response","50","187150","0.0-2.0-0.8","CAL","1","pretest","true","1566376184","null","","",""
"null","../img/tt/1146tt.jpg","","mooney1","image-keyboard-response","51","190152","0.0-2.0-1.8","CAL","1","pretest","true","1566376184","null","../img/tt/1146tt.jpg","",""
"1400","<p></p>","","recognized","html-keyboard-response","52","191552","0.0-2.0-2.8","CAL","1","pretest","true","1566376184","78","../img/tt/1146tt.jpg","n",""
"null","../img/gs/1146gs.jpg","","solution","image-keyboard-response","53","193554","0.0-2.0-3.8","CAL","1","pretest","true","1566376184","null","","",""
"null","../img/tt/1146tt.jpg","","mooney2","image-keyboard-response","54","195556","0.0-2.0-4.8","CAL","1","pretest","true","1566376184","null","","",""
"2621","<p>How strong was your <strong>aha-experience</strong>?</p>","","aha","html-keyboard-response","55","198178","0.0-2.0-5.8","CAL","1","pretest","true","1566376184","49","../img/tt/1146tt.jpg","","1"
"null","<div style=""font-size:60px;""> </div>","","fixation","html-keyboard-response","56","198378","0.0-2.0-0.9","CAL","1","pretest","true","1566376184","null","","",""
"null","../img/tt/1110tt.jpg","","mooney1","image-keyboard-response","57","201380","0.0-2.0-1.9","CAL","1","pretest","true","1566376184","null","../img/tt/1110tt.jpg","",""
"1010","<p></p>","","recognized","html-keyboard-response","58","202391","0.0-2.0-2.9","CAL","1","pretest","true","1566376184","78","../img/tt/1110tt.jpg","n",""
"null","../img/gs/1110gs.jpg","","solution","image-keyboard-response","59","204392","0.0-2.0-3.9","CAL","1","pretest","true","1566376184","null","","",""
"null","../img/tt/1110tt.jpg","","mooney2","image-keyboard-response","60","206394","0.0-2.0-4.9","CAL","1","pretest","true","1566376184","null","","",""
"1951","<p>How strong was your <strong>aha-experience</strong>?</p>","","aha","html-keyboard-response","61","208345","0.0-2.0-5.9","CAL","1","pretest","true","1566376184","49","../img/tt/1110tt.jpg","","1"
"null","<div style=""font-size:60px;""> </div>","","fixation","html-keyboard-response","62","208546","0.0-2.0-0.10","CAL","1","pretest","true","1566376184","null","","",""
"null","../img/tt/1020tt.jpg","","mooney1","image-keyboard-response","63","211547","0.0-2.0-1.10","CAL","1","pretest","true","1566376184","null","../img/tt/1020tt.jpg","",""
"478","<p></p>","","recognized","html-keyboard-response","64","212025","0.0-2.0-2.10","CAL","1","pretest","true","1566376184","89","../img/tt/1020tt.jpg","y",""
"null","../img/gs/1020gs.jpg","","solution","image-keyboard-response","65","214027","0.0-2.0-3.10","CAL","1","pretest","true","1566376184","null","","",""
"null","../img/tt/1020tt.jpg","","mooney2","image-keyboard-response","66","216029","0.0-2.0-4.10","CAL","1","pretest","true","1566376184","null","","",""
"2614","<p>How strong was your <strong>aha-experience</strong>?</p>","","aha","html-keyboard-response","67","218644","0.0-2.0-5.10","CAL","1","pretest","true","1566376184","52","../img/tt/1020tt.jpg","","4"
"null","<div style=""font-size:60px;""> </div>","","fixation","html-keyboard-response","68","218845","0.0-2.0-0.11","CAL","1","pretest","true","1566376184","null","","",""
"null","../img/tt/1139tt.jpg","","mooney1","image-keyboard-response","69","221847","0.0-2.0-1.11","CAL","1","pretest","true","1566376184","null","../img/tt/1139tt.jpg","",""
"81074746","<p></p>","","recognized","html-keyboard-response","70","81296595","0.0-2.0-2.11","CAL","1","pretest","true","1566376184","78","../img/tt/1139tt.jpg","n",""
"null","../img/gs/1139gs.jpg","","solution","image-keyboard-response","71","81298606","0.0-2.0-3.11","CAL","1","pretest","true","1566376184","null","","",""
"null","../img/tt/1139tt.jpg","","mooney2","image-keyboard-response","72","81300609","0.0-2.0-4.11","CAL","1","pretest","true","1566376184","null","","",""
"1716","<p>How strong was your <strong>aha-experience</strong>?</p>","","aha","html-keyboard-response","73","81302327","0.0-2.0-5.11","CAL","1","pretest","true","1566376184","49","../img/tt/1139tt.jpg","","1"
"null","<div style=""font-size:60px;""> </div>","","fixation","html-keyboard-response","74","81302532","0.0-2.0-0.12","CAL","1","pretest","true","1566376184","null","","",""
"null","../img/tt/1131tt.jpg","","mooney1","image-keyboard-response","75","81305535","0.0-2.0-1.12","CAL","1","pretest","true","1566376184","null","../img/tt/1131tt.jpg","",""
"1811","<p></p>","","recognized","html-keyboard-response","76","81307346","0.0-2.0-2.12","CAL","1","pretest","true","1566376184","78","../img/tt/1131tt.jpg","n",""
"null","../img/gs/1131gs.jpg","","solution","image-keyboard-response","77","81309351","0.0-2.0-3.12","CAL","1","pretest","true","1566376184","null","","",""
"null","../img/tt/1131tt.jpg","","mooney2","image-keyboard-response","78","81311353","0.0-2.0-4.12","CAL","1","pretest","true","1566376184","null","","",""
"5132","<p>How strong was your <strong>aha-experience</strong>?</p>","","aha","html-keyboard-response","79","81316485","0.0-2.0-5.12","CAL","1","pretest","true","1566376184","49","../img/tt/1131tt.jpg","","1"
"null","<div style=""font-size:60px;""> </div>","","fixation","html-keyboard-response","80","81316686","0.0-2.0-0.13","CAL","1","pretest","true","1566376184","null","","",""
"null","../img/tt/1159tt.jpg","","mooney1","image-keyboard-response","81","81319689","0.0-2.0-1.13","CAL","1","pretest","true","1566376184","null","../img/tt/1159tt.jpg","",""
"1794","<p></p>","","recognized","html-keyboard-response","82","81321484","0.0-2.0-2.13","CAL","1","pretest","true","1566376184","89","../img/tt/1159tt.jpg","y",""
"null","../img/gs/1159gs.jpg","","solution","image-keyboard-response","83","81323489","0.0-2.0-3.13","CAL","1","pretest","true","1566376184","null","","",""
"null","../img/tt/1159tt.jpg","","mooney2","image-keyboard-response","84","81325491","0.0-2.0-4.13","CAL","1","pretest","true","1566376184","null","","",""
"5091","<p>How strong was your <strong>aha-experience</strong>?</p>","","aha","html-keyboard-response","85","81330583","0.0-2.0-5.13","CAL","1","pretest","true","1566376184","53","../img/tt/1159tt.jpg","","5"
"null","<div style=""font-size:60px;""> </div>","","fixation","html-keyboard-response","86","81330784","0.0-2.0-0.14","CAL","1","pretest","true","1566376184","null","","",""
"null","../img/tt/1162tt.jpg","","mooney1","image-keyboard-response","87","81333788","0.0-2.0-1.14","CAL","1","pretest","true","1566376184","null","../img/tt/1162tt.jpg","",""
"1279","<p></p>","","recognized","html-keyboard-response","88","81335069","0.0-2.0-2.14","CAL","1","pretest","true","1566376184","89","../img/tt/1162tt.jpg","y",""
"null","../img/gs/1162gs.jpg","","solution","image-keyboard-response","89","81337073","0.0-2.0-3.14","CAL","1","pretest","true","1566376184","null","","",""
"null","../img/tt/1162tt.jpg","","mooney2","image-keyboard-response","90","81339074","0.0-2.0-4.14","CAL","1","pretest","true","1566376184","null","","",""
"7830","<p>How strong was your <strong>aha-experience</strong>?</p>","","aha","html-keyboard-response","91","81346906","0.0-2.0-5.14","CAL","1","pretest","true","1566376184","54","../img/tt/1162tt.jpg","","6"
"null","<div style=""font-size:60px;""> </div>","","fixation","html-keyboard-response","92","81347108","0.0-2.0-0.15","CAL","1","pretest","true","1566376184","null","","",""
"null","../img/tt/1118tt.jpg","","mooney1","image-keyboard-response","93","81350111","0.0-2.0-1.15","CAL","1","pretest","true","1566376184","null","../img/tt/1118tt.jpg","",""
"1001","<p></p>","","recognized","html-keyboard-response","94","81351112","0.0-2.0-2.15","CAL","1","pretest","true","1566376184","78","../img/tt/1118tt.jpg","n",""
"null","../img/gs/1118gs.jpg","","solution","image-keyboard-response","95","81353116","0.0-2.0-3.15","CAL","1","pretest","true","1566376184","null","","",""
"null","../img/tt/1118tt.jpg","","mooney2","image-keyboard-response","96","81355117","0.0-2.0-4.15","CAL","1","pretest","true","1566376184","null","","",""
"22200","<p>How strong was your <strong>aha-experience</strong>?</p>","","aha","html-keyboard-response","97","81377318","0.0-2.0-5.15","CAL","1","pretest","true","1566376184","55","../img/tt/1118tt.jpg","","7"
"null","<div style=""font-size:60px;""> </div>","","fixation","html-keyboard-response","98","81377520","0.0-2.0-0.16","CAL","1","pretest","true","1566376184","null","","",""
"null","../img/tt/033tt.jpg","","mooney1","image-keyboard-response","99","81380524","0.0-2.0-1.16","CAL","1","pretest","true","1566376184","null","../img/tt/033tt.jpg","",""
"1670","<p></p>","","recognized","html-keyboard-response","100","81382195","0.0-2.0-2.16","CAL","1","pretest","true","1566376184","78","../img/tt/033tt.jpg","n",""
"null","../img/gs/033gs.jpg","","solution","image-keyboard-response","101","81384199","0.0-2.0-3.16","CAL","1","pretest","true","1566376184","null","","",""
"null","../img/tt/033tt.jpg","","mooney2","image-keyboard-response","102","81386200","0.0-2.0-4.16","CAL","1","pretest","true","1566376184","null","","",""
"2690","<p>How strong was your <strong>aha-experience</strong>?</p>","","aha","html-keyboard-response","103","81388891","0.0-2.0-5.16","CAL","1","pretest","true","1566376184","54","../img/tt/033tt.jpg","","6"
"null","<div style=""font-size:60px;""> </div>","","fixation","html-keyboard-response","104","81389093","0.0-2.0-0.17","CAL","1","pretest","true","1566376184","null","","",""
"null","../img/tt/1083tt.jpg","","mooney1","image-keyboard-response","105","81392095","0.0-2.0-1.17","CAL","1","pretest","true","1566376184","null","../img/tt/1083tt.jpg","",""
"1057","<p></p>","","recognized","html-keyboard-response","106","81393155","0.0-2.0-2.17","CAL","1","pretest","true","1566376184","78","../img/tt/1083tt.jpg","n",""
"null","../img/gs/1083gs.jpg","","solution","image-keyboard-response","107","81395159","0.0-2.0-3.17","CAL","1","pretest","true","1566376184","null","","",""
"null","../img/tt/1083tt.jpg","","mooney2","image-keyboard-response","108","81397160","0.0-2.0-4.17","CAL","1","pretest","true","1566376184","null","","",""
"2288","<p>How strong was your <strong>aha-experience</strong>?</p>","","aha","html-keyboard-response","109","81399449","0.0-2.0-5.17","CAL","1","pretest","true","1566376184","49","../img/tt/1083tt.jpg","","1"
"null","<div style=""font-size:60px;""> </div>","","fixation","html-keyboard-response","110","81399651","0.0-2.0-0.18","CAL","1","pretest","true","1566376184","null","","",""
"null","../img/tt/1079tt.jpg","","mooney1","image-keyboard-response","111","81402653","0.0-2.0-1.18","CAL","1","pretest","true","1566376184","null","../img/tt/1079tt.jpg","",""
"860","<p></p>","","recognized","html-keyboard-response","112","81403515","0.0-2.0-2.18","CAL","1","pretest","true","1566376184","78","../img/tt/1079tt.jpg","n",""
"null","../img/gs/1079gs.jpg","","solution","image-keyboard-response","113","81405519","0.0-2.0-3.18","CAL","1","pretest","true","1566376184","null","","",""
"null","../img/tt/1079tt.jpg","","mooney2","image-keyboard-response","114","81407522","0.0-2.0-4.18","CAL","1","pretest","true","1566376184","null","","",""
"2502","<p>How strong was your <strong>aha-experience</strong>?</p>","","aha","html-keyboard-response","115","81410026","0.0-2.0-5.18","CAL","1","pretest","true","1566376184","55","../img/tt/1079tt.jpg","","7"
"null","<div style=""font-size:60px;""> </div>","","fixation","html-keyboard-response","116","81410227","0.0-2.0-0.19","CAL","1","pretest","true","1566376184","null","","",""
"null","../img/tt/1223tt.jpg","","mooney1","image-keyboard-response","117","81413232","0.0-2.0-1.19","CAL","1","pretest","true","1566376184","null","../img/tt/1223tt.jpg","",""
"948","<p></p>","","recognized","html-keyboard-response","118","81414180","0.0-2.0-2.19","CAL","1","pretest","true","1566376184","78","../img/tt/1223tt.jpg","n",""
"null","../img/gs/1223gs.jpg","","solution","image-keyboard-response","119","81416185","0.0-2.0-3.19","CAL","1","pretest","true","1566376184","null","","",""
"null","../img/tt/1223tt.jpg","","mooney2","image-keyboard-response","120","81418187","0.0-2.0-4.19","CAL","1","pretest","true","1566376184","null","","",""
"517","<p>How strong was your <strong>aha-experience</strong>?</p>","","aha","html-keyboard-response","121","81418705","0.0-2.0-5.19","CAL","1","pretest","true","1566376184","55","../img/tt/1223tt.jpg","","7"
"null","<div style=""font-size:60px;""> </div>","","fixation","html-keyboard-response","122","81418907","0.0-2.0-0.20","CAL","1","pretest","true","1566376184","null","","",""
"null","../img/tt/072tt.jpg","","mooney1","image-keyboard-response","123","81421910","0.0-2.0-1.20","CAL","1","pretest","true","1566376184","null","../img/tt/072tt.jpg","",""
"417","<p></p>","","recognized","html-keyboard-response","124","81422328","0.0-2.0-2.20","CAL","1","pretest","true","1566376184","78","../img/tt/072tt.jpg","n",""
"null","../img/gs/072gs.jpg","","solution","image-keyboard-response","125","81424344","0.0-2.0-3.20","CAL","1","pretest","true","1566376184","null","","",""
"null","../img/tt/072tt.jpg","","mooney2","image-keyboard-response","126","81426346","0.0-2.0-4.20","CAL","1","pretest","true","1566376184","null","","",""
"1096","<p>How strong was your <strong>aha-experience</strong>?</p>","","aha","html-keyboard-response","127","81427443","0.0-2.0-5.20","CAL","1","pretest","true","1566376184","50","../img/tt/072tt.jpg","","2"
"null","<div style=""font-size:60px;""> </div>","","fixation","html-keyboard-response","128","81427645","0.0-2.0-0.21","CAL","1","pretest","true","1566376184","null","","",""
"null","../img/tt/1075tt.jpg","","mooney1","image-keyboard-response","129","81430648","0.0-2.0-1.21","CAL","1","pretest","true","1566376184","null","../img/tt/1075tt.jpg","",""
"531","<p></p>","","recognized","html-keyboard-response","130","81431179","0.0-2.0-2.21","CAL","1","pretest","true","1566376184","78","../img/tt/1075tt.jpg","n",""
"null","../img/gs/1075gs.jpg","","solution","image-keyboard-response","131","81433184","0.0-2.0-3.21","CAL","1","pretest","true","1566376184","null","","",""
"null","../img/tt/1075tt.jpg","","mooney2","image-keyboard-response","132","81435186","0.0-2.0-4.21","CAL","1","pretest","true","1566376184","null","","",""
"1256","<p>How strong was your <strong>aha-experience</strong>?</p>","","aha","html-keyboard-response","133","81436443","0.0-2.0-5.21","CAL","1","pretest","true","1566376184","49","../img/tt/1075tt.jpg","","1"
"null","<div style=""font-size:60px;""> </div>","","fixation","html-keyboard-response","134","81436645","0.0-2.0-0.22","CAL","1","pretest","true","1566376184","null","","",""
"null","../img/tt/049tt.jpg","","mooney1","image-keyboard-response","135","81439647","0.0-2.0-1.22","CAL","1","pretest","true","1566376184","null","../img/tt/049tt.jpg","",""
"2830","<p></p>","","recognized","html-keyboard-response","136","81442477","0.0-2.0-2.22","CAL","1","pretest","true","1566376184","78","../img/tt/049tt.jpg","n",""
"null","../img/gs/049gs.jpg","","solution","image-keyboard-response","137","81444481","0.0-2.0-3.22","CAL","1","pretest","true","1566376184","null","","",""
"null","../img/tt/049tt.jpg","","mooney2","image-keyboard-response","138","81446483","0.0-2.0-4.22","CAL","1","pretest","true","1566376184","null","","",""
"676","<p>How strong was your <strong>aha-experience</strong>?</p>","","aha","html-keyboard-response","139","81447160","0.0-2.0-5.22","CAL","1","pretest","true","1566376184","54","../img/tt/049tt.jpg","","6"
"null","<div style=""font-size:60px;""> </div>","","fixation","html-keyboard-response","140","81447362","0.0-2.0-0.23","CAL","1","pretest","true","1566376184","null","","",""
"null","../img/tt/1033tt.jpg","","mooney1","image-keyboard-response","141","81450365","0.0-2.0-1.23","CAL","1","pretest","true","1566376184","null","../img/tt/1033tt.jpg","",""
"1071","<p></p>","","recognized","html-keyboard-response","142","81451438","0.0-2.0-2.23","CAL","1","pretest","true","1566376184","78","../img/tt/1033tt.jpg","n",""
"null","../img/gs/1033gs.jpg","","solution","image-keyboard-response","143","81453441","0.0-2.0-3.23","CAL","1","pretest","true","1566376184","null","","",""
"null","../img/tt/1033tt.jpg","","mooney2","image-keyboard-response","144","81455444","0.0-2.0-4.23","CAL","1","pretest","true","1566376184","null","","",""
"861","<p>How strong was your <strong>aha-experience</strong>?</p>","","aha","html-keyboard-response","145","81456305","0.0-2.0-5.23","CAL","1","pretest","true","1566376184","55","../img/tt/1033tt.jpg","","7"
"null","<div style=""font-size:60px;""> </div>","","fixation","html-keyboard-response","146","81456506","0.0-2.0-0.24","CAL","1","pretest","true","1566376184","null","","",""
"null","../img/tt/1200tt.jpg","","mooney1","image-keyboard-response","147","81459511","0.0-2.0-1.24","CAL","1","pretest","true","1566376184","null","../img/tt/1200tt.jpg","",""
"1063","<p></p>","","recognized","html-keyboard-response","148","81460575","0.0-2.0-2.24","CAL","1","pretest","true","1566376184","78","../img/tt/1200tt.jpg","n",""
"null","../img/gs/1200gs.jpg","","solution","image-keyboard-response","149","81462578","0.0-2.0-3.24","CAL","1","pretest","true","1566376184","null","","",""
"null","../img/tt/1200tt.jpg","","mooney2","image-keyboard-response","150","81464580","0.0-2.0-4.24","CAL","1","pretest","true","1566376184","null","","",""
"407","<p>How strong was your <strong>aha-experience</strong>?</p>","","aha","html-keyboard-response","151","81464987","0.0-2.0-5.24","CAL","1","pretest","true","1566376184","53","../img/tt/1200tt.jpg","","5"
"null","<div style=""font-size:60px;""> </div>","","fixation","html-keyboard-response","152","81465188","0.0-2.0-0.25","CAL","1","pretest","true","1566376184","null","","",""
"null","../img/tt/1274tt.jpg","","mooney1","image-keyboard-response","153","81468192","0.0-2.0-1.25","CAL","1","pretest","true","1566376184","null","../img/tt/1274tt.jpg","",""
"1569","<p></p>","","recognized","html-keyboard-response","154","81469763","0.0-2.0-2.25","CAL","1","pretest","true","1566376184","78","../img/tt/1274tt.jpg","n",""
"null","../img/gs/1274gs.jpg","","solution","image-keyboard-response","155","81471766","0.0-2.0-3.25","CAL","1","pretest","true","1566376184","null","","",""
"null","../img/tt/1274tt.jpg","","mooney2","image-keyboard-response","156","81473768","0.0-2.0-4.25","CAL","1","pretest","true","1566376184","null","","",""
"1150","<p>How strong was your <strong>aha-experience</strong>?</p>","","aha","html-keyboard-response","157","81474919","0.0-2.0-5.25","CAL","1","pretest","true","1566376184","53","../img/tt/1274tt.jpg","","5"
"null","<div style=""font-size:60px;""> </div>","","fixation","html-keyboard-response","158","81475121","0.0-2.0-0.26","CAL","1","pretest","true","1566376184","null","","",""
"null","../img/tt/1107tt.jpg","","mooney1","image-keyboard-response","159","81478124","0.0-2.0-1.26","CAL","1","pretest","true","1566376184","null","../img/tt/1107tt.jpg","",""
"647","<p></p>","","recognized","html-keyboard-response","160","81478773","0.0-2.0-2.26","CAL","1","pretest","true","1566376184","78","../img/tt/1107tt.jpg","n",""
"null","../img/gs/1107gs.jpg","","solution","image-keyboard-response","161","81480776","0.0-2.0-3.26","CAL","1","pretest","true","1566376184","null","","",""
"null","../img/tt/1107tt.jpg","","mooney2","image-keyboard-response","162","81482777","0.0-2.0-4.26","CAL","1","pretest","true","1566376184","null","","",""
"3206","<p>How strong was your <strong>aha-experience</strong>?</p>","","aha","html-keyboard-response","163","81485984","0.0-2.0-5.26","CAL","1","pretest","true","1566376184","54","../img/tt/1107tt.jpg","","6"
"null","<div style=""font-size:60px;""> </div>","","fixation","html-keyboard-response","164","81486186","0.0-2.0-0.27","CAL","1","pretest","true","1566376184","null","","",""
"null","../img/tt/067tt.jpg","","mooney1","image-keyboard-response","165","81489189","0.0-2.0-1.27","CAL","1","pretest","true","1566376184","null","../img/tt/067tt.jpg","",""
"1200","<p></p>","","recognized","html-keyboard-response","166","81490390","0.0-2.0-2.27","CAL","1","pretest","true","1566376184","89","../img/tt/067tt.jpg","y",""
"null","../img/gs/067gs.jpg","","solution","image-keyboard-response","167","81492393","0.0-2.0-3.27","CAL","1","pretest","true","1566376184","null","","",""
"null","../img/tt/067tt.jpg","","mooney2","image-keyboard-response","168","81494394","0.0-2.0-4.27","CAL","1","pretest","true","1566376184","null","","",""
"1236","<p>How strong was your <strong>aha-experience</strong>?</p>","","aha","html-keyboard-response","169","81495632","0.0-2.0-5.27","CAL","1","pretest","true","1566376184","52","../img/tt/067tt.jpg","","4"
"null","<div style=""font-size:60px;""> </div>","","fixation","html-keyboard-response","170","81495836","0.0-2.0-0.28","CAL","1","pretest","true","1566376184","null","","",""
"null","../img/tt/1237tt.jpg","","mooney1","image-keyboard-response","171","81498839","0.0-2.0-1.28","CAL","1","pretest","true","1566376184","null","../img/tt/1237tt.jpg","",""
"1179","<p></p>","","recognized","html-keyboard-response","172","81500019","0.0-2.0-2.28","CAL","1","pretest","true","1566376184","78","../img/tt/1237tt.jpg","n",""
"null","../img/gs/1237gs.jpg","","solution","image-keyboard-response","173","81502022","0.0-2.0-3.28","CAL","1","pretest","true","1566376184","null","","",""
"null","../img/tt/1237tt.jpg","","mooney2","image-keyboard-response","174","81504024","0.0-2.0-4.28","CAL","1","pretest","true","1566376184","null","","",""
"471","<p>How strong was your <strong>aha-experience</strong>?</p>","","aha","html-keyboard-response","175","81504496","0.0-2.0-5.28","CAL","1","pretest","true","1566376184","55","../img/tt/1237tt.jpg","","7"
"null","<div style=""font-size:60px;""> </div>","","fixation","html-keyboard-response","176","81504699","0.0-2.0-0.29","CAL","1","pretest","true","1566376184","null","","",""
"null","../img/tt/1171tt.jpg","","mooney1","image-keyboard-response","177","81507701","0.0-2.0-1.29","CAL","1","pretest","true","1566376184","null","../img/tt/1171tt.jpg","",""
"1184","<p></p>","","recognized","html-keyboard-response","178","81508887","0.0-2.0-2.29","CAL","1","pretest","true","1566376184","78","../img/tt/1171tt.jpg","n",""
"null","../img/gs/1171gs.jpg","","solution","image-keyboard-response","179","81510890","0.0-2.0-3.29","CAL","1","pretest","true","1566376184","null","","",""
"null","../img/tt/1171tt.jpg","","mooney2","image-keyboard-response","180","81512892","0.0-2.0-4.29","CAL","1","pretest","true","1566376184","null","","",""
"857","<p>How strong was your <strong>aha-experience</strong>?</p>","","aha","html-keyboard-response","181","81513750","0.0-2.0-5.29","CAL","1","pretest","true","1566376184","55","../img/tt/1171tt.jpg","","7"
"null","<div style=""font-size:60px;""> </div>","","fixation","html-keyboard-response","182","81513952","0.0-2.0-0.30","CAL","1","pretest","true","1566376184","null","","",""
"null","../img/tt/1081tt.jpg","","mooney1","image-keyboard-response","183","81516954","0.0-2.0-1.30","CAL","1","pretest","true","1566376184","null","../img/tt/1081tt.jpg","",""
"408","<p></p>","","recognized","html-keyboard-response","184","81517362","0.0-2.0-2.30","CAL","1","pretest","true","1566376184","89","../img/tt/1081tt.jpg","y",""
"null","../img/gs/1081gs.jpg","","solution","image-keyboard-response","185","81519366","0.0-2.0-3.30","CAL","1","pretest","true","1566376184","null","","",""
"null","../img/tt/1081tt.jpg","","mooney2","image-keyboard-response","186","81521368","0.0-2.0-4.30","CAL","1","pretest","true","1566376184","null","","",""
"2374","<p>How strong was your <strong>aha-experience</strong>?</p>","","aha","html-keyboard-response","187","81523742","0.0-2.0-5.30","CAL","1","pretest","true","1566376184","52","../img/tt/1081tt.jpg","","4"
"null","<div style=""font-size:60px;""> </div>","","fixation","html-keyboard-response","188","81523945","0.0-2.0-0.31","CAL","1","pretest","true","1566376184","null","","",""
"null","../img/tt/1188tt.jpg","","mooney1","image-keyboard-response","189","81526948","0.0-2.0-1.31","CAL","1","pretest","true","1566376184","null","../img/tt/1188tt.jpg","",""
"1225","<p></p>","","recognized","html-keyboard-response","190","81528173","0.0-2.0-2.31","CAL","1","pretest","true","1566376184","78","../img/tt/1188tt.jpg","n",""
"null","../img/gs/1188gs.jpg","","solution","image-keyboard-response","191","81530176","0.0-2.0-3.31","CAL","1","pretest","true","1566376184","null","","",""
"null","../img/tt/1188tt.jpg","","mooney2","image-keyboard-response","192","81532179","0.0-2.0-4.31","CAL","1","pretest","true","1566376184","null","","",""
"451","<p>How strong was your <strong>aha-experience</strong>?</p>","","aha","html-keyboard-response","193","81532631","0.0-2.0-5.31","CAL","1","pretest","true","1566376184","54","../img/tt/1188tt.jpg","","6"
"null","<div style=""font-size:60px;""> </div>","","fixation","html-keyboard-response","194","81532833","0.0-2.0-0.32","CAL","1","pretest","true","1566376184","null","","",""
"null","../img/tt/1215tt.jpg","","mooney1","image-keyboard-response","195","81535836","0.0-2.0-1.32","CAL","1","pretest","true","1566376184","null","../img/tt/1215tt.jpg","",""
"479","<p></p>","","recognized","html-keyboard-response","196","81536315","0.0-2.0-2.32","CAL","1","pretest","true","1566376184","89","../img/tt/1215tt.jpg","y",""
"null","../img/gs/1215gs.jpg","","solution","image-keyboard-response","197","81538319","0.0-2.0-3.32","CAL","1","pretest","true","1566376184","null","","",""
"null","../img/tt/1215tt.jpg","","mooney2","image-keyboard-response","198","81540322","0.0-2.0-4.32","CAL","1","pretest","true","1566376184","null","","",""
"416","<p>How strong was your <strong>aha-experience</strong>?</p>","","aha","html-keyboard-response","199","81540739","0.0-2.0-5.32","CAL","1","pretest","true","1566376184","55","../img/tt/1215tt.jpg","","7"
"null","<div style=""font-size:60px;""> </div>","","fixation","html-keyboard-response","200","81540940","0.0-2.0-0.33","CAL","1","pretest","true","1566376184","null","","",""
"null","../img/tt/1112tt.jpg","","mooney1","image-keyboard-response","201","81543943","0.0-2.0-1.33","CAL","1","pretest","true","1566376184","null","../img/tt/1112tt.jpg","",""
"4573","<p></p>","","recognized","html-keyboard-response","202","81548518","0.0-2.0-2.33","CAL","1","pretest","true","1566376184","78","../img/tt/1112tt.jpg","n",""
"null","../img/gs/1112gs.jpg","","solution","image-keyboard-response","203","81550521","0.0-2.0-3.33","CAL","1","pretest","true","1566376184","null","","",""
"null","../img/tt/1112tt.jpg","","mooney2","image-keyboard-response","204","81552523","0.0-2.0-4.33","CAL","1","pretest","true","1566376184","null","","",""
"463","<p>How strong was your <strong>aha-experience</strong>?</p>","","aha","html-keyboard-response","205","81552986","0.0-2.0-5.33","CAL","1","pretest","true","1566376184","55","../img/tt/1112tt.jpg","","7"
"null","<div style=""font-size:60px;""> </div>","","fixation","html-keyboard-response","206","81553188","0.0-2.0-0.34","CAL","1","pretest","true","1566376184","null","","",""
"null","../img/tt/1228tt.jpg","","mooney1","image-keyboard-response","207","81556191","0.0-2.0-1.34","CAL","1","pretest","true","1566376184","null","../img/tt/1228tt.jpg","",""
"1061","<p></p>","","recognized","html-keyboard-response","208","81557253","0.0-2.0-2.34","CAL","1","pretest","true","1566376184","78","../img/tt/1228tt.jpg","n",""
"null","../img/gs/1228gs.jpg","","solution","image-keyboard-response","209","81559257","0.0-2.0-3.34","CAL","1","pretest","true","1566376184","null","","",""
"null","../img/tt/1228tt.jpg","","mooney2","image-keyboard-response","210","81561258","0.0-2.0-4.34","CAL","1","pretest","true","1566376184","null","","",""
"1396","<p>How strong was your <strong>aha-experience</strong>?</p>","","aha","html-keyboard-response","211","81562656","0.0-2.0-5.34","CAL","1","pretest","true","1566376184","53","../img/tt/1228tt.jpg","","5"
"null","<div style=""font-size:60px;""> </div>","","fixation","html-keyboard-response","212","81562858","0.0-2.0-0.35","CAL","1","pretest","true","1566376184","null","","",""
"null","../img/tt/1010tt.jpg","","mooney1","image-keyboard-response","213","81565860","0.0-2.0-1.35","CAL","1","pretest","true","1566376184","null","../img/tt/1010tt.jpg","",""
"764","<p></p>","","recognized","html-keyboard-response","214","81566625","0.0-2.0-2.35","CAL","1","pretest","true","1566376184","78","../img/tt/1010tt.jpg","n",""
"null","../img/gs/1010gs.jpg","","solution","image-keyboard-response","215","81568629","0.0-2.0-3.35","CAL","1","pretest","true","1566376184","null","","",""
"null","../img/tt/1010tt.jpg","","mooney2","image-keyboard-response","216","81570631","0.0-2.0-4.35","CAL","1","pretest","true","1566376184","null","","",""
"973","<p>How strong was your <strong>aha-experience</strong>?</p>","","aha","html-keyboard-response","217","81571605","0.0-2.0-5.35","CAL","1","pretest","true","1566376184","54","../img/tt/1010tt.jpg","","6"
"null","<div style=""font-size:60px;""> </div>","","fixation","html-keyboard-response","218","81571806","0.0-2.0-0.36","CAL","1","pretest","true","1566376184","null","","",""
"null","../img/tt/1236tt.jpg","","mooney1","image-keyboard-response","219","81574808","0.0-2.0-1.36","CAL","1","pretest","true","1566376184","null","../img/tt/1236tt.jpg","",""
"605","<p></p>","","recognized","html-keyboard-response","220","81575413","0.0-2.0-2.36","CAL","1","pretest","true","1566376184","78","../img/tt/1236tt.jpg","n",""
"null","../img/gs/1236gs.jpg","","solution","image-keyboard-response","221","81577417","0.0-2.0-3.36","CAL","1","pretest","true","1566376184","null","","",""
"null","../img/tt/1236tt.jpg","","mooney2","image-keyboard-response","222","81579420","0.0-2.0-4.36","CAL","1","pretest","true","1566376184","null","","",""
"399","<p>How strong was your <strong>aha-experience</strong>?</p>","","aha","html-keyboard-response","223","81579820","0.0-2.0-5.36","CAL","1","pretest","true","1566376184","55","../img/tt/1236tt.jpg","","7"
"null","<div style=""font-size:60px;""> </div>","","fixation","html-keyboard-response","224","81580022","0.0-2.0-0.37","CAL","1","pretest","true","1566376184","null","","",""
"null","../img/tt/031tt.jpg","","mooney1","image-keyboard-response","225","81583025","0.0-2.0-1.37","CAL","1","pretest","true","1566376184","null","../img/tt/031tt.jpg","",""
"395","<p></p>","","recognized","html-keyboard-response","226","81583421","0.0-2.0-2.37","CAL","1","pretest","true","1566376184","78","../img/tt/031tt.jpg","n",""
"null","../img/gs/031gs.jpg","","solution","image-keyboard-response","227","81585426","0.0-2.0-3.37","CAL","1","pretest","true","1566376184","null","","",""
"null","../img/tt/031tt.jpg","","mooney2","image-keyboard-response","228","81587427","0.0-2.0-4.37","CAL","1","pretest","true","1566376184","null","","",""
"455","<p>How strong was your <strong>aha-experience</strong>?</p>","","aha","html-keyboard-response","229","81587883","0.0-2.0-5.37","CAL","1","pretest","true","1566376184","55","../img/tt/031tt.jpg","","7"
"null","<div style=""font-size:60px;""> </div>","","fixation","html-keyboard-response","230","81588085","0.0-2.0-0.38","CAL","1","pretest","true","1566376184","null","","",""
"null","../img/tt/1179tt.jpg","","mooney1","image-keyboard-response","231","81591087","0.0-2.0-1.38","CAL","1","pretest","true","1566376184","null","../img/tt/1179tt.jpg","",""
"794","<p></p>","","recognized","html-keyboard-response","232","81591882","0.0-2.0-2.38","CAL","1","pretest","true","1566376184","78","../img/tt/1179tt.jpg","n",""
"null","../img/gs/1179gs.jpg","","solution","image-keyboard-response","233","81593886","0.0-2.0-3.38","CAL","1","pretest","true","1566376184","null","","",""
"null","../img/tt/1179tt.jpg","","mooney2","image-keyboard-response","234","81595887","0.0-2.0-4.38","CAL","1","pretest","true","1566376184","null","","",""
"1811","<p>How strong was your <strong>aha-experience</strong>?</p>","","aha","html-keyboard-response","235","81597699","0.0-2.0-5.38","CAL","1","pretest","true","1566376184","53","../img/tt/1179tt.jpg","","5"
"null","<div style=""font-size:60px;""> </div>","","fixation","html-keyboard-response","236","81597901","0.0-2.0-0.39","CAL","1","pretest","true","1566376184","null","","",""
"null","../img/tt/1044tt.jpg","","mooney1","image-keyboard-response","237","81600903","0.0-2.0-1.39","CAL","1","pretest","true","1566376184","null","../img/tt/1044tt.jpg","",""
"460","<p></p>","","recognized","html-keyboard-response","238","81601364","0.0-2.0-2.39","CAL","1","pretest","true","1566376184","78","../img/tt/1044tt.jpg","n",""
"null","../img/gs/1044gs.jpg","","solution","image-keyboard-response","239","81603368","0.0-2.0-3.39","CAL","1","pretest","true","1566376184","null","","",""
"null","../img/tt/1044tt.jpg","","mooney2","image-keyboard-response","240","81605370","0.0-2.0-4.39","CAL","1","pretest","true","1566376184","null","","",""
"1574","<p>How strong was your <strong>aha-experience</strong>?</p>","","aha","html-keyboard-response","241","81606944","0.0-2.0-5.39","CAL","1","pretest","true","1566376184","55","../img/tt/1044tt.jpg","","7"
"null","<div style=""font-size:60px;""> </div>","","fixation","html-keyboard-response","242","81607145","0.0-2.0-0.40","CAL","1","pretest","true","1566376184","null","","",""
"null","../img/tt/1240tt.jpg","","mooney1","image-keyboard-response","243","81610147","0.0-2.0-1.40","CAL","1","pretest","true","1566376184","null","../img/tt/1240tt.jpg","",""
"108080781","<p></p>","","recognized","html-keyboard-response","244","189690937","0.0-2.0-2.40","CAL","1","pretest","true","1566376184","89","../img/tt/1240tt.jpg","y",""
"null","../img/gs/1240gs.jpg","","solution","image-keyboard-response","245","189692967","0.0-2.0-3.40","CAL","1","pretest","true","1566376184","null","","",""
"null","../img/tt/1240tt.jpg","","mooney2","image-keyboard-response","246","189694973","0.0-2.0-4.40","CAL","1","pretest","true","1566376184","null","","",""
"3937","<p>How strong was your <strong>aha-experience</strong>?</p>","","aha","html-keyboard-response","247","189698914","0.0-2.0-5.40","CAL","1","pretest","true","1566376184","53","../img/tt/1240tt.jpg","","5"
"null","<div style=""font-size:60px;""> </div>","","fixation","html-keyboard-response","248","189699120","0.0-2.0-0.41","CAL","1","pretest","true","1566376184","null","","",""
"null","../img/tt/1114tt.jpg","","mooney1","image-keyboard-response","249","189702123","0.0-2.0-1.41","CAL","1","pretest","true","1566376184","null","../img/tt/1114tt.jpg","",""
"969","<p></p>","","recognized","html-keyboard-response","250","189703092","0.0-2.0-2.41","CAL","1","pretest","true","1566376184","89","../img/tt/1114tt.jpg","y",""
"null","../img/gs/1114gs.jpg","","solution","image-keyboard-response","251","189705097","0.0-2.0-3.41","CAL","1","pretest","true","1566376184","null","","",""
"null","../img/tt/1114tt.jpg","","mooney2","image-keyboard-response","252","189707102","0.0-2.0-4.41","CAL","1","pretest","true","1566376184","null","","",""
"662","<p>How strong was your <strong>aha-experience</strong>?</p>","","aha","html-keyboard-response","253","189707765","0.0-2.0-5.41","CAL","1","pretest","true","1566376184","55","../img/tt/1114tt.jpg","","7"
"null","<div style=""font-size:60px;""> </div>","","fixation","html-keyboard-response","254","189707968","0.0-2.0-0.42","CAL","1","pretest","true","1566376184","null","","",""
"null","../img/tt/1193tt.jpg","","mooney1","image-keyboard-response","255","189710975","0.0-2.0-1.42","CAL","1","pretest","true","1566376184","null","../img/tt/1193tt.jpg","",""
"547","<p></p>","","recognized","html-keyboard-response","256","189711522","0.0-2.0-2.42","CAL","1","pretest","true","1566376184","89","../img/tt/1193tt.jpg","y",""
"null","../img/gs/1193gs.jpg","","solution","image-keyboard-response","257","189713524","0.0-2.0-3.42","CAL","1","pretest","true","1566376184","null","","",""
"null","../img/tt/1193tt.jpg","","mooney2","image-keyboard-response","258","189715526","0.0-2.0-4.42","CAL","1","pretest","true","1566376184","null","","",""
"3087","<p>How strong was your <strong>aha-experience</strong>?</p>","","aha","html-keyboard-response","259","189718613","0.0-2.0-5.42","CAL","1","pretest","true","1566376184","53","../img/tt/1193tt.jpg","","5"
"null","<div style=""font-size:60px;""> </div>","","fixation","html-keyboard-response","260","189718814","0.0-2.0-0.43","CAL","1","pretest","true","1566376184","null","","",""
"null","../img/tt/065tt.jpg","","mooney1","image-keyboard-response","261","189721819","0.0-2.0-1.43","CAL","1","pretest","true","1566376184","null","../img/tt/065tt.jpg","",""
"549","<p></p>","","recognized","html-keyboard-response","262","189722369","0.0-2.0-2.43","CAL","1","pretest","true","1566376184","78","../img/tt/065tt.jpg","n",""
"null","../img/gs/065gs.jpg","","solution","image-keyboard-response","263","189724372","0.0-2.0-3.43","CAL","1","pretest","true","1566376184","null","","",""
"null","../img/tt/065tt.jpg","","mooney2","image-keyboard-response","264","189726373","0.0-2.0-4.43","CAL","1","pretest","true","1566376184","null","","",""
"2650","<p>How strong was your <strong>aha-experience</strong>?</p>","","aha","html-keyboard-response","265","189729023","0.0-2.0-5.43","CAL","1","pretest","true","1566376184","54","../img/tt/065tt.jpg","","6"
"null","<div style=""font-size:60px;""> </div>","","fixation","html-keyboard-response","266","189729225","0.0-2.0-0.44","CAL","1","pretest","true","1566376184","null","","",""
"null","../img/tt/1177tt.jpg","","mooney1","image-keyboard-response","267","189732228","0.0-2.0-1.44","CAL","1","pretest","true","1566376184","null","../img/tt/1177tt.jpg","",""
"577","<p></p>","","recognized","html-keyboard-response","268","189732806","0.0-2.0-2.44","CAL","1","pretest","true","1566376184","78","../img/tt/1177tt.jpg","n",""
"null","../img/gs/1177gs.jpg","","solution","image-keyboard-response","269","189734810","0.0-2.0-3.44","CAL","1","pretest","true","1566376184","null","","",""
"null","../img/tt/1177tt.jpg","","mooney2","image-keyboard-response","270","189736815","0.0-2.0-4.44","CAL","1","pretest","true","1566376184","null","","",""
"4640","<p>How strong was your <strong>aha-experience</strong>?</p>","","aha","html-keyboard-response","271","189741457","0.0-2.0-5.44","CAL","1","pretest","true","1566376184","55","../img/tt/1177tt.jpg","","7"
"null","<div style=""font-size:60px;""> </div>","","fixation","html-keyboard-response","272","189741660","0.0-2.0-0.45","CAL","1","pretest","true","1566376184","null","","",""
"null","../img/tt/1229tt.jpg","","mooney1","image-keyboard-response","273","189744666","0.0-2.0-1.45","CAL","1","pretest","true","1566376184","null","../img/tt/1229tt.jpg","",""
"8658","<p></p>","","recognized","html-keyboard-response","274","189753326","0.0-2.0-2.45","CAL","1","pretest","true","1566376184","78","../img/tt/1229tt.jpg","n",""
"null","../img/gs/1229gs.jpg","","solution","image-keyboard-response","275","189755328","0.0-2.0-3.45","CAL","1","pretest","true","1566376184","null","","",""
"null","../img/tt/1229tt.jpg","","mooney2","image-keyboard-response","276","189757330","0.0-2.0-4.45","CAL","1","pretest","true","1566376184","null","","",""
"3852","<p>How strong was your <strong>aha-experience</strong>?</p>","","aha","html-keyboard-response","277","189761183","0.0-2.0-5.45","CAL","1","pretest","true","1566376184","53","../img/tt/1229tt.jpg","","5"
"null","<div style=""font-size:60px;""> </div>","","fixation","html-keyboard-response","278","189761385","0.0-2.0-0.46","CAL","1","pretest","true","1566376184","null","","",""
"null","../img/tt/1037tt.jpg","","mooney1","image-keyboard-response","279","189764391","0.0-2.0-1.46","CAL","1","pretest","true","1566376184","null","../img/tt/1037tt.jpg","",""
"1939","<p></p>","","recognized","html-keyboard-response","280","189766334","0.0-2.0-2.46","CAL","1","pretest","true","1566376184","78","../img/tt/1037tt.jpg","n",""
"null","../img/gs/1037gs.jpg","","solution","image-keyboard-response","281","189768337","0.0-2.0-3.46","CAL","1","pretest","true","1566376184","null","","",""
"null","../img/tt/1037tt.jpg","","mooney2","image-keyboard-response","282","189770339","0.0-2.0-4.46","CAL","1","pretest","true","1566376184","null","","",""
"976","<p>How strong was your <strong>aha-experience</strong>?</p>","","aha","html-keyboard-response","283","189771316","0.0-2.0-5.46","CAL","1","pretest","true","1566376184","55","../img/tt/1037tt.jpg","","7"
"null","<div style=""font-size:60px;""> </div>","","fixation","html-keyboard-response","284","189771518","0.0-2.0-0.47","CAL","1","pretest","true","1566376184","null","","",""
"null","../img/tt/121tt.jpg","","mooney1","image-keyboard-response","285","189774521","0.0-2.0-1.47","CAL","1","pretest","true","1566376184","null","../img/tt/121tt.jpg","",""
"1199","<p></p>","","recognized","html-keyboard-response","286","189775721","0.0-2.0-2.47","CAL","1","pretest","true","1566376184","89","../img/tt/121tt.jpg","y",""
"null","../img/gs/121gs.jpg","","solution","image-keyboard-response","287","189777725","0.0-2.0-3.47","CAL","1","pretest","true","1566376184","null","","",""
"null","../img/tt/121tt.jpg","","mooney2","image-keyboard-response","288","189779727","0.0-2.0-4.47","CAL","1","pretest","true","1566376184","null","","",""
"10018","<p>How strong was your <strong>aha-experience</strong>?</p>","","aha","html-keyboard-response","289","189789746","0.0-2.0-5.47","CAL","1","pretest","true","1566376184","54","../img/tt/121tt.jpg","","6"
"null","<div style=""font-size:60px;""> </div>","","fixation","html-keyboard-response","290","189789948","0.0-2.0-0.48","CAL","1","pretest","true","1566376184","null","","",""
"null","../img/tt/1003tt.jpg","","mooney1","image-keyboard-response","291","189792952","0.0-2.0-1.48","CAL","1","pretest","true","1566376184","null","../img/tt/1003tt.jpg","",""
"508","<p></p>","","recognized","html-keyboard-response","292","189793461","0.0-2.0-2.48","CAL","1","pretest","true","1566376184","78","../img/tt/1003tt.jpg","n",""
"null","../img/gs/1003gs.jpg","","solution","image-keyboard-response","293","189795465","0.0-2.0-3.48","CAL","1","pretest","true","1566376184","null","","",""
"null","../img/tt/1003tt.jpg","","mooney2","image-keyboard-response","294","189797469","0.0-2.0-4.48","CAL","1","pretest","true","1566376184","null","","",""
"1167","<p>How strong was your <strong>aha-experience</strong>?</p>","","aha","html-keyboard-response","295","189798639","0.0-2.0-5.48","CAL","1","pretest","true","1566376184","52","../img/tt/1003tt.jpg","","4"
"null","<div style=""font-size:60px;""> </div>","","fixation","html-keyboard-response","296","189798841","0.0-2.0-0.49","CAL","1","pretest","true","1566376184","null","","",""
"null","../img/tt/1080tt.jpg","","mooney1","image-keyboard-response","297","189801847","0.0-2.0-1.49","CAL","1","pretest","true","1566376184","null","../img/tt/1080tt.jpg","",""
"1133","<p></p>","","recognized","html-keyboard-response","298","189802981","0.0-2.0-2.49","CAL","1","pretest","true","1566376184","78","../img/tt/1080tt.jpg","n",""
"null","../img/gs/1080gs.jpg","","solution","image-keyboard-response","299","189804984","0.0-2.0-3.49","CAL","1","pretest","true","1566376184","null","","",""
"null","../img/tt/1080tt.jpg","","mooney2","image-keyboard-response","300","189806986","0.0-2.0-4.49","CAL","1","pretest","true","1566376184","null","","",""
"1519","<p>How strong was your <strong>aha-experience</strong>?</p>","","aha","html-keyboard-response","301","189808506","0.0-2.0-5.49","CAL","1","pretest","true","1566376184","55","../img/tt/1080tt.jpg","","7"
"null","<div style=""font-size:60px;""> </div>","","fixation","html-keyboard-response","302","189808708","0.0-2.0-0.50","CAL","1","pretest","true","1566376184","null","","",""
"null","../img/tt/1009tt.jpg","","mooney1","image-keyboard-response","303","189811710","0.0-2.0-1.50","CAL","1","pretest","true","1566376184","null","../img/tt/1009tt.jpg","",""
"992","<p></p>","","recognized","html-keyboard-response","304","189812703","0.0-2.0-2.50","CAL","1","pretest","true","1566376184","78","../img/tt/1009tt.jpg","n",""
"null","../img/gs/1009gs.jpg","","solution","image-keyboard-response","305","189814705","0.0-2.0-3.50","CAL","1","pretest","true","1566376184","null","","",""
"null","../img/tt/1009tt.jpg","","mooney2","image-keyboard-response","306","189816707","0.0-2.0-4.50","CAL","1","pretest","true","1566376184","null","","",""
"1668","<p>How strong was your <strong>aha-experience</strong>?</p>","","aha","html-keyboard-response","307","189818377","0.0-2.0-5.50","CAL","1","pretest","true","1566376184","52","../img/tt/1009tt.jpg","","4"
"null","<div style=""font-size:60px;""> </div>","","fixation","html-keyboard-response","308","189818579","0.0-2.0-0.51","CAL","1","pretest","true","1566376184","null","","",""
"null","../img/tt/115tt.jpg","","mooney1","image-keyboard-response","309","189821581","0.0-2.0-1.51","CAL","1","pretest","true","1566376184","null","../img/tt/115tt.jpg","",""
"425","<p></p>","","recognized","html-keyboard-response","310","189822008","0.0-2.0-2.51","CAL","1","pretest","true","1566376184","78","../img/tt/115tt.jpg","n",""
"null","../img/gs/115gs.jpg","","solution","image-keyboard-response","311","189824012","0.0-2.0-3.51","CAL","1","pretest","true","1566376184","null","","",""
"null","../img/tt/115tt.jpg","","mooney2","image-keyboard-response","312","189826016","0.0-2.0-4.51","CAL","1","pretest","true","1566376184","null","","",""
"1132","<p>How strong was your <strong>aha-experience</strong>?</p>","","aha","html-keyboard-response","313","189827149","0.0-2.0-5.51","CAL","1","pretest","true","1566376184","51","../img/tt/115tt.jpg","","3"
"null","<div style=""font-size:60px;""> </div>","","fixation","html-keyboard-response","314","189827353","0.0-2.0-0.52","CAL","1","pretest","true","1566376184","null","","",""
"null","../img/tt/1060tt.jpg","","mooney1","image-keyboard-response","315","189830355","0.0-2.0-1.52","CAL","1","pretest","true","1566376184","null","../img/tt/1060tt.jpg","",""
"1469","<p></p>","","recognized","html-keyboard-response","316","189831825","0.0-2.0-2.52","CAL","1","pretest","true","1566376184","89","../img/tt/1060tt.jpg","y",""
"null","../img/gs/1060gs.jpg","","solution","image-keyboard-response","317","189833830","0.0-2.0-3.52","CAL","1","pretest","true","1566376184","null","","",""
"null","../img/tt/1060tt.jpg","","mooney2","image-keyboard-response","318","189835832","0.0-2.0-4.52","CAL","1","pretest","true","1566376184","null","","",""
"1328","<p>How strong was your <strong>aha-experience</strong>?</p>","","aha","html-keyboard-response","319","189837161","0.0-2.0-5.52","CAL","1","pretest","true","1566376184","53","../img/tt/1060tt.jpg","","5"
"null","<div style=""font-size:60px;""> </div>","","fixation","html-keyboard-response","320","189837363","0.0-2.0-0.53","CAL","1","pretest","true","1566376184","null","","",""
"null","../img/tt/1192tt.jpg","","mooney1","image-keyboard-response","321","189840365","0.0-2.0-1.53","CAL","1","pretest","true","1566376184","null","../img/tt/1192tt.jpg","",""
"583","<p></p>","","recognized","html-keyboard-response","322","189840949","0.0-2.0-2.53","CAL","1","pretest","true","1566376184","89","../img/tt/1192tt.jpg","y",""
"null","../img/gs/1192gs.jpg","","solution","image-keyboard-response","323","189842954","0.0-2.0-3.53","CAL","1","pretest","true","1566376184","null","","",""
"null","../img/tt/1192tt.jpg","","mooney2","image-keyboard-response","324","189844955","0.0-2.0-4.53","CAL","1","pretest","true","1566376184","null","","",""
"1520","<p>How strong was your <strong>aha-experience</strong>?</p>","","aha","html-keyboard-response","325","189846477","0.0-2.0-5.53","CAL","1","pretest","true","1566376184","54","../img/tt/1192tt.jpg","","6"
"null","<div style=""font-size:60px;""> </div>","","fixation","html-keyboard-response","326","189846678","0.0-2.0-0.54","CAL","1","pretest","true","1566376184","null","","",""
"null","../img/tt/1189tt.jpg","","mooney1","image-keyboard-response","327","189849680","0.0-2.0-1.54","CAL","1","pretest","true","1566376184","null","../img/tt/1189tt.jpg","",""
"896","<p></p>","","recognized","html-keyboard-response","328","189850577","0.0-2.0-2.54","CAL","1","pretest","true","1566376184","78","../img/tt/1189tt.jpg","n",""
"null","../img/gs/1189gs.jpg","","solution","image-keyboard-response","329","189852580","0.0-2.0-3.54","CAL","1","pretest","true","1566376184","null","","",""
"null","../img/tt/1189tt.jpg","","mooney2","image-keyboard-response","330","189854583","0.0-2.0-4.54","CAL","1","pretest","true","1566376184","null","","",""
"19002","<p>How strong was your <strong>aha-experience</strong>?</p>","","aha","html-keyboard-response","331","189873589","0.0-2.0-5.54","CAL","1","pretest","true","1566376184","55","../img/tt/1189tt.jpg","","7"
"null","<div style=""font-size:60px;""> </div>","","fixation","html-keyboard-response","332","189873792","0.0-2.0-0.55","CAL","1","pretest","true","1566376184","null","","",""
"null","../img/tt/1086tt.jpg","","mooney1","image-keyboard-response","333","189876797","0.0-2.0-1.55","CAL","1","pretest","true","1566376184","null","../img/tt/1086tt.jpg","",""
"388","<p></p>","","recognized","html-keyboard-response","334","189877186","0.0-2.0-2.55","CAL","1","pretest","true","1566376184","78","../img/tt/1086tt.jpg","n",""
"null","../img/gs/1086gs.jpg","","solution","image-keyboard-response","335","189879188","0.0-2.0-3.55","CAL","1","pretest","true","1566376184","null","","",""
"null","../img/tt/1086tt.jpg","","mooney2","image-keyboard-response","336","189881190","0.0-2.0-4.55","CAL","1","pretest","true","1566376184","null","","",""
"2446","<p>How strong was your <strong>aha-experience</strong>?</p>","","aha","html-keyboard-response","337","189883637","0.0-2.0-5.55","CAL","1","pretest","true","1566376184","51","../img/tt/1086tt.jpg","","3"
"null","<div style=""font-size:60px;""> </div>","","fixation","html-keyboard-response","338","189883838","0.0-2.0-0.56","CAL","1","pretest","true","1566376184","null","","",""
"null","../img/tt/1145tt.jpg","","mooney1","image-keyboard-response","339","189886841","0.0-2.0-1.56","CAL","1","pretest","true","1566376184","null","../img/tt/1145tt.jpg","",""
"1070","<p></p>","","recognized","html-keyboard-response","340","189887922","0.0-2.0-2.56","CAL","1","pretest","true","1566376184","78","../img/tt/1145tt.jpg","n",""
"null","../img/gs/1145gs.jpg","","solution","image-keyboard-response","341","189889925","0.0-2.0-3.56","CAL","1","pretest","true","1566376184","null","","",""
"null","../img/tt/1145tt.jpg","","mooney2","image-keyboard-response","342","189891928","0.0-2.0-4.56","CAL","1","pretest","true","1566376184","null","","",""
"2650","<p>How strong was your <strong>aha-experience</strong>?</p>","","aha","html-keyboard-response","343","189894579","0.0-2.0-5.56","CAL","1","pretest","true","1566376184","53","../img/tt/1145tt.jpg","","5"
"null","<div style=""font-size:60px;""> </div>","","fixation","html-keyboard-response","344","189894782","0.0-2.0-0.57","CAL","1","pretest","true","1566376184","null","","",""
"null","../img/tt/1191tt.jpg","","mooney1","image-keyboard-response","345","189897784","0.0-2.0-1.57","CAL","1","pretest","true","1566376184","null","../img/tt/1191tt.jpg","",""
"1010","<p></p>","","recognized","html-keyboard-response","346","189898794","0.0-2.0-2.57","CAL","1","pretest","true","1566376184","78","../img/tt/1191tt.jpg","n",""
"null","../img/gs/1191gs.jpg","","solution","image-keyboard-response","347","189900797","0.0-2.0-3.57","CAL","1","pretest","true","1566376184","null","","",""
"null","../img/tt/1191tt.jpg","","mooney2","image-keyboard-response","348","189902798","0.0-2.0-4.57","CAL","1","pretest","true","1566376184","null","","",""
"4515","<p>How strong was your <strong>aha-experience</strong>?</p>","","aha","html-keyboard-response","349","189907315","0.0-2.0-5.57","CAL","1","pretest","true","1566376184","53","../img/tt/1191tt.jpg","","5"
"null","<div style=""font-size:60px;""> </div>","","fixation","html-keyboard-response","350","189907517","0.0-2.0-0.58","CAL","1","pretest","true","1566376184","null","","",""
"null","../img/tt/1034tt.jpg","","mooney1","image-keyboard-response","351","189910520","0.0-2.0-1.58","CAL","1","pretest","true","1566376184","null","../img/tt/1034tt.jpg","",""
"361","<p></p>","","recognized","html-keyboard-response","352","189910882","0.0-2.0-2.58","CAL","1","pretest","true","1566376184","89","../img/tt/1034tt.jpg","y",""
"null","../img/gs/1034gs.jpg","","solution","image-keyboard-response","353","189912885","0.0-2.0-3.58","CAL","1","pretest","true","1566376184","null","","",""
"null","../img/tt/1034tt.jpg","","mooney2","image-keyboard-response","354","189914889","0.0-2.0-4.58","CAL","1","pretest","true","1566376184","null","","",""
"4849","<p>How strong was your <strong>aha-experience</strong>?</p>","","aha","html-keyboard-response","355","189919741","0.0-2.0-5.58","CAL","1","pretest","true","1566376184","51","../img/tt/1034tt.jpg","","3"
"null","<div style=""font-size:60px;""> </div>","","fixation","html-keyboard-response","356","189919943","0.0-2.0-0.59","CAL","1","pretest","true","1566376184","null","","",""
"null","../img/tt/1167tt.jpg","","mooney1","image-keyboard-response","357","189922947","0.0-2.0-1.59","CAL","1","pretest","true","1566376184","null","../img/tt/1167tt.jpg","",""
"1294","<p></p>","","recognized","html-keyboard-response","358","189924242","0.0-2.0-2.59","CAL","1","pretest","true","1566376184","78","../img/tt/1167tt.jpg","n",""
"null","../img/gs/1167gs.jpg","","solution","image-keyboard-response","359","189926245","0.0-2.0-3.59","CAL","1","pretest","true","1566376184","null","","",""
"null","../img/tt/1167tt.jpg","","mooney2","image-keyboard-response","360","189928247","0.0-2.0-4.59","CAL","1","pretest","true","1566376184","null","","",""
"1263","<p>How strong was your <strong>aha-experience</strong>?</p>","","aha","html-keyboard-response","361","189929511","0.0-2.0-5.59","CAL","1","pretest","true","1566376184","54","../img/tt/1167tt.jpg","","6"
"null","<div style=""font-size:60px;""> </div>","","fixation","html-keyboard-response","362","189929712","0.0-2.0-0.60","CAL","1","pretest","true","1566376184","null","","",""
"null","../img/tt/085tt.jpg","","mooney1","image-keyboard-response","363","189932717","0.0-2.0-1.60","CAL","1","pretest","true","1566376184","null","../img/tt/085tt.jpg","",""
"276","<p></p>","","recognized","html-keyboard-response","364","189932994","0.0-2.0-2.60","CAL","1","pretest","true","1566376184","78","../img/tt/085tt.jpg","n",""
"null","../img/gs/085gs.jpg","","solution","image-keyboard-response","365","189934997","0.0-2.0-3.60","CAL","1","pretest","true","1566376184","null","","",""
"null","../img/tt/085tt.jpg","","mooney2","image-keyboard-response","366","189936999","0.0-2.0-4.60","CAL","1","pretest","true","1566376184","null","","",""
"2452","<p>How strong was your <strong>aha-experience</strong>?</p>","","aha","html-keyboard-response","367","189939452","0.0-2.0-5.60","CAL","1","pretest","true","1566376184","53","../img/tt/085tt.jpg","","5"
"null","<div style=""font-size:60px;""> </div>","","fixation","html-keyboard-response","368","189939654","0.0-2.0-0.61","CAL","1","pretest","true","1566376184","null","","",""
"null","../img/tt/1161tt.jpg","","mooney1","image-keyboard-response","369","189942656","0.0-2.0-1.61","CAL","1","pretest","true","1566376184","null","../img/tt/1161tt.jpg","",""
"1092","<p></p>","","recognized","html-keyboard-response","370","189943749","0.0-2.0-2.61","CAL","1","pretest","true","1566376184","78","../img/tt/1161tt.jpg","n",""
"null","../img/gs/1161gs.jpg","","solution","image-keyboard-response","371","189945752","0.0-2.0-3.61","CAL","1","pretest","true","1566376184","null","","",""
"null","../img/tt/1161tt.jpg","","mooney2","image-keyboard-response","372","189947756","0.0-2.0-4.61","CAL","1","pretest","true","1566376184","null","","",""
"2338","<p>How strong was your <strong>aha-experience</strong>?</p>","","aha","html-keyboard-response","373","189950096","0.0-2.0-5.61","CAL","1","pretest","true","1566376184","53","../img/tt/1161tt.jpg","","5"
"null","<div style=""font-size:60px;""> </div>","","fixation","html-keyboard-response","374","189950301","0.0-2.0-0.62","CAL","1","pretest","true","1566376184","null","","",""
"null","../img/tt/1293tt.jpg","","mooney1","image-keyboard-response","375","189953304","0.0-2.0-1.62","CAL","1","pretest","true","1566376184","null","../img/tt/1293tt.jpg","",""
"1629","<p></p>","","recognized","html-keyboard-response","376","189954933","0.0-2.0-2.62","CAL","1","pretest","true","1566376184","78","../img/tt/1293tt.jpg","n",""
"null","../img/gs/1293gs.jpg","","solution","image-keyboard-response","377","189956936","0.0-2.0-3.62","CAL","1","pretest","true","1566376184","null","","",""
"null","../img/tt/1293tt.jpg","","mooney2","image-keyboard-response","378","189958938","0.0-2.0-4.62","CAL","1","pretest","true","1566376184","null","","",""
"3016","<p>How strong was your <strong>aha-experience</strong>?</p>","","aha","html-keyboard-response","379","189961954","0.0-2.0-5.62","CAL","1","pretest","true","1566376184","51","../img/tt/1293tt.jpg","","3"
"null","<div style=""font-size:60px;""> </div>","","fixation","html-keyboard-response","380","189962156","0.0-2.0-0.63","CAL","1","pretest","true","1566376184","null","","",""
"null","../img/tt/1190tt.jpg","","mooney1","image-keyboard-response","381","189965157","0.0-2.0-1.63","CAL","1","pretest","true","1566376184","null","../img/tt/1190tt.jpg","",""
"3047","<p></p>","","recognized","html-keyboard-response","382","189968206","0.0-2.0-2.63","CAL","1","pretest","true","1566376184","78","../img/tt/1190tt.jpg","n",""
"null","../img/gs/1190gs.jpg","","solution","image-keyboard-response","383","189970208","0.0-2.0-3.63","CAL","1","pretest","true","1566376184","null","","",""
"null","../img/tt/1190tt.jpg","","mooney2","image-keyboard-response","384","189972210","0.0-2.0-4.63","CAL","1","pretest","true","1566376184","null","","",""
"1075","<p>How strong was your <strong>aha-experience</strong>?</p>","","aha","html-keyboard-response","385","189973285","0.0-2.0-5.63","CAL","1","pretest","true","1566376184","55","../img/tt/1190tt.jpg","","7"
"null","<div style=""font-size:60px;""> </div>","","fixation","html-keyboard-response","386","189973487","0.0-2.0-0.64","CAL","1","pretest","true","1566376184","null","","",""
"null","../img/tt/1235tt.jpg","","mooney1","image-keyboard-response","387","189976492","0.0-2.0-1.64","CAL","1","pretest","true","1566376184","null","../img/tt/1235tt.jpg","",""
"874","<p></p>","","recognized","html-keyboard-response","388","189977373","0.0-2.0-2.64","CAL","1","pretest","true","1566376184","78","../img/tt/1235tt.jpg","n",""
"null","../img/gs/1235gs.jpg","","solution","image-keyboard-response","389","189979377","0.0-2.0-3.64","CAL","1","pretest","true","1566376184","null","","",""
"null","../img/tt/1235tt.jpg","","mooney2","image-keyboard-response","390","189981378","0.0-2.0-4.64","CAL","1","pretest","true","1566376184","null","","",""
"296","<p>How strong was your <strong>aha-experience</strong>?</p>","","aha","html-keyboard-response","391","189981676","0.0-2.0-5.64","CAL","1","pretest","true","1566376184","52","../img/tt/1235tt.jpg","","4"
"null","<div style=""font-size:60px;""> </div>","","fixation","html-keyboard-response","392","189981878","0.0-2.0-0.65","CAL","1","pretest","true","1566376184","null","","",""
"null","../img/tt/1041tt.jpg","","mooney1","image-keyboard-response","393","189984880","0.0-2.0-1.65","CAL","1","pretest","true","1566376184","null","../img/tt/1041tt.jpg","",""
"285","<p></p>","","recognized","html-keyboard-response","394","189985166","0.0-2.0-2.65","CAL","1","pretest","true","1566376184","89","../img/tt/1041tt.jpg","y",""
"null","../img/gs/1041gs.jpg","","solution","image-keyboard-response","395","189987169","0.0-2.0-3.65","CAL","1","pretest","true","1566376184","null","","",""
"null","../img/tt/1041tt.jpg","","mooney2","image-keyboard-response","396","189989171","0.0-2.0-4.65","CAL","1","pretest","true","1566376184","null","","",""
"2216","<p>How strong was your <strong>aha-experience</strong>?</p>","","aha","html-keyboard-response","397","189991388","0.0-2.0-5.65","CAL","1","pretest","true","1566376184","50","../img/tt/1041tt.jpg","","2"
"null","<div style=""font-size:60px;""> </div>","","fixation","html-keyboard-response","398","189991589","0.0-2.0-0.66","CAL","1","pretest","true","1566376184","null","","",""
"null","../img/tt/1281tt.jpg","","mooney1","image-keyboard-response","399","189994594","0.0-2.0-1.66","CAL","1","pretest","true","1566376184","null","../img/tt/1281tt.jpg","",""
"943","<p></p>","","recognized","html-keyboard-response","400","189995537","0.0-2.0-2.66","CAL","1","pretest","true","1566376184","78","../img/tt/1281tt.jpg","n",""
"null","../img/gs/1281gs.jpg","","solution","image-keyboard-response","401","189997542","0.0-2.0-3.66","CAL","1","pretest","true","1566376184","null","","",""
"null","../img/tt/1281tt.jpg","","mooney2","image-keyboard-response","402","189999544","0.0-2.0-4.66","CAL","1","pretest","true","1566376184","null","","",""
"498","<p>How strong was your <strong>aha-experience</strong>?</p>","","aha","html-keyboard-response","403","190000042","0.0-2.0-5.66","CAL","1","pretest","true","1566376184","50","../img/tt/1281tt.jpg","","2"
"null","<div style=""font-size:60px;""> </div>","","fixation","html-keyboard-response","404","190000244","0.0-2.0-0.67","CAL","1","pretest","true","1566376184","null","","",""
"null","../img/tt/1073tt.jpg","","mooney1","image-keyboard-response","405","190003248","0.0-2.0-1.67","CAL","1","pretest","true","1566376184","null","../img/tt/1073tt.jpg","",""
"1396","<p></p>","","recognized","html-keyboard-response","406","190004646","0.0-2.0-2.67","CAL","1","pretest","true","1566376184","78","../img/tt/1073tt.jpg","n",""
"null","../img/gs/1073gs.jpg","","solution","image-keyboard-response","407","190006651","0.0-2.0-3.67","CAL","1","pretest","true","1566376184","null","","",""
"null","../img/tt/1073tt.jpg","","mooney2","image-keyboard-response","408","190008653","0.0-2.0-4.67","CAL","1","pretest","true","1566376184","null","","",""
"2255","<p>How strong was your <strong>aha-experience</strong>?</p>","","aha","html-keyboard-response","409","190010911","0.0-2.0-5.67","CAL","1","pretest","true","1566376184","52","../img/tt/1073tt.jpg","","4"
"null","<div style=""font-size:60px;""> </div>","","fixation","html-keyboard-response","410","190011113","0.0-2.0-0.68","CAL","1","pretest","true","1566376184","null","","",""
"null","../img/tt/1253tt.jpg","","mooney1","image-keyboard-response","411","190014118","0.0-2.0-1.68","CAL","1","pretest","true","1566376184","null","../img/tt/1253tt.jpg","",""
"394","<p></p>","","recognized","html-keyboard-response","412","190014513","0.0-2.0-2.68","CAL","1","pretest","true","1566376184","89","../img/tt/1253tt.jpg","y",""
"null","../img/gs/1253gs.jpg","","solution","image-keyboard-response","413","190016515","0.0-2.0-3.68","CAL","1","pretest","true","1566376184","null","","",""
"null","../img/tt/1253tt.jpg","","mooney2","image-keyboard-response","414","190018516","0.0-2.0-4.68","CAL","1","pretest","true","1566376184","null","","",""
"7391","<p>How strong was your <strong>aha-experience</strong>?</p>","","aha","html-keyboard-response","415","190025909","0.0-2.0-5.68","CAL","1","pretest","true","1566376184","51","../img/tt/1253tt.jpg","","3"
"null","<div style=""font-size:60px;""> </div>","","fixation","html-keyboard-response","416","190026110","0.0-2.0-0.69","CAL","1","pretest","true","1566376184","null","","",""
"null","../img/tt/1205tt.jpg","","mooney1","image-keyboard-response","417","190029117","0.0-2.0-1.69","CAL","1","pretest","true","1566376184","null","../img/tt/1205tt.jpg","",""
"1865","<p></p>","","recognized","html-keyboard-response","418","190030982","0.0-2.0-2.69","CAL","1","pretest","true","1566376184","78","../img/tt/1205tt.jpg","n",""
"null","../img/gs/1205gs.jpg","","solution","image-keyboard-response","419","190032987","0.0-2.0-3.69","CAL","1","pretest","true","1566376184","null","","",""
"null","../img/tt/1205tt.jpg","","mooney2","image-keyboard-response","420","190034989","0.0-2.0-4.69","CAL","1","pretest","true","1566376184","null","","",""
"1180","<p>How strong was your <strong>aha-experience</strong>?</p>","","aha","html-keyboard-response","421","190036173","0.0-2.0-5.69","CAL","1","pretest","true","1566376184","55","../img/tt/1205tt.jpg","","7"
"null","<div style=""font-size:60px;""> </div>","","fixation","html-keyboard-response","422","190036376","0.0-2.0-0.70","CAL","1","pretest","true","1566376184","null","","",""
"null","../img/tt/1061tt.jpg","","mooney1","image-keyboard-response","423","190039379","0.0-2.0-1.70","CAL","1","pretest","true","1566376184","null","../img/tt/1061tt.jpg","",""
"859","<p></p>","","recognized","html-keyboard-response","424","190040239","0.0-2.0-2.70","CAL","1","pretest","true","1566376184","78","../img/tt/1061tt.jpg","n",""
"null","../img/gs/1061gs.jpg","","solution","image-keyboard-response","425","190042242","0.0-2.0-3.70","CAL","1","pretest","true","1566376184","null","","",""
"null","../img/tt/1061tt.jpg","","mooney2","image-keyboard-response","426","190044243","0.0-2.0-4.70","CAL","1","pretest","true","1566376184","null","","",""
"2669","<p>How strong was your <strong>aha-experience</strong>?</p>","","aha","html-keyboard-response","427","190046913","0.0-2.0-5.70","CAL","1","pretest","true","1566376184","54","../img/tt/1061tt.jpg","","6"
"null","<div style=""font-size:60px;""> </div>","","fixation","html-keyboard-response","428","190047114","0.0-2.0-0.71","CAL","1","pretest","true","1566376184","null","","",""
"null","../img/tt/1129tt.jpg","","mooney1","image-keyboard-response","429","190050118","0.0-2.0-1.71","CAL","1","pretest","true","1566376184","null","../img/tt/1129tt.jpg","",""
"603","<p></p>","","recognized","html-keyboard-response","430","190050721","0.0-2.0-2.71","CAL","1","pretest","true","1566376184","78","../img/tt/1129tt.jpg","n",""
"null","../img/gs/1129gs.jpg","","solution","image-keyboard-response","431","190052724","0.0-2.0-3.71","CAL","1","pretest","true","1566376184","null","","",""
"null","../img/tt/1129tt.jpg","","mooney2","image-keyboard-response","432","190054726","0.0-2.0-4.71","CAL","1","pretest","true","1566376184","null","","",""
"816","<p>How strong was your <strong>aha-experience</strong>?</p>","","aha","html-keyboard-response","433","190055544","0.0-2.0-5.71","CAL","1","pretest","true","1566376184","55","../img/tt/1129tt.jpg","","7"
"null","<div style=""font-size:60px;""> </div>","","fixation","html-keyboard-response","434","190055745","0.0-2.0-0.72","CAL","1","pretest","true","1566376184","null","","",""
"null","../img/tt/1068tt.jpg","","mooney1","image-keyboard-response","435","190058749","0.0-2.0-1.72","CAL","1","pretest","true","1566376184","null","../img/tt/1068tt.jpg","",""
"1798","<p></p>","","recognized","html-keyboard-response","436","190060547","0.0-2.0-2.72","CAL","1","pretest","true","1566376184","89","../img/tt/1068tt.jpg","y",""
"null","../img/gs/1068gs.jpg","","solution","image-keyboard-response","437","190062549","0.0-2.0-3.72","CAL","1","pretest","true","1566376184","null","","",""
"null","../img/tt/1068tt.jpg","","mooney2","image-keyboard-response","438","190064552","0.0-2.0-4.72","CAL","1","pretest","true","1566376184","null","","",""
"959","<p>How strong was your <strong>aha-experience</strong>?</p>","","aha","html-keyboard-response","439","190065514","0.0-2.0-5.72","CAL","1","pretest","true","1566376184","53","../img/tt/1068tt.jpg","","5"
"null","<div style=""font-size:60px;""> </div>","","fixation","html-keyboard-response","440","190065716","0.0-2.0-0.73","CAL","1","pretest","true","1566376184","null","","",""
"null","../img/tt/1054tt.jpg","","mooney1","image-keyboard-response","441","190068720","0.0-2.0-1.73","CAL","1","pretest","true","1566376184","null","../img/tt/1054tt.jpg","",""
"2603","<p></p>","","recognized","html-keyboard-response","442","190071323","0.0-2.0-2.73","CAL","1","pretest","true","1566376184","89","../img/tt/1054tt.jpg","y",""
"null","../img/gs/1054gs.jpg","","solution","image-keyboard-response","443","190073325","0.0-2.0-3.73","CAL","1","pretest","true","1566376184","null","","",""
"null","../img/tt/1054tt.jpg","","mooney2","image-keyboard-response","444","190075327","0.0-2.0-4.73","CAL","1","pretest","true","1566376184","null","","",""
"1842","<p>How strong was your <strong>aha-experience</strong>?</p>","","aha","html-keyboard-response","445","190077169","0.0-2.0-5.73","CAL","1","pretest","true","1566376184","54","../img/tt/1054tt.jpg","","6"
"null","<div style=""font-size:60px;""> </div>","","fixation","html-keyboard-response","446","190077370","0.0-2.0-0.74","CAL","1","pretest","true","1566376184","null","","",""
"null","../img/tt/026tt.jpg","","mooney1","image-keyboard-response","447","190080372","0.0-2.0-1.74","CAL","1","pretest","true","1566376184","null","../img/tt/026tt.jpg","",""
"1324","<p></p>","","recognized","html-keyboard-response","448","190081698","0.0-2.0-2.74","CAL","1","pretest","true","1566376184","78","../img/tt/026tt.jpg","n",""
"null","../img/gs/026gs.jpg","","solution","image-keyboard-response","449","190083701","0.0-2.0-3.74","CAL","1","pretest","true","1566376184","null","","",""
"null","../img/tt/026tt.jpg","","mooney2","image-keyboard-response","450","190085703","0.0-2.0-4.74","CAL","1","pretest","true","1566376184","null","","",""
"1224","<p>How strong was your <strong>aha-experience</strong>?</p>","","aha","html-keyboard-response","451","190086928","0.0-2.0-5.74","CAL","1","pretest","true","1566376184","52","../img/tt/026tt.jpg","","4"
"null","<div style=""font-size:60px;""> </div>","","fixation","html-keyboard-response","452","190087129","0.0-2.0-0.75","CAL","1","pretest","true","1566376184","null","","",""
"null","../img/tt/007tt.jpg","","mooney1","image-keyboard-response","453","190090133","0.0-2.0-1.75","CAL","1","pretest","true","1566376184","null","../img/tt/007tt.jpg","",""
"1486","<p></p>","","recognized","html-keyboard-response","454","190091620","0.0-2.0-2.75","CAL","1","pretest","true","1566376184","78","../img/tt/007tt.jpg","n",""
"null","../img/gs/007gs.jpg","","solution","image-keyboard-response","455","190093622","0.0-2.0-3.75","CAL","1","pretest","true","1566376184","null","","",""
"null","../img/tt/007tt.jpg","","mooney2","image-keyboard-response","456","190095625","0.0-2.0-4.75","CAL","1","pretest","true","1566376184","null","","",""
"394","<p>How strong was your <strong>aha-experience</strong>?</p>","","aha","html-keyboard-response","457","190096023","0.0-2.0-5.75","CAL","1","pretest","true","1566376184","55","../img/tt/007tt.jpg","","7"
"null","<div style=""font-size:60px;""> </div>","","fixation","html-keyboard-response","458","190096226","0.0-2.0-0.76","CAL","1","pretest","true","1566376184","null","","",""
"null","../img/tt/1182tt.jpg","","mooney1","image-keyboard-response","459","190099230","0.0-2.0-1.76","CAL","1","pretest","true","1566376184","null","../img/tt/1182tt.jpg","",""
"924","<p></p>","","recognized","html-keyboard-response","460","190100155","0.0-2.0-2.76","CAL","1","pretest","true","1566376184","89","../img/tt/1182tt.jpg","y",""
"null","../img/gs/1182gs.jpg","","solution","image-keyboard-response","461","190102158","0.0-2.0-3.76","CAL","1","pretest","true","1566376184","null","","",""
"null","../img/tt/1182tt.jpg","","mooney2","image-keyboard-response","462","190104160","0.0-2.0-4.76","CAL","1","pretest","true","1566376184","null","","",""
"1038","<p>How strong was your <strong>aha-experience</strong>?</p>","","aha","html-keyboard-response","463","190105198","0.0-2.0-5.76","CAL","1","pretest","true","1566376184","55","../img/tt/1182tt.jpg","","7"
"null","<div style=""font-size:60px;""> </div>","","fixation","html-keyboard-response","464","190105399","0.0-2.0-0.77","CAL","1","pretest","true","1566376184","null","","",""
"null","../img/tt/039tt.jpg","","mooney1","image-keyboard-response","465","190108402","0.0-2.0-1.77","CAL","1","pretest","true","1566376184","null","../img/tt/039tt.jpg","",""
"876","<p></p>","","recognized","html-keyboard-response","466","190109279","0.0-2.0-2.77","CAL","1","pretest","true","1566376184","78","../img/tt/039tt.jpg","n",""
"null","../img/gs/039gs.jpg","","solution","image-keyboard-response","467","190111282","0.0-2.0-3.77","CAL","1","pretest","true","1566376184","null","","",""
"null","../img/tt/039tt.jpg","","mooney2","image-keyboard-response","468","190113285","0.0-2.0-4.77","CAL","1","pretest","true","1566376184","null","","",""
"22738","<p>How strong was your <strong>aha-experience</strong>?</p>","","aha","html-keyboard-response","469","190136025","0.0-2.0-5.77","CAL","1","pretest","true","1566376184","49","../img/tt/039tt.jpg","","1"
"null","<div style=""font-size:60px;""> </div>","","fixation","html-keyboard-response","470","190136229","0.0-2.0-0.78","CAL","1","pretest","true","1566376184","null","","",""
"null","../img/tt/1277tt.jpg","","mooney1","image-keyboard-response","471","190139234","0.0-2.0-1.78","CAL","1","pretest","true","1566376184","null","../img/tt/1277tt.jpg","",""
"375","<p></p>","","recognized","html-keyboard-response","472","190139615","0.0-2.0-2.78","CAL","1","pretest","true","1566376184","78","../img/tt/1277tt.jpg","n",""
"null","../img/gs/1277gs.jpg","","solution","image-keyboard-response","473","190141619","0.0-2.0-3.78","CAL","1","pretest","true","1566376184","null","","",""
"null","../img/tt/1277tt.jpg","","mooney2","image-keyboard-response","474","190143620","0.0-2.0-4.78","CAL","1","pretest","true","1566376184","null","","",""
"1635","<p>How strong was your <strong>aha-experience</strong>?</p>","","aha","html-keyboard-response","475","190145256","0.0-2.0-5.78","CAL","1","pretest","true","1566376184","52","../img/tt/1277tt.jpg","","4"
"null","<div style=""font-size:60px;""> </div>","","fixation","html-keyboard-response","476","190145458","0.0-2.0-0.79","CAL","1","pretest","true","1566376184","null","","",""
"null","../img/tt/1260tt.jpg","","mooney1","image-keyboard-response","477","190148463","0.0-2.0-1.79","CAL","1","pretest","true","1566376184","null","../img/tt/1260tt.jpg","",""
"354","<p></p>","","recognized","html-keyboard-response","478","190148817","0.0-2.0-2.79","CAL","1","pretest","true","1566376184","78","../img/tt/1260tt.jpg","n",""
"null","../img/gs/1260gs.jpg","","solution","image-keyboard-response","479","190150819","0.0-2.0-3.79","CAL","1","pretest","true","1566376184","null","","",""
"null","../img/tt/1260tt.jpg","","mooney2","image-keyboard-response","480","190152820","0.0-2.0-4.79","CAL","1","pretest","true","1566376184","null","","",""
"324","<p>How strong was your <strong>aha-experience</strong>?</p>","","aha","html-keyboard-response","481","190153145","0.0-2.0-5.79","CAL","1","pretest","true","1566376184","54","../img/tt/1260tt.jpg","","6"
"null","<div style=""font-size:60px;""> </div>","","fixation","html-keyboard-response","482","190153346","0.0-2.0-0.80","CAL","1","pretest","true","1566376184","null","","",""
"null","../img/tt/126tt.jpg","","mooney1","image-keyboard-response","483","190156353","0.0-2.0-1.80","CAL","1","pretest","true","1566376184","null","../img/tt/126tt.jpg","",""
"1030","<p></p>","","recognized","html-keyboard-response","484","190157386","0.0-2.0-2.80","CAL","1","pretest","true","1566376184","78","../img/tt/126tt.jpg","n",""
"null","../img/gs/126gs.jpg","","solution","image-keyboard-response","485","190159389","0.0-2.0-3.80","CAL","1","pretest","true","1566376184","null","","",""
"null","../img/tt/126tt.jpg","","mooney2","image-keyboard-response","486","190161391","0.0-2.0-4.80","CAL","1","pretest","true","1566376184","null","","",""
"1673","<p>How strong was your <strong>aha-experience</strong>?</p>","","aha","html-keyboard-response","487","190163065","0.0-2.0-5.80","CAL","1","pretest","true","1566376184","54","../img/tt/126tt.jpg","","6"
"null","<div style=""font-size:60px;""> </div>","","fixation","html-keyboard-response","488","190163268","0.0-2.0-0.81","CAL","1","pretest","true","1566376184","null","","",""
"null","../img/tt/1216tt.jpg","","mooney1","image-keyboard-response","489","190166273","0.0-2.0-1.81","CAL","1","pretest","true","1566376184","null","../img/tt/1216tt.jpg","",""
"152261525","<p></p>","","recognized","html-keyboard-response","490","342427804","0.0-2.0-2.81","CAL","1","pretest","true","1566376184","89","../img/tt/1216tt.jpg","y",""
"null","../img/gs/1216gs.jpg","","solution","image-keyboard-response","491","342429821","0.0-2.0-3.81","CAL","1","pretest","true","1566376184","null","","",""
"null","../img/tt/1216tt.jpg","","mooney2","image-keyboard-response","492","342431825","0.0-2.0-4.81","CAL","1","pretest","true","1566376184","null","","",""
"2791","<p>How strong was your <strong>aha-experience</strong>?</p>","","aha","html-keyboard-response","493","342434619","0.0-2.0-5.81","CAL","1","pretest","true","1566376184","52","../img/tt/1216tt.jpg","","4"
"null","<div style=""font-size:60px;""> </div>","","fixation","html-keyboard-response","494","342434825","0.0-2.0-0.82","CAL","1","pretest","true","1566376184","null","","",""
"null","../img/tt/1218tt.jpg","","mooney1","image-keyboard-response","495","342437827","0.0-2.0-1.82","CAL","1","pretest","true","1566376184","null","../img/tt/1218tt.jpg","",""
"3572","<p></p>","","recognized","html-keyboard-response","496","342441420","0.0-2.0-2.82","CAL","1","pretest","true","1566376184","89","../img/tt/1218tt.jpg","y",""
"null","../img/gs/1218gs.jpg","","solution","image-keyboard-response","497","342443427","0.0-2.0-3.82","CAL","1","pretest","true","1566376184","null","","",""
"null","../img/tt/1218tt.jpg","","mooney2","image-keyboard-response","498","342445453","0.0-2.0-4.82","CAL","1","pretest","true","1566376184","null","","",""
"2647","<p>How strong was your <strong>aha-experience</strong>?</p>","","aha","html-keyboard-response","499","342448102","0.0-2.0-5.82","CAL","1","pretest","true","1566376184","55","../img/tt/1218tt.jpg","","7"
"null","<div style=""font-size:60px;""> </div>","","fixation","html-keyboard-response","500","342448304","0.0-2.0-0.83","CAL","1","pretest","true","1566376184","null","","",""
"null","../img/tt/1042tt.jpg","","mooney1","image-keyboard-response","501","342451307","0.0-2.0-1.83","CAL","1","pretest","true","1566376184","null","../img/tt/1042tt.jpg","",""
"2380","<p></p>","","recognized","html-keyboard-response","502","342453688","0.0-2.0-2.83","CAL","1","pretest","true","1566376184","89","../img/tt/1042tt.jpg","y",""
"null","../img/gs/1042gs.jpg","","solution","image-keyboard-response","503","342455693","0.0-2.0-3.83","CAL","1","pretest","true","1566376184","null","","",""
"null","../img/tt/1042tt.jpg","","mooney2","image-keyboard-response","504","342457696","0.0-2.0-4.83","CAL","1","pretest","true","1566376184","null","","",""
"1202","<p>How strong was your <strong>aha-experience</strong>?</p>","","aha","html-keyboard-response","505","342458901","0.0-2.0-5.83","CAL","1","pretest","true","1566376184","53","../img/tt/1042tt.jpg","","5"
"null","<div style=""font-size:60px;""> </div>","","fixation","html-keyboard-response","506","342459103","0.0-2.0-0.84","CAL","1","pretest","true","1566376184","null","","",""
"null","../img/tt/1103tt.jpg","","mooney1","image-keyboard-response","507","342462108","0.0-2.0-1.84","CAL","1","pretest","true","1566376184","null","../img/tt/1103tt.jpg","",""
"1706","<p></p>","","recognized","html-keyboard-response","508","342463815","0.0-2.0-2.84","CAL","1","pretest","true","1566376184","78","../img/tt/1103tt.jpg","n",""
"null","../img/gs/1103gs.jpg","","solution","image-keyboard-response","509","342465818","0.0-2.0-3.84","CAL","1","pretest","true","1566376184","null","","",""
"null","../img/tt/1103tt.jpg","","mooney2","image-keyboard-response","510","342467820","0.0-2.0-4.84","CAL","1","pretest","true","1566376184","null","","",""
"565","<p>How strong was your <strong>aha-experience</strong>?</p>","","aha","html-keyboard-response","511","342468386","0.0-2.0-5.84","CAL","1","pretest","true","1566376184","51","../img/tt/1103tt.jpg","","3"
"null","<div style=""font-size:60px;""> </div>","","fixation","html-keyboard-response","512","342468588","0.0-2.0-0.85","CAL","1","pretest","true","1566376184","null","","",""
"null","../img/tt/1224tt.jpg","","mooney1","image-keyboard-response","513","342471591","0.0-2.0-1.85","CAL","1","pretest","true","1566376184","null","../img/tt/1224tt.jpg","",""
"1707","<p></p>","","recognized","html-keyboard-response","514","342473299","0.0-2.0-2.85","CAL","1","pretest","true","1566376184","78","../img/tt/1224tt.jpg","n",""
"null","../img/gs/1224gs.jpg","","solution","image-keyboard-response","515","342475303","0.0-2.0-3.85","CAL","1","pretest","true","1566376184","null","","",""
"null","../img/tt/1224tt.jpg","","mooney2","image-keyboard-response","516","342477304","0.0-2.0-4.85","CAL","1","pretest","true","1566376184","null","","",""
"1657","<p>How strong was your <strong>aha-experience</strong>?</p>","","aha","html-keyboard-response","517","342478962","0.0-2.0-5.85","CAL","1","pretest","true","1566376184","51","../img/tt/1224tt.jpg","","3"
"null","<div style=""font-size:60px;""> </div>","","fixation","html-keyboard-response","518","342479164","0.0-2.0-0.86","CAL","1","pretest","true","1566376184","null","","",""
"null","../img/tt/1002tt.jpg","","mooney1","image-keyboard-response","519","342482166","0.0-2.0-1.86","CAL","1","pretest","true","1566376184","null","../img/tt/1002tt.jpg","",""
"876","<p></p>","","recognized","html-keyboard-response","520","342483043","0.0-2.0-2.86","CAL","1","pretest","true","1566376184","78","../img/tt/1002tt.jpg","n",""
"null","../img/gs/1002gs.jpg","","solution","image-keyboard-response","521","342485077","0.0-2.0-3.86","CAL","1","pretest","true","1566376184","null","","",""
"null","../img/tt/1002tt.jpg","","mooney2","image-keyboard-response","522","342487078","0.0-2.0-4.86","CAL","1","pretest","true","1566376184","null","","",""
"1162","<p>How strong was your <strong>aha-experience</strong>?</p>","","aha","html-keyboard-response","523","342488242","0.0-2.0-5.86","CAL","1","pretest","true","1566376184","53","../img/tt/1002tt.jpg","","5"
"null","<div style=""font-size:60px;""> </div>","","fixation","html-keyboard-response","524","342488444","0.0-2.0-0.87","CAL","1","pretest","true","1566376184","null","","",""
"null","../img/tt/1289tt.jpg","","mooney1","image-keyboard-response","525","342491450","0.0-2.0-1.87","CAL","1","pretest","true","1566376184","null","../img/tt/1289tt.jpg","",""
"1652","<p></p>","","recognized","html-keyboard-response","526","342493103","0.0-2.0-2.87","CAL","1","pretest","true","1566376184","89","../img/tt/1289tt.jpg","y",""
"null","../img/gs/1289gs.jpg","","solution","image-keyboard-response","527","342495113","0.0-2.0-3.87","CAL","1","pretest","true","1566376184","null","","",""
"null","../img/tt/1289tt.jpg","","mooney2","image-keyboard-response","528","342497117","0.0-2.0-4.87","CAL","1","pretest","true","1566376184","null","","",""
"1985","<p>How strong was your <strong>aha-experience</strong>?</p>","","aha","html-keyboard-response","529","342499103","0.0-2.0-5.87","CAL","1","pretest","true","1566376184","54","../img/tt/1289tt.jpg","","6"
"null","<div style=""font-size:60px;""> </div>","","fixation","html-keyboard-response","530","342499306","0.0-2.0-0.88","CAL","1","pretest","true","1566376184","null","","",""
"null","../img/tt/1187tt.jpg","","mooney1","image-keyboard-response","531","342502308","0.0-2.0-1.88","CAL","1","pretest","true","1566376184","null","../img/tt/1187tt.jpg","",""
"952","<p></p>","","recognized","html-keyboard-response","532","342503261","0.0-2.0-2.88","CAL","1","pretest","true","1566376184","78","../img/tt/1187tt.jpg","n",""
"null","../img/gs/1187gs.jpg","","solution","image-keyboard-response","533","342505269","0.0-2.0-3.88","CAL","1","pretest","true","1566376184","null","","",""
"null","../img/tt/1187tt.jpg","","mooney2","image-keyboard-response","534","342507274","0.0-2.0-4.88","CAL","1","pretest","true","1566376184","null","","",""
"2718","<p>How strong was your <strong>aha-experience</strong>?</p>","","aha","html-keyboard-response","535","342510016","0.0-2.0-5.88","CAL","1","pretest","true","1566376184","53","../img/tt/1187tt.jpg","","5"
"null","<div style=""font-size:60px;""> </div>","","fixation","html-keyboard-response","536","342510221","0.0-2.0-0.89","CAL","1","pretest","true","1566376184","null","","",""
"null","../img/tt/090tt.jpg","","mooney1","image-keyboard-response","537","342513225","0.0-2.0-1.89","CAL","1","pretest","true","1566376184","null","../img/tt/090tt.jpg","",""
"2208","<p></p>","","recognized","html-keyboard-response","538","342515439","0.0-2.0-2.89","CAL","1","pretest","true","1566376184","89","../img/tt/090tt.jpg","y",""
"null","../img/gs/090gs.jpg","","solution","image-keyboard-response","539","342517447","0.0-2.0-3.89","CAL","1","pretest","true","1566376184","null","","",""
"null","../img/tt/090tt.jpg","","mooney2","image-keyboard-response","540","342519449","0.0-2.0-4.89","CAL","1","pretest","true","1566376184","null","","",""
"2500","<p>How strong was your <strong>aha-experience</strong>?</p>","","aha","html-keyboard-response","541","342521951","0.0-2.0-5.89","CAL","1","pretest","true","1566376184","54","../img/tt/090tt.jpg","","6"
"null","<div style=""font-size:60px;""> </div>","","fixation","html-keyboard-response","542","342522153","0.0-2.0-0.90","CAL","1","pretest","true","1566376184","null","","",""
"null","../img/tt/1027tt.jpg","","mooney1","image-keyboard-response","543","342525171","0.0-2.0-1.90","CAL","1","pretest","true","1566376184","null","../img/tt/1027tt.jpg","",""
"2595","<p></p>","","recognized","html-keyboard-response","544","342527768","0.0-2.0-2.90","CAL","1","pretest","true","1566376184","78","../img/tt/1027tt.jpg","n",""
"null","../img/gs/1027gs.jpg","","solution","image-keyboard-response","545","342529775","0.0-2.0-3.90","CAL","1","pretest","true","1566376184","null","","",""
"null","../img/tt/1027tt.jpg","","mooney2","image-keyboard-response","546","342531776","0.0-2.0-4.90","CAL","1","pretest","true","1566376184","null","","",""
"1033","<p>How strong was your <strong>aha-experience</strong>?</p>","","aha","html-keyboard-response","547","342532811","0.0-2.0-5.90","CAL","1","pretest","true","1566376184","55","../img/tt/1027tt.jpg","","7"
