"rt","stimulus","button_pressed","test_part","trial_type","trial_index","time_elapsed","internal_node_id","subject","session","experiment_name","complete","totalTime","key_press","currentStim","recognized","aha"
"14830","<div style='word-wrap: break-word; width: 900px'><h3>Please consider this information carefully before deciding whether to participate in this research</h3><ul style='text-align: left; font-size: .8em;'><li><b>Purpose of the research</b>: To examine how people process images.</li><li><b>What you will do in this research</b>:  Stimuli (images) will be presented on the computer and you will be asked different questions about them.</li><li><b>Time required</b>: Participation will take max 60 minutes to complete.</li><li><b>Risks</b>:  There are no anticipated risks associated with participating in this study. The effects of participating should be comparable to those you would experience from viewing a computer monitor for 60 minutes and using a mouse or keyboard.</li><li><b>Benefits</b>:  This study provides no benefits to you individually. The study provides important information about the nature of perception and learning.</li><li><b>Confidentiality</b>:  Your participation in this study will remain confidential. No personally identifiable information will be associated with your data. Your de-identified data may be shared with other researchers and used in future projects.</li><li><b>Participation and withdrawal</b>:  Your participation in this study is completely voluntary and you may refuse to participate or you may choose to withdraw at any time without penalty.</li><li><b>How to contact the researchers</b>: If you have questions or concerns about your participation or payment, or want to request a summary of research findings, please contact Sander Van de Cruys (KU Leuven), at sander.vandecruys@kuleuven.be.</li></ul><p>The nature and purpose of this research have been sufficiently explained and I agree to participate in this study.  I understand that I am free to withdraw at any time without incurring any penalty.</p><p>Please consent by clicking the button below to continue. Otherwise, please exit the study at this time.</p></div>","0","instructions","html-button-response","0","14832","0.0-0.0","GP","2","pretest","true","3528904","","","",""
"82110","<div style='word-wrap: break-word; width: 900px'><h3>Instructions</h3><p>In this experiment you will see a series of distorted images like the one below on the left. As you can see in the righthand image, the distorted images are derived from actual photographs.In what follows, you will <strong>briefly</strong> be presented with <strong>only</strong> the distorted image.</p> <div style='float: left; margin-right: 20px;'><img src='../img/018tt.jpg' height='250' width='250'></img></div><div style='float: right; margin-left: 20px;'><img src='../img/018gs.jpg' height='250' width='250'></img></div><p>To be useful for future research, we need to select those images that people can generally not solve on their own. Therefore we'll show you the distorted image and ask you to indicate (yes or no) whether you already recognized what was in the image. This is not a competition, so please respond truthfully. We don't ask or check your answer, we just want to know whether you think you recognized it. All images depict objects from one of these broad level categories: animals, inanimate objects, plants, sports, vehicles, and food. Recognizing means knowing more than these broad labels for a given image. It means knowing at least the basic level category of the main object in the image, for example when you see a parrot in the image, 'parrot' will obviously be a correct answer but also correct is 'bird', but not 'animal' (the broad level category). For the example above, 'rose' would be correct or 'flower', but not 'plant'. When soccer players are depicted, you don't recognize the image when you just see 'humans', 'outdoors', or 'sports'. Note that complete certainty about your answer is not necessary, it's enough to have a good, definite guess on the object, to say 'yes, I recognized it'.</p><p>One additional question will be asked after we've revealed the solution: You'll be asked to indicate how strong your <strong>aha-experience</strong> was. This describes the positive 'click' you sometimes experience, when the pieces of the 'puzzle' fall together and you suddenly have 'insight' in the image. It describes how good you felt the 'fit' was between the distorted image and the solution.</p><p>Press any key to start.</p></div>","","instructions","html-keyboard-response","1","96943","0.0-1.0","GP","2","pretest","true","3528904","32","","",""
"null","<div style=""font-size:60px;""> </div>","","fixation","html-keyboard-response","2","97150","0.0-2.0-0.0","GP","2","pretest","true","3528904","null","","",""
"null","../img/tt/1329tt.jpg","","mooney1","image-keyboard-response","3","100164","0.0-2.0-1.0","GP","2","pretest","true","3528904","null","../img/tt/1329tt.jpg","",""
"3004","<p></p>","","recognized","html-keyboard-response","4","103169","0.0-2.0-2.0","GP","2","pretest","true","3528904","89","../img/tt/1329tt.jpg","y",""
"null","../img/gs/1329gs.jpg","","solution","image-keyboard-response","5","105180","0.0-2.0-3.0","GP","2","pretest","true","3528904","null","","",""
"null","../img/tt/1329tt.jpg","","mooney2","image-keyboard-response","6","107183","0.0-2.0-4.0","GP","2","pretest","true","3528904","null","","",""
"1410","<p>How strong was your <strong>aha-experience</strong>?</p>","","aha","html-keyboard-response","7","108594","0.0-2.0-5.0","GP","2","pretest","true","3528904","50","../img/tt/1329tt.jpg","","2"
"null","<div style=""font-size:60px;""> </div>","","fixation","html-keyboard-response","8","108798","0.0-2.0-0.1","GP","2","pretest","true","3528904","null","","",""
"null","../img/tt/517tt.jpg","","mooney1","image-keyboard-response","9","111804","0.0-2.0-1.1","GP","2","pretest","true","3528904","null","../img/tt/517tt.jpg","",""
"2328","<p></p>","","recognized","html-keyboard-response","10","114133","0.0-2.0-2.1","GP","2","pretest","true","3528904","78","../img/tt/517tt.jpg","n",""
"null","../img/gs/517gs.jpg","","solution","image-keyboard-response","11","116139","0.0-2.0-3.1","GP","2","pretest","true","3528904","null","","",""
"null","../img/tt/517tt.jpg","","mooney2","image-keyboard-response","12","118151","0.0-2.0-4.1","GP","2","pretest","true","3528904","null","","",""
"2922","<p>How strong was your <strong>aha-experience</strong>?</p>","","aha","html-keyboard-response","13","121075","0.0-2.0-5.1","GP","2","pretest","true","3528904","52","../img/tt/517tt.jpg","","4"
"null","<div style=""font-size:60px;""> </div>","","fixation","html-keyboard-response","14","121279","0.0-2.0-0.2","GP","2","pretest","true","3528904","null","","",""
"null","../img/tt/599tt.jpg","","mooney1","image-keyboard-response","15","124292","0.0-2.0-1.2","GP","2","pretest","true","3528904","null","../img/tt/599tt.jpg","",""
"1951","<p></p>","","recognized","html-keyboard-response","16","126243","0.0-2.0-2.2","GP","2","pretest","true","3528904","89","../img/tt/599tt.jpg","y",""
"null","../img/gs/599gs.jpg","","solution","image-keyboard-response","17","128258","0.0-2.0-3.2","GP","2","pretest","true","3528904","null","","",""
"null","../img/tt/599tt.jpg","","mooney2","image-keyboard-response","18","130267","0.0-2.0-4.2","GP","2","pretest","true","3528904","null","","",""
"722","<p>How strong was your <strong>aha-experience</strong>?</p>","","aha","html-keyboard-response","19","130989","0.0-2.0-5.2","GP","2","pretest","true","3528904","50","../img/tt/599tt.jpg","","2"
"null","<div style=""font-size:60px;""> </div>","","fixation","html-keyboard-response","20","131197","0.0-2.0-0.3","GP","2","pretest","true","3528904","null","","",""
"null","../img/tt/434tt.jpg","","mooney1","image-keyboard-response","21","134209","0.0-2.0-1.3","GP","2","pretest","true","3528904","null","../img/tt/434tt.jpg","",""
"1449","<p></p>","","recognized","html-keyboard-response","22","135658","0.0-2.0-2.3","GP","2","pretest","true","3528904","78","../img/tt/434tt.jpg","n",""
"null","../img/gs/434gs.jpg","","solution","image-keyboard-response","23","137668","0.0-2.0-3.3","GP","2","pretest","true","3528904","null","","",""
"null","../img/tt/434tt.jpg","","mooney2","image-keyboard-response","24","139671","0.0-2.0-4.3","GP","2","pretest","true","3528904","null","","",""
"692","<p>How strong was your <strong>aha-experience</strong>?</p>","","aha","html-keyboard-response","25","140364","0.0-2.0-5.3","GP","2","pretest","true","3528904","50","../img/tt/434tt.jpg","","2"
"null","<div style=""font-size:60px;""> </div>","","fixation","html-keyboard-response","26","140571","0.0-2.0-0.4","GP","2","pretest","true","3528904","null","","",""
"null","../img/tt/1367tt.jpg","","mooney1","image-keyboard-response","27","143578","0.0-2.0-1.4","GP","2","pretest","true","3528904","null","../img/tt/1367tt.jpg","",""
"5578","<p></p>","","recognized","html-keyboard-response","28","149157","0.0-2.0-2.4","GP","2","pretest","true","3528904","89","../img/tt/1367tt.jpg","y",""
"null","../img/gs/1367gs.jpg","","solution","image-keyboard-response","29","151170","0.0-2.0-3.4","GP","2","pretest","true","3528904","null","","",""
"null","../img/tt/1367tt.jpg","","mooney2","image-keyboard-response","30","153175","0.0-2.0-4.4","GP","2","pretest","true","3528904","null","","",""
"622","<p>How strong was your <strong>aha-experience</strong>?</p>","","aha","html-keyboard-response","31","153797","0.0-2.0-5.4","GP","2","pretest","true","3528904","51","../img/tt/1367tt.jpg","","3"
"null","<div style=""font-size:60px;""> </div>","","fixation","html-keyboard-response","32","154002","0.0-2.0-0.5","GP","2","pretest","true","3528904","null","","",""
"null","../img/tt/1333tt.jpg","","mooney1","image-keyboard-response","33","157022","0.0-2.0-1.5","GP","2","pretest","true","3528904","null","../img/tt/1333tt.jpg","",""
"1116","<p></p>","","recognized","html-keyboard-response","34","158139","0.0-2.0-2.5","GP","2","pretest","true","3528904","89","../img/tt/1333tt.jpg","y",""
"null","../img/gs/1333gs.jpg","","solution","image-keyboard-response","35","160152","0.0-2.0-3.5","GP","2","pretest","true","3528904","null","","",""
"null","../img/tt/1333tt.jpg","","mooney2","image-keyboard-response","36","162154","0.0-2.0-4.5","GP","2","pretest","true","3528904","null","","",""
"341","<p>How strong was your <strong>aha-experience</strong>?</p>","","aha","html-keyboard-response","37","162495","0.0-2.0-5.5","GP","2","pretest","true","3528904","49","../img/tt/1333tt.jpg","","1"
"null","<div style=""font-size:60px;""> </div>","","fixation","html-keyboard-response","38","162705","0.0-2.0-0.6","GP","2","pretest","true","3528904","null","","",""
"null","../img/tt/438tt.jpg","","mooney1","image-keyboard-response","39","165708","0.0-2.0-1.6","GP","2","pretest","true","3528904","null","../img/tt/438tt.jpg","",""
"2185","<p></p>","","recognized","html-keyboard-response","40","167894","0.0-2.0-2.6","GP","2","pretest","true","3528904","78","../img/tt/438tt.jpg","n",""
"null","../img/gs/438gs.jpg","","solution","image-keyboard-response","41","169901","0.0-2.0-3.6","GP","2","pretest","true","3528904","null","","",""
"null","../img/tt/438tt.jpg","","mooney2","image-keyboard-response","42","171907","0.0-2.0-4.6","GP","2","pretest","true","3528904","null","","",""
"1363","<p>How strong was your <strong>aha-experience</strong>?</p>","","aha","html-keyboard-response","43","173270","0.0-2.0-5.6","GP","2","pretest","true","3528904","53","../img/tt/438tt.jpg","","5"
"null","<div style=""font-size:60px;""> </div>","","fixation","html-keyboard-response","44","173474","0.0-2.0-0.7","GP","2","pretest","true","3528904","null","","",""
"null","../img/tt/299tt.jpg","","mooney1","image-keyboard-response","45","176483","0.0-2.0-1.7","GP","2","pretest","true","3528904","null","../img/tt/299tt.jpg","",""
"987","<p></p>","","recognized","html-keyboard-response","46","177470","0.0-2.0-2.7","GP","2","pretest","true","3528904","78","../img/tt/299tt.jpg","n",""
"null","../img/gs/299gs.jpg","","solution","image-keyboard-response","47","179473","0.0-2.0-3.7","GP","2","pretest","true","3528904","null","","",""
"null","../img/tt/299tt.jpg","","mooney2","image-keyboard-response","48","181484","0.0-2.0-4.7","GP","2","pretest","true","3528904","null","","",""
"483","<p>How strong was your <strong>aha-experience</strong>?</p>","","aha","html-keyboard-response","49","181967","0.0-2.0-5.7","GP","2","pretest","true","3528904","50","../img/tt/299tt.jpg","","2"
"null","<div style=""font-size:60px;""> </div>","","fixation","html-keyboard-response","50","182180","0.0-2.0-0.8","GP","2","pretest","true","3528904","null","","",""
"null","../img/tt/382tt.jpg","","mooney1","image-keyboard-response","51","185193","0.0-2.0-1.8","GP","2","pretest","true","3528904","null","../img/tt/382tt.jpg","",""
"737","<p></p>","","recognized","html-keyboard-response","52","185930","0.0-2.0-2.8","GP","2","pretest","true","3528904","78","../img/tt/382tt.jpg","n",""
"null","../img/gs/382gs.jpg","","solution","image-keyboard-response","53","187943","0.0-2.0-3.8","GP","2","pretest","true","3528904","null","","",""
"null","../img/tt/382tt.jpg","","mooney2","image-keyboard-response","54","189947","0.0-2.0-4.8","GP","2","pretest","true","3528904","null","","",""
"1467","<p>How strong was your <strong>aha-experience</strong>?</p>","","aha","html-keyboard-response","55","191415","0.0-2.0-5.8","GP","2","pretest","true","3528904","50","../img/tt/382tt.jpg","","2"
"null","<div style=""font-size:60px;""> </div>","","fixation","html-keyboard-response","56","191616","0.0-2.0-0.9","GP","2","pretest","true","3528904","null","","",""
"null","../img/tt/523tt.jpg","","mooney1","image-keyboard-response","57","194629","0.0-2.0-1.9","GP","2","pretest","true","3528904","null","../img/tt/523tt.jpg","",""
"804","<p></p>","","recognized","html-keyboard-response","58","195433","0.0-2.0-2.9","GP","2","pretest","true","3528904","78","../img/tt/523tt.jpg","n",""
"null","../img/gs/523gs.jpg","","solution","image-keyboard-response","59","197437","0.0-2.0-3.9","GP","2","pretest","true","3528904","null","","",""
"null","../img/tt/523tt.jpg","","mooney2","image-keyboard-response","60","199454","0.0-2.0-4.9","GP","2","pretest","true","3528904","null","","",""
"457","<p>How strong was your <strong>aha-experience</strong>?</p>","","aha","html-keyboard-response","61","199912","0.0-2.0-5.9","GP","2","pretest","true","3528904","50","../img/tt/523tt.jpg","","2"
"null","<div style=""font-size:60px;""> </div>","","fixation","html-keyboard-response","62","200124","0.0-2.0-0.10","GP","2","pretest","true","3528904","null","","",""
"null","../img/tt/429tt.jpg","","mooney1","image-keyboard-response","63","203139","0.0-2.0-1.10","GP","2","pretest","true","3528904","null","../img/tt/429tt.jpg","",""
"802","<p></p>","","recognized","html-keyboard-response","64","203941","0.0-2.0-2.10","GP","2","pretest","true","3528904","78","../img/tt/429tt.jpg","n",""
"null","../img/gs/429gs.jpg","","solution","image-keyboard-response","65","205942","0.0-2.0-3.10","GP","2","pretest","true","3528904","null","","",""
"null","../img/tt/429tt.jpg","","mooney2","image-keyboard-response","66","207954","0.0-2.0-4.10","GP","2","pretest","true","3528904","null","","",""
"463","<p>How strong was your <strong>aha-experience</strong>?</p>","","aha","html-keyboard-response","67","208419","0.0-2.0-5.10","GP","2","pretest","true","3528904","49","../img/tt/429tt.jpg","","1"
"null","<div style=""font-size:60px;""> </div>","","fixation","html-keyboard-response","68","208631","0.0-2.0-0.11","GP","2","pretest","true","3528904","null","","",""
"null","../img/tt/469tt.jpg","","mooney1","image-keyboard-response","69","211650","0.0-2.0-1.11","GP","2","pretest","true","3528904","null","../img/tt/469tt.jpg","",""
"2034","<p></p>","","recognized","html-keyboard-response","70","213684","0.0-2.0-2.11","GP","2","pretest","true","3528904","78","../img/tt/469tt.jpg","n",""
"null","../img/gs/469gs.jpg","","solution","image-keyboard-response","71","215698","0.0-2.0-3.11","GP","2","pretest","true","3528904","null","","",""
"null","../img/tt/469tt.jpg","","mooney2","image-keyboard-response","72","217712","0.0-2.0-4.11","GP","2","pretest","true","3528904","null","","",""
"948","<p>How strong was your <strong>aha-experience</strong>?</p>","","aha","html-keyboard-response","73","218660","0.0-2.0-5.11","GP","2","pretest","true","3528904","52","../img/tt/469tt.jpg","","4"
"null","<div style=""font-size:60px;""> </div>","","fixation","html-keyboard-response","74","218869","0.0-2.0-0.12","GP","2","pretest","true","3528904","null","","",""
"null","../img/tt/243tt.jpg","","mooney1","image-keyboard-response","75","221870","0.0-2.0-1.12","GP","2","pretest","true","3528904","null","../img/tt/243tt.jpg","",""
"2179","<p></p>","","recognized","html-keyboard-response","76","224049","0.0-2.0-2.12","GP","2","pretest","true","3528904","78","../img/tt/243tt.jpg","n",""
"null","../img/gs/243gs.jpg","","solution","image-keyboard-response","77","226066","0.0-2.0-3.12","GP","2","pretest","true","3528904","null","","",""
"null","../img/tt/243tt.jpg","","mooney2","image-keyboard-response","78","228073","0.0-2.0-4.12","GP","2","pretest","true","3528904","null","","",""
"1011","<p>How strong was your <strong>aha-experience</strong>?</p>","","aha","html-keyboard-response","79","229084","0.0-2.0-5.12","GP","2","pretest","true","3528904","52","../img/tt/243tt.jpg","","4"
"null","<div style=""font-size:60px;""> </div>","","fixation","html-keyboard-response","80","229294","0.0-2.0-0.13","GP","2","pretest","true","3528904","null","","",""
"null","../img/tt/395tt.jpg","","mooney1","image-keyboard-response","81","232295","0.0-2.0-1.13","GP","2","pretest","true","3528904","null","../img/tt/395tt.jpg","",""
"1116","<p></p>","","recognized","html-keyboard-response","82","233411","0.0-2.0-2.13","GP","2","pretest","true","3528904","89","../img/tt/395tt.jpg","y",""
"null","../img/gs/395gs.jpg","","solution","image-keyboard-response","83","235422","0.0-2.0-3.13","GP","2","pretest","true","3528904","null","","",""
"null","../img/tt/395tt.jpg","","mooney2","image-keyboard-response","84","237429","0.0-2.0-4.13","GP","2","pretest","true","3528904","null","","",""
"2586","<p>How strong was your <strong>aha-experience</strong>?</p>","","aha","html-keyboard-response","85","240015","0.0-2.0-5.13","GP","2","pretest","true","3528904","50","../img/tt/395tt.jpg","","2"
"null","<div style=""font-size:60px;""> </div>","","fixation","html-keyboard-response","86","240223","0.0-2.0-0.14","GP","2","pretest","true","3528904","null","","",""
"null","../img/tt/1360tt.jpg","","mooney1","image-keyboard-response","87","243225","0.0-2.0-1.14","GP","2","pretest","true","3528904","null","../img/tt/1360tt.jpg","",""
"1003","<p></p>","","recognized","html-keyboard-response","88","244228","0.0-2.0-2.14","GP","2","pretest","true","3528904","78","../img/tt/1360tt.jpg","n",""
"null","../img/gs/1360gs.jpg","","solution","image-keyboard-response","89","246244","0.0-2.0-3.14","GP","2","pretest","true","3528904","null","","",""
"null","../img/tt/1360tt.jpg","","mooney2","image-keyboard-response","90","248247","0.0-2.0-4.14","GP","2","pretest","true","3528904","null","","",""
"663","<p>How strong was your <strong>aha-experience</strong>?</p>","","aha","html-keyboard-response","91","248910","0.0-2.0-5.14","GP","2","pretest","true","3528904","49","../img/tt/1360tt.jpg","","1"
"null","<div style=""font-size:60px;""> </div>","","fixation","html-keyboard-response","92","249115","0.0-2.0-0.15","GP","2","pretest","true","3528904","null","","",""
"null","../img/tt/537tt.jpg","","mooney1","image-keyboard-response","93","252123","0.0-2.0-1.15","GP","2","pretest","true","3528904","null","../img/tt/537tt.jpg","",""
"584","<p></p>","","recognized","html-keyboard-response","94","252708","0.0-2.0-2.15","GP","2","pretest","true","3528904","89","../img/tt/537tt.jpg","y",""
"null","../img/gs/537gs.jpg","","solution","image-keyboard-response","95","254722","0.0-2.0-3.15","GP","2","pretest","true","3528904","null","","",""
"null","../img/tt/537tt.jpg","","mooney2","image-keyboard-response","96","256738","0.0-2.0-4.15","GP","2","pretest","true","3528904","null","","",""
"1307","<p>How strong was your <strong>aha-experience</strong>?</p>","","aha","html-keyboard-response","97","258045","0.0-2.0-5.15","GP","2","pretest","true","3528904","50","../img/tt/537tt.jpg","","2"
"null","<div style=""font-size:60px;""> </div>","","fixation","html-keyboard-response","98","258255","0.0-2.0-0.16","GP","2","pretest","true","3528904","null","","",""
"null","../img/tt/131tt.jpg","","mooney1","image-keyboard-response","99","261257","0.0-2.0-1.16","GP","2","pretest","true","3528904","null","../img/tt/131tt.jpg","",""
"856","<p></p>","","recognized","html-keyboard-response","100","262114","0.0-2.0-2.16","GP","2","pretest","true","3528904","89","../img/tt/131tt.jpg","y",""
"null","../img/gs/131gs.jpg","","solution","image-keyboard-response","101","264116","0.0-2.0-3.16","GP","2","pretest","true","3528904","null","","",""
"null","../img/tt/131tt.jpg","","mooney2","image-keyboard-response","102","266118","0.0-2.0-4.16","GP","2","pretest","true","3528904","null","","",""
"639","<p>How strong was your <strong>aha-experience</strong>?</p>","","aha","html-keyboard-response","103","266757","0.0-2.0-5.16","GP","2","pretest","true","3528904","50","../img/tt/131tt.jpg","","2"
"null","<div style=""font-size:60px;""> </div>","","fixation","html-keyboard-response","104","266966","0.0-2.0-0.17","GP","2","pretest","true","3528904","null","","",""
"null","../img/tt/526tt.jpg","","mooney1","image-keyboard-response","105","269968","0.0-2.0-1.17","GP","2","pretest","true","3528904","null","../img/tt/526tt.jpg","",""
"1038","<p></p>","","recognized","html-keyboard-response","106","271006","0.0-2.0-2.17","GP","2","pretest","true","3528904","78","../img/tt/526tt.jpg","n",""
"null","../img/gs/526gs.jpg","","solution","image-keyboard-response","107","273008","0.0-2.0-3.17","GP","2","pretest","true","3528904","null","","",""
"null","../img/tt/526tt.jpg","","mooney2","image-keyboard-response","108","275021","0.0-2.0-4.17","GP","2","pretest","true","3528904","null","","",""
"722","<p>How strong was your <strong>aha-experience</strong>?</p>","","aha","html-keyboard-response","109","275744","0.0-2.0-5.17","GP","2","pretest","true","3528904","49","../img/tt/526tt.jpg","","1"
"null","<div style=""font-size:60px;""> </div>","","fixation","html-keyboard-response","110","275955","0.0-2.0-0.18","GP","2","pretest","true","3528904","null","","",""
"null","../img/tt/238tt.jpg","","mooney1","image-keyboard-response","111","278963","0.0-2.0-1.18","GP","2","pretest","true","3528904","null","../img/tt/238tt.jpg","",""
"994","<p></p>","","recognized","html-keyboard-response","112","279957","0.0-2.0-2.18","GP","2","pretest","true","3528904","78","../img/tt/238tt.jpg","n",""
"null","../img/gs/238gs.jpg","","solution","image-keyboard-response","113","281965","0.0-2.0-3.18","GP","2","pretest","true","3528904","null","","",""
"null","../img/tt/238tt.jpg","","mooney2","image-keyboard-response","114","283974","0.0-2.0-4.18","GP","2","pretest","true","3528904","null","","",""
"689","<p>How strong was your <strong>aha-experience</strong>?</p>","","aha","html-keyboard-response","115","284664","0.0-2.0-5.18","GP","2","pretest","true","3528904","50","../img/tt/238tt.jpg","","2"
"null","<div style=""font-size:60px;""> </div>","","fixation","html-keyboard-response","116","284868","0.0-2.0-0.19","GP","2","pretest","true","3528904","null","","",""
"null","../img/tt/420tt.jpg","","mooney1","image-keyboard-response","117","287878","0.0-2.0-1.19","GP","2","pretest","true","3528904","null","../img/tt/420tt.jpg","",""
"928","<p></p>","","recognized","html-keyboard-response","118","288807","0.0-2.0-2.19","GP","2","pretest","true","3528904","78","../img/tt/420tt.jpg","n",""
"null","../img/gs/420gs.jpg","","solution","image-keyboard-response","119","290809","0.0-2.0-3.19","GP","2","pretest","true","3528904","null","","",""
"null","../img/tt/420tt.jpg","","mooney2","image-keyboard-response","120","292818","0.0-2.0-4.19","GP","2","pretest","true","3528904","null","","",""
"454","<p>How strong was your <strong>aha-experience</strong>?</p>","","aha","html-keyboard-response","121","293272","0.0-2.0-5.19","GP","2","pretest","true","3528904","49","../img/tt/420tt.jpg","","1"
"null","<div style=""font-size:60px;""> </div>","","fixation","html-keyboard-response","122","293475","0.0-2.0-0.20","GP","2","pretest","true","3528904","null","","",""
"null","../img/tt/407tt.jpg","","mooney1","image-keyboard-response","123","296484","0.0-2.0-1.20","GP","2","pretest","true","3528904","null","../img/tt/407tt.jpg","",""
"1901","<p></p>","","recognized","html-keyboard-response","124","298385","0.0-2.0-2.20","GP","2","pretest","true","3528904","78","../img/tt/407tt.jpg","n",""
"null","../img/gs/407gs.jpg","","solution","image-keyboard-response","125","300397","0.0-2.0-3.20","GP","2","pretest","true","3528904","null","","",""
"null","../img/tt/407tt.jpg","","mooney2","image-keyboard-response","126","302410","0.0-2.0-4.20","GP","2","pretest","true","3528904","null","","",""
"1201","<p>How strong was your <strong>aha-experience</strong>?</p>","","aha","html-keyboard-response","127","303611","0.0-2.0-5.20","GP","2","pretest","true","3528904","53","../img/tt/407tt.jpg","","5"
"null","<div style=""font-size:60px;""> </div>","","fixation","html-keyboard-response","128","303823","0.0-2.0-0.21","GP","2","pretest","true","3528904","null","","",""
"null","../img/tt/582tt.jpg","","mooney1","image-keyboard-response","129","306832","0.0-2.0-1.21","GP","2","pretest","true","3528904","null","../img/tt/582tt.jpg","",""
"948","<p></p>","","recognized","html-keyboard-response","130","307780","0.0-2.0-2.21","GP","2","pretest","true","3528904","78","../img/tt/582tt.jpg","n",""
"null","../img/gs/582gs.jpg","","solution","image-keyboard-response","131","309785","0.0-2.0-3.21","GP","2","pretest","true","3528904","null","","",""
"null","../img/tt/582tt.jpg","","mooney2","image-keyboard-response","132","311799","0.0-2.0-4.21","GP","2","pretest","true","3528904","null","","",""
"439","<p>How strong was your <strong>aha-experience</strong>?</p>","","aha","html-keyboard-response","133","312238","0.0-2.0-5.21","GP","2","pretest","true","3528904","49","../img/tt/582tt.jpg","","1"
"null","<div style=""font-size:60px;""> </div>","","fixation","html-keyboard-response","134","312447","0.0-2.0-0.22","GP","2","pretest","true","3528904","null","","",""
"null","../img/tt/1331tt.jpg","","mooney1","image-keyboard-response","135","315455","0.0-2.0-1.22","GP","2","pretest","true","3528904","null","../img/tt/1331tt.jpg","",""
"970","<p></p>","","recognized","html-keyboard-response","136","316425","0.0-2.0-2.22","GP","2","pretest","true","3528904","89","../img/tt/1331tt.jpg","y",""
"null","../img/gs/1331gs.jpg","","solution","image-keyboard-response","137","318430","0.0-2.0-3.22","GP","2","pretest","true","3528904","null","","",""
"null","../img/tt/1331tt.jpg","","mooney2","image-keyboard-response","138","320436","0.0-2.0-4.22","GP","2","pretest","true","3528904","null","","",""
"421","<p>How strong was your <strong>aha-experience</strong>?</p>","","aha","html-keyboard-response","139","320858","0.0-2.0-5.22","GP","2","pretest","true","3528904","50","../img/tt/1331tt.jpg","","2"
"null","<div style=""font-size:60px;""> </div>","","fixation","html-keyboard-response","140","321058","0.0-2.0-0.23","GP","2","pretest","true","3528904","null","","",""
"null","../img/tt/204tt.jpg","","mooney1","image-keyboard-response","141","324059","0.0-2.0-1.23","GP","2","pretest","true","3528904","null","../img/tt/204tt.jpg","",""
"461","<p></p>","","recognized","html-keyboard-response","142","324521","0.0-2.0-2.23","GP","2","pretest","true","3528904","78","../img/tt/204tt.jpg","n",""
"null","../img/gs/204gs.jpg","","solution","image-keyboard-response","143","326526","0.0-2.0-3.23","GP","2","pretest","true","3528904","null","","",""
"null","../img/tt/204tt.jpg","","mooney2","image-keyboard-response","144","328533","0.0-2.0-4.23","GP","2","pretest","true","3528904","null","","",""
"1902","<p>How strong was your <strong>aha-experience</strong>?</p>","","aha","html-keyboard-response","145","330436","0.0-2.0-5.23","GP","2","pretest","true","3528904","50","../img/tt/204tt.jpg","","2"
"null","<div style=""font-size:60px;""> </div>","","fixation","html-keyboard-response","146","330644","0.0-2.0-0.24","GP","2","pretest","true","3528904","null","","",""
"null","../img/tt/1323tt.jpg","","mooney1","image-keyboard-response","147","333646","0.0-2.0-1.24","GP","2","pretest","true","3528904","null","../img/tt/1323tt.jpg","",""
"856","<p></p>","","recognized","html-keyboard-response","148","334502","0.0-2.0-2.24","GP","2","pretest","true","3528904","89","../img/tt/1323tt.jpg","y",""
"null","../img/gs/1323gs.jpg","","solution","image-keyboard-response","149","336509","0.0-2.0-3.24","GP","2","pretest","true","3528904","null","","",""
"null","../img/tt/1323tt.jpg","","mooney2","image-keyboard-response","150","338510","0.0-2.0-4.24","GP","2","pretest","true","3528904","null","","",""
"522","<p>How strong was your <strong>aha-experience</strong>?</p>","","aha","html-keyboard-response","151","339032","0.0-2.0-5.24","GP","2","pretest","true","3528904","50","../img/tt/1323tt.jpg","","2"
"null","<div style=""font-size:60px;""> </div>","","fixation","html-keyboard-response","152","339246","0.0-2.0-0.25","GP","2","pretest","true","3528904","null","","",""
"null","../img/tt/569tt.jpg","","mooney1","image-keyboard-response","153","342259","0.0-2.0-1.25","GP","2","pretest","true","3528904","null","../img/tt/569tt.jpg","",""
"944","<p></p>","","recognized","html-keyboard-response","154","343203","0.0-2.0-2.25","GP","2","pretest","true","3528904","78","../img/tt/569tt.jpg","n",""
"null","../img/gs/569gs.jpg","","solution","image-keyboard-response","155","345214","0.0-2.0-3.25","GP","2","pretest","true","3528904","null","","",""
"null","../img/tt/569tt.jpg","","mooney2","image-keyboard-response","156","347221","0.0-2.0-4.25","GP","2","pretest","true","3528904","null","","",""
"2539","<p>How strong was your <strong>aha-experience</strong>?</p>","","aha","html-keyboard-response","157","349760","0.0-2.0-5.25","GP","2","pretest","true","3528904","51","../img/tt/569tt.jpg","","3"
"null","<div style=""font-size:60px;""> </div>","","fixation","html-keyboard-response","158","349976","0.0-2.0-0.26","GP","2","pretest","true","3528904","null","","",""
"null","../img/tt/398tt.jpg","","mooney1","image-keyboard-response","159","352992","0.0-2.0-1.26","GP","2","pretest","true","3528904","null","../img/tt/398tt.jpg","",""
"876","<p></p>","","recognized","html-keyboard-response","160","353869","0.0-2.0-2.26","GP","2","pretest","true","3528904","78","../img/tt/398tt.jpg","n",""
"null","../img/gs/398gs.jpg","","solution","image-keyboard-response","161","355874","0.0-2.0-3.26","GP","2","pretest","true","3528904","null","","",""
"null","../img/tt/398tt.jpg","","mooney2","image-keyboard-response","162","357886","0.0-2.0-4.26","GP","2","pretest","true","3528904","null","","",""
"591","<p>How strong was your <strong>aha-experience</strong>?</p>","","aha","html-keyboard-response","163","358477","0.0-2.0-5.26","GP","2","pretest","true","3528904","49","../img/tt/398tt.jpg","","1"
"null","<div style=""font-size:60px;""> </div>","","fixation","html-keyboard-response","164","358687","0.0-2.0-0.27","GP","2","pretest","true","3528904","null","","",""
"null","../img/tt/255tt.jpg","","mooney1","image-keyboard-response","165","361688","0.0-2.0-1.27","GP","2","pretest","true","3528904","null","../img/tt/255tt.jpg","",""
"532","<p></p>","","recognized","html-keyboard-response","166","362221","0.0-2.0-2.27","GP","2","pretest","true","3528904","89","../img/tt/255tt.jpg","y",""
"null","../img/gs/255gs.jpg","","solution","image-keyboard-response","167","364228","0.0-2.0-3.27","GP","2","pretest","true","3528904","null","","",""
"null","../img/tt/255tt.jpg","","mooney2","image-keyboard-response","168","366244","0.0-2.0-4.27","GP","2","pretest","true","3528904","null","","",""
"81","<p>How strong was your <strong>aha-experience</strong>?</p>","","aha","html-keyboard-response","169","366326","0.0-2.0-5.27","GP","2","pretest","true","3528904","50","../img/tt/255tt.jpg","","2"
"null","<div style=""font-size:60px;""> </div>","","fixation","html-keyboard-response","170","366542","0.0-2.0-0.28","GP","2","pretest","true","3528904","null","","",""
"null","../img/tt/315tt.jpg","","mooney1","image-keyboard-response","171","369552","0.0-2.0-1.28","GP","2","pretest","true","3528904","null","../img/tt/315tt.jpg","",""
"906","<p></p>","","recognized","html-keyboard-response","172","370459","0.0-2.0-2.28","GP","2","pretest","true","3528904","78","../img/tt/315tt.jpg","n",""
"null","../img/gs/315gs.jpg","","solution","image-keyboard-response","173","372461","0.0-2.0-3.28","GP","2","pretest","true","3528904","null","","",""
"null","../img/tt/315tt.jpg","","mooney2","image-keyboard-response","174","374466","0.0-2.0-4.28","GP","2","pretest","true","3528904","null","","",""
"1357","<p>How strong was your <strong>aha-experience</strong>?</p>","","aha","html-keyboard-response","175","375825","0.0-2.0-5.28","GP","2","pretest","true","3528904","49","../img/tt/315tt.jpg","","1"
"null","<div style=""font-size:60px;""> </div>","","fixation","html-keyboard-response","176","376039","0.0-2.0-0.29","GP","2","pretest","true","3528904","null","","",""
"null","../img/tt/558tt.jpg","","mooney1","image-keyboard-response","177","379042","0.0-2.0-1.29","GP","2","pretest","true","3528904","null","../img/tt/558tt.jpg","",""
"555","<p></p>","","recognized","html-keyboard-response","178","379598","0.0-2.0-2.29","GP","2","pretest","true","3528904","89","../img/tt/558tt.jpg","y",""
"null","../img/gs/558gs.jpg","","solution","image-keyboard-response","179","381603","0.0-2.0-3.29","GP","2","pretest","true","3528904","null","","",""
"null","../img/tt/558tt.jpg","","mooney2","image-keyboard-response","180","383608","0.0-2.0-4.29","GP","2","pretest","true","3528904","null","","",""
"59","<p>How strong was your <strong>aha-experience</strong>?</p>","","aha","html-keyboard-response","181","383668","0.0-2.0-5.29","GP","2","pretest","true","3528904","50","../img/tt/558tt.jpg","","2"
"null","<div style=""font-size:60px;""> </div>","","fixation","html-keyboard-response","182","383877","0.0-2.0-0.30","GP","2","pretest","true","3528904","null","","",""
"null","../img/tt/143tt.jpg","","mooney1","image-keyboard-response","183","386886","0.0-2.0-1.30","GP","2","pretest","true","3528904","null","../img/tt/143tt.jpg","",""
"953","<p></p>","","recognized","html-keyboard-response","184","387839","0.0-2.0-2.30","GP","2","pretest","true","3528904","78","../img/tt/143tt.jpg","n",""
"null","../img/gs/143gs.jpg","","solution","image-keyboard-response","185","389856","0.0-2.0-3.30","GP","2","pretest","true","3528904","null","","",""
"null","../img/tt/143tt.jpg","","mooney2","image-keyboard-response","186","391869","0.0-2.0-4.30","GP","2","pretest","true","3528904","null","","",""
"489","<p>How strong was your <strong>aha-experience</strong>?</p>","","aha","html-keyboard-response","187","392358","0.0-2.0-5.30","GP","2","pretest","true","3528904","49","../img/tt/143tt.jpg","","1"
"null","<div style=""font-size:60px;""> </div>","","fixation","html-keyboard-response","188","392563","0.0-2.0-0.31","GP","2","pretest","true","3528904","null","","",""
"null","../img/tt/1357tt.jpg","","mooney1","image-keyboard-response","189","395566","0.0-2.0-1.31","GP","2","pretest","true","3528904","null","../img/tt/1357tt.jpg","",""
"525","<p></p>","","recognized","html-keyboard-response","190","396091","0.0-2.0-2.31","GP","2","pretest","true","3528904","78","../img/tt/1357tt.jpg","n",""
"null","../img/gs/1357gs.jpg","","solution","image-keyboard-response","191","398094","0.0-2.0-3.31","GP","2","pretest","true","3528904","null","","",""
"null","../img/tt/1357tt.jpg","","mooney2","image-keyboard-response","192","400107","0.0-2.0-4.31","GP","2","pretest","true","3528904","null","","",""
"427","<p>How strong was your <strong>aha-experience</strong>?</p>","","aha","html-keyboard-response","193","400535","0.0-2.0-5.31","GP","2","pretest","true","3528904","49","../img/tt/1357tt.jpg","","1"
"null","<div style=""font-size:60px;""> </div>","","fixation","html-keyboard-response","194","400737","0.0-2.0-0.32","GP","2","pretest","true","3528904","null","","",""
"null","../img/tt/141tt.jpg","","mooney1","image-keyboard-response","195","403741","0.0-2.0-1.32","GP","2","pretest","true","3528904","null","../img/tt/141tt.jpg","",""
"461","<p></p>","","recognized","html-keyboard-response","196","404203","0.0-2.0-2.32","GP","2","pretest","true","3528904","89","../img/tt/141tt.jpg","y",""
"null","../img/gs/141gs.jpg","","solution","image-keyboard-response","197","406211","0.0-2.0-3.32","GP","2","pretest","true","3528904","null","","",""
"null","../img/tt/141tt.jpg","","mooney2","image-keyboard-response","198","408227","0.0-2.0-4.32","GP","2","pretest","true","3528904","null","","",""
"579","<p>How strong was your <strong>aha-experience</strong>?</p>","","aha","html-keyboard-response","199","408807","0.0-2.0-5.32","GP","2","pretest","true","3528904","50","../img/tt/141tt.jpg","","2"
"null","<div style=""font-size:60px;""> </div>","","fixation","html-keyboard-response","200","409009","0.0-2.0-0.33","GP","2","pretest","true","3528904","null","","",""
"null","../img/tt/1342tt.jpg","","mooney1","image-keyboard-response","201","412020","0.0-2.0-1.33","GP","2","pretest","true","3528904","null","../img/tt/1342tt.jpg","",""
"1056","<p></p>","","recognized","html-keyboard-response","202","413076","0.0-2.0-2.33","GP","2","pretest","true","3528904","78","../img/tt/1342tt.jpg","n",""
"null","../img/gs/1342gs.jpg","","solution","image-keyboard-response","203","415082","0.0-2.0-3.33","GP","2","pretest","true","3528904","null","","",""
"null","../img/tt/1342tt.jpg","","mooney2","image-keyboard-response","204","417095","0.0-2.0-4.33","GP","2","pretest","true","3528904","null","","",""
"757","<p>How strong was your <strong>aha-experience</strong>?</p>","","aha","html-keyboard-response","205","417853","0.0-2.0-5.33","GP","2","pretest","true","3528904","49","../img/tt/1342tt.jpg","","1"
"null","<div style=""font-size:60px;""> </div>","","fixation","html-keyboard-response","206","418067","0.0-2.0-0.34","GP","2","pretest","true","3528904","null","","",""
"null","../img/tt/274tt.jpg","","mooney1","image-keyboard-response","207","421080","0.0-2.0-1.34","GP","2","pretest","true","3528904","null","../img/tt/274tt.jpg","",""
"1029","<p></p>","","recognized","html-keyboard-response","208","422109","0.0-2.0-2.34","GP","2","pretest","true","3528904","78","../img/tt/274tt.jpg","n",""
"null","../img/gs/274gs.jpg","","solution","image-keyboard-response","209","424119","0.0-2.0-3.34","GP","2","pretest","true","3528904","null","","",""
"null","../img/tt/274tt.jpg","","mooney2","image-keyboard-response","210","426133","0.0-2.0-4.34","GP","2","pretest","true","3528904","null","","",""
"763","<p>How strong was your <strong>aha-experience</strong>?</p>","","aha","html-keyboard-response","211","426897","0.0-2.0-5.34","GP","2","pretest","true","3528904","49","../img/tt/274tt.jpg","","1"
"null","<div style=""font-size:60px;""> </div>","","fixation","html-keyboard-response","212","427105","0.0-2.0-0.35","GP","2","pretest","true","3528904","null","","",""
"null","../img/tt/1350tt.jpg","","mooney1","image-keyboard-response","213","430113","0.0-2.0-1.35","GP","2","pretest","true","3528904","null","../img/tt/1350tt.jpg","",""
"828","<p></p>","","recognized","html-keyboard-response","214","430941","0.0-2.0-2.35","GP","2","pretest","true","3528904","78","../img/tt/1350tt.jpg","n",""
"null","../img/gs/1350gs.jpg","","solution","image-keyboard-response","215","432949","0.0-2.0-3.35","GP","2","pretest","true","3528904","null","","",""
"null","../img/tt/1350tt.jpg","","mooney2","image-keyboard-response","216","434953","0.0-2.0-4.35","GP","2","pretest","true","3528904","null","","",""
"902","<p>How strong was your <strong>aha-experience</strong>?</p>","","aha","html-keyboard-response","217","435856","0.0-2.0-5.35","GP","2","pretest","true","3528904","50","../img/tt/1350tt.jpg","","2"
"null","<div style=""font-size:60px;""> </div>","","fixation","html-keyboard-response","218","436059","0.0-2.0-0.36","GP","2","pretest","true","3528904","null","","",""
"null","../img/tt/1362tt.jpg","","mooney1","image-keyboard-response","219","439068","0.0-2.0-1.36","GP","2","pretest","true","3528904","null","../img/tt/1362tt.jpg","",""
"940","<p></p>","","recognized","html-keyboard-response","220","440008","0.0-2.0-2.36","GP","2","pretest","true","3528904","78","../img/tt/1362tt.jpg","n",""
"null","../img/gs/1362gs.jpg","","solution","image-keyboard-response","221","442022","0.0-2.0-3.36","GP","2","pretest","true","3528904","null","","",""
"null","../img/tt/1362tt.jpg","","mooney2","image-keyboard-response","222","444024","0.0-2.0-4.36","GP","2","pretest","true","3528904","null","","",""
"441","<p>How strong was your <strong>aha-experience</strong>?</p>","","aha","html-keyboard-response","223","444465","0.0-2.0-5.36","GP","2","pretest","true","3528904","53","../img/tt/1362tt.jpg","","5"
"null","<div style=""font-size:60px;""> </div>","","fixation","html-keyboard-response","224","444679","0.0-2.0-0.37","GP","2","pretest","true","3528904","null","","",""
"null","../img/tt/1313tt.jpg","","mooney1","image-keyboard-response","225","447686","0.0-2.0-1.37","GP","2","pretest","true","3528904","null","../img/tt/1313tt.jpg","",""
"1768","<p></p>","","recognized","html-keyboard-response","226","449456","0.0-2.0-2.37","GP","2","pretest","true","3528904","89","../img/tt/1313tt.jpg","y",""
"null","../img/gs/1313gs.jpg","","solution","image-keyboard-response","227","451468","0.0-2.0-3.37","GP","2","pretest","true","3528904","null","","",""
"null","../img/tt/1313tt.jpg","","mooney2","image-keyboard-response","228","453481","0.0-2.0-4.37","GP","2","pretest","true","3528904","null","","",""
"431","<p>How strong was your <strong>aha-experience</strong>?</p>","","aha","html-keyboard-response","229","453913","0.0-2.0-5.37","GP","2","pretest","true","3528904","49","../img/tt/1313tt.jpg","","1"
"null","<div style=""font-size:60px;""> </div>","","fixation","html-keyboard-response","230","454114","0.0-2.0-0.38","GP","2","pretest","true","3528904","null","","",""
"null","../img/tt/534tt.jpg","","mooney1","image-keyboard-response","231","457126","0.0-2.0-1.38","GP","2","pretest","true","3528904","null","../img/tt/534tt.jpg","",""
"922","<p></p>","","recognized","html-keyboard-response","232","458048","0.0-2.0-2.38","GP","2","pretest","true","3528904","78","../img/tt/534tt.jpg","n",""
"null","../img/gs/534gs.jpg","","solution","image-keyboard-response","233","460050","0.0-2.0-3.38","GP","2","pretest","true","3528904","null","","",""
"null","../img/tt/534tt.jpg","","mooney2","image-keyboard-response","234","462059","0.0-2.0-4.38","GP","2","pretest","true","3528904","null","","",""
"666","<p>How strong was your <strong>aha-experience</strong>?</p>","","aha","html-keyboard-response","235","462725","0.0-2.0-5.38","GP","2","pretest","true","3528904","49","../img/tt/534tt.jpg","","1"
"null","<div style=""font-size:60px;""> </div>","","fixation","html-keyboard-response","236","462938","0.0-2.0-0.39","GP","2","pretest","true","3528904","null","","",""
"null","../img/tt/1300tt.jpg","","mooney1","image-keyboard-response","237","465941","0.0-2.0-1.39","GP","2","pretest","true","3528904","null","../img/tt/1300tt.jpg","",""
"419","<p></p>","","recognized","html-keyboard-response","238","466361","0.0-2.0-2.39","GP","2","pretest","true","3528904","89","../img/tt/1300tt.jpg","y",""
"null","../img/gs/1300gs.jpg","","solution","image-keyboard-response","239","468366","0.0-2.0-3.39","GP","2","pretest","true","3528904","null","","",""
"null","../img/tt/1300tt.jpg","","mooney2","image-keyboard-response","240","470378","0.0-2.0-4.39","GP","2","pretest","true","3528904","null","","",""
"488","<p>How strong was your <strong>aha-experience</strong>?</p>","","aha","html-keyboard-response","241","470866","0.0-2.0-5.39","GP","2","pretest","true","3528904","50","../img/tt/1300tt.jpg","","2"
"null","<div style=""font-size:60px;""> </div>","","fixation","html-keyboard-response","242","471073","0.0-2.0-0.40","GP","2","pretest","true","3528904","null","","",""
"null","../img/tt/257tt.jpg","","mooney1","image-keyboard-response","243","474089","0.0-2.0-1.40","GP","2","pretest","true","3528904","null","../img/tt/257tt.jpg","",""
"525","<p></p>","","recognized","html-keyboard-response","244","474615","0.0-2.0-2.40","GP","2","pretest","true","3528904","89","../img/tt/257tt.jpg","y",""
"null","../img/gs/257gs.jpg","","solution","image-keyboard-response","245","476627","0.0-2.0-3.40","GP","2","pretest","true","3528904","null","","",""
"null","../img/tt/257tt.jpg","","mooney2","image-keyboard-response","246","478642","0.0-2.0-4.40","GP","2","pretest","true","3528904","null","","",""
"443","<p>How strong was your <strong>aha-experience</strong>?</p>","","aha","html-keyboard-response","247","479085","0.0-2.0-5.40","GP","2","pretest","true","3528904","50","../img/tt/257tt.jpg","","2"
"null","<div style=""font-size:60px;""> </div>","","fixation","html-keyboard-response","248","479290","0.0-2.0-0.41","GP","2","pretest","true","3528904","null","","",""
"null","../img/tt/378tt.jpg","","mooney1","image-keyboard-response","249","482300","0.0-2.0-1.41","GP","2","pretest","true","3528904","null","../img/tt/378tt.jpg","",""
"706","<p></p>","","recognized","html-keyboard-response","250","483006","0.0-2.0-2.41","GP","2","pretest","true","3528904","78","../img/tt/378tt.jpg","n",""
"null","../img/gs/378gs.jpg","","solution","image-keyboard-response","251","485016","0.0-2.0-3.41","GP","2","pretest","true","3528904","null","","",""
"null","../img/tt/378tt.jpg","","mooney2","image-keyboard-response","252","487020","0.0-2.0-4.41","GP","2","pretest","true","3528904","null","","",""
"715","<p>How strong was your <strong>aha-experience</strong>?</p>","","aha","html-keyboard-response","253","487737","0.0-2.0-5.41","GP","2","pretest","true","3528904","50","../img/tt/378tt.jpg","","2"
"null","<div style=""font-size:60px;""> </div>","","fixation","html-keyboard-response","254","487944","0.0-2.0-0.42","GP","2","pretest","true","3528904","null","","",""
"null","../img/tt/212tt.jpg","","mooney1","image-keyboard-response","255","490957","0.0-2.0-1.42","GP","2","pretest","true","3528904","null","../img/tt/212tt.jpg","",""
"916","<p></p>","","recognized","html-keyboard-response","256","491873","0.0-2.0-2.42","GP","2","pretest","true","3528904","89","../img/tt/212tt.jpg","y",""
"null","../img/gs/212gs.jpg","","solution","image-keyboard-response","257","493887","0.0-2.0-3.42","GP","2","pretest","true","3528904","null","","",""
"null","../img/tt/212tt.jpg","","mooney2","image-keyboard-response","258","495889","0.0-2.0-4.42","GP","2","pretest","true","3528904","null","","",""
"647","<p>How strong was your <strong>aha-experience</strong>?</p>","","aha","html-keyboard-response","259","496536","0.0-2.0-5.42","GP","2","pretest","true","3528904","51","../img/tt/212tt.jpg","","3"
"null","<div style=""font-size:60px;""> </div>","","fixation","html-keyboard-response","260","496737","0.0-2.0-0.43","GP","2","pretest","true","3528904","null","","",""
"null","../img/tt/518tt.jpg","","mooney1","image-keyboard-response","261","499746","0.0-2.0-1.43","GP","2","pretest","true","3528904","null","../img/tt/518tt.jpg","",""
"1131","<p></p>","","recognized","html-keyboard-response","262","500877","0.0-2.0-2.43","GP","2","pretest","true","3528904","78","../img/tt/518tt.jpg","n",""
"null","../img/gs/518gs.jpg","","solution","image-keyboard-response","263","502892","0.0-2.0-3.43","GP","2","pretest","true","3528904","null","","",""
"null","../img/tt/518tt.jpg","","mooney2","image-keyboard-response","264","504900","0.0-2.0-4.43","GP","2","pretest","true","3528904","null","","",""
"546","<p>How strong was your <strong>aha-experience</strong>?</p>","","aha","html-keyboard-response","265","505446","0.0-2.0-5.43","GP","2","pretest","true","3528904","50","../img/tt/518tt.jpg","","2"
"null","<div style=""font-size:60px;""> </div>","","fixation","html-keyboard-response","266","505655","0.0-2.0-0.44","GP","2","pretest","true","3528904","null","","",""
"null","../img/tt/550tt.jpg","","mooney1","image-keyboard-response","267","508669","0.0-2.0-1.44","GP","2","pretest","true","3528904","null","../img/tt/550tt.jpg","",""
"499","<p></p>","","recognized","html-keyboard-response","268","509169","0.0-2.0-2.44","GP","2","pretest","true","3528904","78","../img/tt/550tt.jpg","n",""
"null","../img/gs/550gs.jpg","","solution","image-keyboard-response","269","511183","0.0-2.0-3.44","GP","2","pretest","true","3528904","null","","",""
"null","../img/tt/550tt.jpg","","mooney2","image-keyboard-response","270","513185","0.0-2.0-4.44","GP","2","pretest","true","3528904","null","","",""
"389","<p>How strong was your <strong>aha-experience</strong>?</p>","","aha","html-keyboard-response","271","513574","0.0-2.0-5.44","GP","2","pretest","true","3528904","49","../img/tt/550tt.jpg","","1"
"null","<div style=""font-size:60px;""> </div>","","fixation","html-keyboard-response","272","513783","0.0-2.0-0.45","GP","2","pretest","true","3528904","null","","",""
"null","../img/tt/230tt.jpg","","mooney1","image-keyboard-response","273","516794","0.0-2.0-1.45","GP","2","pretest","true","3528904","null","../img/tt/230tt.jpg","",""
"876","<p></p>","","recognized","html-keyboard-response","274","517670","0.0-2.0-2.45","GP","2","pretest","true","3528904","89","../img/tt/230tt.jpg","y",""
"null","../img/gs/230gs.jpg","","solution","image-keyboard-response","275","519676","0.0-2.0-3.45","GP","2","pretest","true","3528904","null","","",""
"null","../img/tt/230tt.jpg","","mooney2","image-keyboard-response","276","521691","0.0-2.0-4.45","GP","2","pretest","true","3528904","null","","",""
"397","<p>How strong was your <strong>aha-experience</strong>?</p>","","aha","html-keyboard-response","277","522088","0.0-2.0-5.45","GP","2","pretest","true","3528904","52","../img/tt/230tt.jpg","","4"
"null","<div style=""font-size:60px;""> </div>","","fixation","html-keyboard-response","278","522300","0.0-2.0-0.46","GP","2","pretest","true","3528904","null","","",""
"null","../img/tt/440tt.jpg","","mooney1","image-keyboard-response","279","525312","0.0-2.0-1.46","GP","2","pretest","true","3528904","null","../img/tt/440tt.jpg","",""
"1976","<p></p>","","recognized","html-keyboard-response","280","527289","0.0-2.0-2.46","GP","2","pretest","true","3528904","89","../img/tt/440tt.jpg","y",""
"null","../img/gs/440gs.jpg","","solution","image-keyboard-response","281","529304","0.0-2.0-3.46","GP","2","pretest","true","3528904","null","","",""
"null","../img/tt/440tt.jpg","","mooney2","image-keyboard-response","282","531311","0.0-2.0-4.46","GP","2","pretest","true","3528904","null","","",""
"424","<p>How strong was your <strong>aha-experience</strong>?</p>","","aha","html-keyboard-response","283","531736","0.0-2.0-5.46","GP","2","pretest","true","3528904","52","../img/tt/440tt.jpg","","4"
"null","<div style=""font-size:60px;""> </div>","","fixation","html-keyboard-response","284","531937","0.0-2.0-0.47","GP","2","pretest","true","3528904","null","","",""
"null","../img/tt/424tt.jpg","","mooney1","image-keyboard-response","285","534949","0.0-2.0-1.47","GP","2","pretest","true","3528904","null","../img/tt/424tt.jpg","",""
"872","<p></p>","","recognized","html-keyboard-response","286","535822","0.0-2.0-2.47","GP","2","pretest","true","3528904","78","../img/tt/424tt.jpg","n",""
"null","../img/gs/424gs.jpg","","solution","image-keyboard-response","287","537838","0.0-2.0-3.47","GP","2","pretest","true","3528904","null","","",""
"null","../img/tt/424tt.jpg","","mooney2","image-keyboard-response","288","539842","0.0-2.0-4.47","GP","2","pretest","true","3528904","null","","",""
"1491","<p>How strong was your <strong>aha-experience</strong>?</p>","","aha","html-keyboard-response","289","541334","0.0-2.0-5.47","GP","2","pretest","true","3528904","49","../img/tt/424tt.jpg","","1"
"null","<div style=""font-size:60px;""> </div>","","fixation","html-keyboard-response","290","541543","0.0-2.0-0.48","GP","2","pretest","true","3528904","null","","",""
"null","../img/tt/408tt.jpg","","mooney1","image-keyboard-response","291","544548","0.0-2.0-1.48","GP","2","pretest","true","3528904","null","../img/tt/408tt.jpg","",""
"708","<p></p>","","recognized","html-keyboard-response","292","545256","0.0-2.0-2.48","GP","2","pretest","true","3528904","89","../img/tt/408tt.jpg","y",""
"null","../img/gs/408gs.jpg","","solution","image-keyboard-response","293","547266","0.0-2.0-3.48","GP","2","pretest","true","3528904","null","","",""
"null","../img/tt/408tt.jpg","","mooney2","image-keyboard-response","294","549271","0.0-2.0-4.48","GP","2","pretest","true","3528904","null","","",""
"376","<p>How strong was your <strong>aha-experience</strong>?</p>","","aha","html-keyboard-response","295","549648","0.0-2.0-5.48","GP","2","pretest","true","3528904","50","../img/tt/408tt.jpg","","2"
"null","<div style=""font-size:60px;""> </div>","","fixation","html-keyboard-response","296","549862","0.0-2.0-0.49","GP","2","pretest","true","3528904","null","","",""
"null","../img/tt/338tt.jpg","","mooney1","image-keyboard-response","297","552874","0.0-2.0-1.49","GP","2","pretest","true","3528904","null","../img/tt/338tt.jpg","",""
"531","<p></p>","","recognized","html-keyboard-response","298","553405","0.0-2.0-2.49","GP","2","pretest","true","3528904","78","../img/tt/338tt.jpg","n",""
"null","../img/gs/338gs.jpg","","solution","image-keyboard-response","299","555423","0.0-2.0-3.49","GP","2","pretest","true","3528904","null","","",""
"null","../img/tt/338tt.jpg","","mooney2","image-keyboard-response","300","557430","0.0-2.0-4.49","GP","2","pretest","true","3528904","null","","",""
"450","<p>How strong was your <strong>aha-experience</strong>?</p>","","aha","html-keyboard-response","301","557880","0.0-2.0-5.49","GP","2","pretest","true","3528904","49","../img/tt/338tt.jpg","","1"
"null","<div style=""font-size:60px;""> </div>","","fixation","html-keyboard-response","302","558087","0.0-2.0-0.50","GP","2","pretest","true","3528904","null","","",""
"null","../img/tt/282tt.jpg","","mooney1","image-keyboard-response","303","561100","0.0-2.0-1.50","GP","2","pretest","true","3528904","null","../img/tt/282tt.jpg","",""
"930","<p></p>","","recognized","html-keyboard-response","304","562030","0.0-2.0-2.50","GP","2","pretest","true","3528904","78","../img/tt/282tt.jpg","n",""
"null","../img/gs/282gs.jpg","","solution","image-keyboard-response","305","564032","0.0-2.0-3.50","GP","2","pretest","true","3528904","null","","",""
"null","../img/tt/282tt.jpg","","mooney2","image-keyboard-response","306","566038","0.0-2.0-4.50","GP","2","pretest","true","3528904","null","","",""
"456","<p>How strong was your <strong>aha-experience</strong>?</p>","","aha","html-keyboard-response","307","566494","0.0-2.0-5.50","GP","2","pretest","true","3528904","50","../img/tt/282tt.jpg","","2"
"null","<div style=""font-size:60px;""> </div>","","fixation","html-keyboard-response","308","566695","0.0-2.0-0.51","GP","2","pretest","true","3528904","null","","",""
"null","../img/tt/344tt.jpg","","mooney1","image-keyboard-response","309","569705","0.0-2.0-1.51","GP","2","pretest","true","3528904","null","../img/tt/344tt.jpg","",""
"1034","<p></p>","","recognized","html-keyboard-response","310","570739","0.0-2.0-2.51","GP","2","pretest","true","3528904","78","../img/tt/344tt.jpg","n",""
"null","../img/gs/344gs.jpg","","solution","image-keyboard-response","311","572752","0.0-2.0-3.51","GP","2","pretest","true","3528904","null","","",""
"null","../img/tt/344tt.jpg","","mooney2","image-keyboard-response","312","574758","0.0-2.0-4.51","GP","2","pretest","true","3528904","null","","",""
"1928","<p>How strong was your <strong>aha-experience</strong>?</p>","","aha","html-keyboard-response","313","576687","0.0-2.0-5.51","GP","2","pretest","true","3528904","50","../img/tt/344tt.jpg","","2"
"null","<div style=""font-size:60px;""> </div>","","fixation","html-keyboard-response","314","576896","0.0-2.0-0.52","GP","2","pretest","true","3528904","null","","",""
"null","../img/tt/442tt.jpg","","mooney1","image-keyboard-response","315","579906","0.0-2.0-1.52","GP","2","pretest","true","3528904","null","../img/tt/442tt.jpg","",""
"495","<p></p>","","recognized","html-keyboard-response","316","580402","0.0-2.0-2.52","GP","2","pretest","true","3528904","78","../img/tt/442tt.jpg","n",""
"null","../img/gs/442gs.jpg","","solution","image-keyboard-response","317","582411","0.0-2.0-3.52","GP","2","pretest","true","3528904","null","","",""
"null","../img/tt/442tt.jpg","","mooney2","image-keyboard-response","318","584416","0.0-2.0-4.52","GP","2","pretest","true","3528904","null","","",""
"5542","<p>How strong was your <strong>aha-experience</strong>?</p>","","aha","html-keyboard-response","319","589959","0.0-2.0-5.52","GP","2","pretest","true","3528904","53","../img/tt/442tt.jpg","","5"
"null","<div style=""font-size:60px;""> </div>","","fixation","html-keyboard-response","320","590175","0.0-2.0-0.53","GP","2","pretest","true","3528904","null","","",""
"null","../img/tt/480tt.jpg","","mooney1","image-keyboard-response","321","593192","0.0-2.0-1.53","GP","2","pretest","true","3528904","null","../img/tt/480tt.jpg","",""
"978","<p></p>","","recognized","html-keyboard-response","322","594170","0.0-2.0-2.53","GP","2","pretest","true","3528904","78","../img/tt/480tt.jpg","n",""
"null","../img/gs/480gs.jpg","","solution","image-keyboard-response","323","596181","0.0-2.0-3.53","GP","2","pretest","true","3528904","null","","",""
"null","../img/tt/480tt.jpg","","mooney2","image-keyboard-response","324","598185","0.0-2.0-4.53","GP","2","pretest","true","3528904","null","","",""
"505","<p>How strong was your <strong>aha-experience</strong>?</p>","","aha","html-keyboard-response","325","598690","0.0-2.0-5.53","GP","2","pretest","true","3528904","49","../img/tt/480tt.jpg","","1"
"null","<div style=""font-size:60px;""> </div>","","fixation","html-keyboard-response","326","598904","0.0-2.0-0.54","GP","2","pretest","true","3528904","null","","",""
"null","../img/tt/418tt.jpg","","mooney1","image-keyboard-response","327","601916","0.0-2.0-1.54","GP","2","pretest","true","3528904","null","../img/tt/418tt.jpg","",""
"2157","<p></p>","","recognized","html-keyboard-response","328","604073","0.0-2.0-2.54","GP","2","pretest","true","3528904","78","../img/tt/418tt.jpg","n",""
"null","../img/gs/418gs.jpg","","solution","image-keyboard-response","329","606090","0.0-2.0-3.54","GP","2","pretest","true","3528904","null","","",""
"null","../img/tt/418tt.jpg","","mooney2","image-keyboard-response","330","608098","0.0-2.0-4.54","GP","2","pretest","true","3528904","null","","",""
"866","<p>How strong was your <strong>aha-experience</strong>?</p>","","aha","html-keyboard-response","331","608965","0.0-2.0-5.54","GP","2","pretest","true","3528904","50","../img/tt/418tt.jpg","","2"
"null","<div style=""font-size:60px;""> </div>","","fixation","html-keyboard-response","332","609170","0.0-2.0-0.55","GP","2","pretest","true","3528904","null","","",""
"null","../img/tt/297tt.jpg","","mooney1","image-keyboard-response","333","612182","0.0-2.0-1.55","GP","2","pretest","true","3528904","null","../img/tt/297tt.jpg","",""
"613","<p></p>","","recognized","html-keyboard-response","334","612795","0.0-2.0-2.55","GP","2","pretest","true","3528904","78","../img/tt/297tt.jpg","n",""
"null","../img/gs/297gs.jpg","","solution","image-keyboard-response","335","614808","0.0-2.0-3.55","GP","2","pretest","true","3528904","null","","",""
"null","../img/tt/297tt.jpg","","mooney2","image-keyboard-response","336","616813","0.0-2.0-4.55","GP","2","pretest","true","3528904","null","","",""
"1032","<p>How strong was your <strong>aha-experience</strong>?</p>","","aha","html-keyboard-response","337","617845","0.0-2.0-5.55","GP","2","pretest","true","3528904","51","../img/tt/297tt.jpg","","3"
"null","<div style=""font-size:60px;""> </div>","","fixation","html-keyboard-response","338","618057","0.0-2.0-0.56","GP","2","pretest","true","3528904","null","","",""
"null","../img/tt/533tt.jpg","","mooney1","image-keyboard-response","339","621070","0.0-2.0-1.56","GP","2","pretest","true","3528904","null","../img/tt/533tt.jpg","",""
"507","<p></p>","","recognized","html-keyboard-response","340","621577","0.0-2.0-2.56","GP","2","pretest","true","3528904","89","../img/tt/533tt.jpg","y",""
"null","../img/gs/533gs.jpg","","solution","image-keyboard-response","341","623588","0.0-2.0-3.56","GP","2","pretest","true","3528904","null","","",""
"null","../img/tt/533tt.jpg","","mooney2","image-keyboard-response","342","625592","0.0-2.0-4.56","GP","2","pretest","true","3528904","null","","",""
"2919","<p>How strong was your <strong>aha-experience</strong>?</p>","","aha","html-keyboard-response","343","628512","0.0-2.0-5.56","GP","2","pretest","true","3528904","52","../img/tt/533tt.jpg","","4"
"null","<div style=""font-size:60px;""> </div>","","fixation","html-keyboard-response","344","628719","0.0-2.0-0.57","GP","2","pretest","true","3528904","null","","",""
"null","../img/tt/1335tt.jpg","","mooney1","image-keyboard-response","345","631732","0.0-2.0-1.57","GP","2","pretest","true","3528904","null","../img/tt/1335tt.jpg","",""
"2104","<p></p>","","recognized","html-keyboard-response","346","633836","0.0-2.0-2.57","GP","2","pretest","true","3528904","78","../img/tt/1335tt.jpg","n",""
"null","../img/gs/1335gs.jpg","","solution","image-keyboard-response","347","635850","0.0-2.0-3.57","GP","2","pretest","true","3528904","null","","",""
"null","../img/tt/1335tt.jpg","","mooney2","image-keyboard-response","348","637853","0.0-2.0-4.57","GP","2","pretest","true","3528904","null","","",""
"429","<p>How strong was your <strong>aha-experience</strong>?</p>","","aha","html-keyboard-response","349","638282","0.0-2.0-5.57","GP","2","pretest","true","3528904","51","../img/tt/1335tt.jpg","","3"
"null","<div style=""font-size:60px;""> </div>","","fixation","html-keyboard-response","350","638490","0.0-2.0-0.58","GP","2","pretest","true","3528904","null","","",""
"null","../img/tt/139tt.jpg","","mooney1","image-keyboard-response","351","641494","0.0-2.0-1.58","GP","2","pretest","true","3528904","null","../img/tt/139tt.jpg","",""
"3166","<p></p>","","recognized","html-keyboard-response","352","644661","0.0-2.0-2.58","GP","2","pretest","true","3528904","89","../img/tt/139tt.jpg","y",""
"null","../img/gs/139gs.jpg","","solution","image-keyboard-response","353","646677","0.0-2.0-3.58","GP","2","pretest","true","3528904","null","","",""
"null","../img/tt/139tt.jpg","","mooney2","image-keyboard-response","354","648686","0.0-2.0-4.58","GP","2","pretest","true","3528904","null","","",""
"438","<p>How strong was your <strong>aha-experience</strong>?</p>","","aha","html-keyboard-response","355","649124","0.0-2.0-5.58","GP","2","pretest","true","3528904","50","../img/tt/139tt.jpg","","2"
"null","<div style=""font-size:60px;""> </div>","","fixation","html-keyboard-response","356","649334","0.0-2.0-0.59","GP","2","pretest","true","3528904","null","","",""
"null","../img/tt/1316tt.jpg","","mooney1","image-keyboard-response","357","652346","0.0-2.0-1.59","GP","2","pretest","true","3528904","null","../img/tt/1316tt.jpg","",""
"560","<p></p>","","recognized","html-keyboard-response","358","652906","0.0-2.0-2.59","GP","2","pretest","true","3528904","89","../img/tt/1316tt.jpg","y",""
"null","../img/gs/1316gs.jpg","","solution","image-keyboard-response","359","654912","0.0-2.0-3.59","GP","2","pretest","true","3528904","null","","",""
"null","../img/tt/1316tt.jpg","","mooney2","image-keyboard-response","360","656919","0.0-2.0-4.59","GP","2","pretest","true","3528904","null","","",""
"679","<p>How strong was your <strong>aha-experience</strong>?</p>","","aha","html-keyboard-response","361","657599","0.0-2.0-5.59","GP","2","pretest","true","3528904","50","../img/tt/1316tt.jpg","","2"
"null","<div style=""font-size:60px;""> </div>","","fixation","html-keyboard-response","362","657809","0.0-2.0-0.60","GP","2","pretest","true","3528904","null","","",""
"null","../img/tt/532tt.jpg","","mooney1","image-keyboard-response","363","660821","0.0-2.0-1.60","GP","2","pretest","true","3528904","null","../img/tt/532tt.jpg","",""
"772","<p></p>","","recognized","html-keyboard-response","364","661594","0.0-2.0-2.60","GP","2","pretest","true","3528904","78","../img/tt/532tt.jpg","n",""
"null","../img/gs/532gs.jpg","","solution","image-keyboard-response","365","663610","0.0-2.0-3.60","GP","2","pretest","true","3528904","null","","",""
"null","../img/tt/532tt.jpg","","mooney2","image-keyboard-response","366","665616","0.0-2.0-4.60","GP","2","pretest","true","3528904","null","","",""
"383","<p>How strong was your <strong>aha-experience</strong>?</p>","","aha","html-keyboard-response","367","665999","0.0-2.0-5.60","GP","2","pretest","true","3528904","49","../img/tt/532tt.jpg","","1"
"null","<div style=""font-size:60px;""> </div>","","fixation","html-keyboard-response","368","666200","0.0-2.0-0.61","GP","2","pretest","true","3528904","null","","",""
"null","../img/tt/206tt.jpg","","mooney1","image-keyboard-response","369","669207","0.0-2.0-1.61","GP","2","pretest","true","3528904","null","../img/tt/206tt.jpg","",""
"965","<p></p>","","recognized","html-keyboard-response","370","670174","0.0-2.0-2.61","GP","2","pretest","true","3528904","78","../img/tt/206tt.jpg","n",""
"null","../img/gs/206gs.jpg","","solution","image-keyboard-response","371","672185","0.0-2.0-3.61","GP","2","pretest","true","3528904","null","","",""
"null","../img/tt/206tt.jpg","","mooney2","image-keyboard-response","372","674191","0.0-2.0-4.61","GP","2","pretest","true","3528904","null","","",""
"329","<p>How strong was your <strong>aha-experience</strong>?</p>","","aha","html-keyboard-response","373","674521","0.0-2.0-5.61","GP","2","pretest","true","3528904","49","../img/tt/206tt.jpg","","1"
"null","<div style=""font-size:60px;""> </div>","","fixation","html-keyboard-response","374","674724","0.0-2.0-0.62","GP","2","pretest","true","3528904","null","","",""
"null","../img/tt/1311tt.jpg","","mooney1","image-keyboard-response","375","677733","0.0-2.0-1.62","GP","2","pretest","true","3528904","null","../img/tt/1311tt.jpg","",""
"419","<p></p>","","recognized","html-keyboard-response","376","678153","0.0-2.0-2.62","GP","2","pretest","true","3528904","89","../img/tt/1311tt.jpg","y",""
"null","../img/gs/1311gs.jpg","","solution","image-keyboard-response","377","680161","0.0-2.0-3.62","GP","2","pretest","true","3528904","null","","",""
"null","../img/tt/1311tt.jpg","","mooney2","image-keyboard-response","378","682168","0.0-2.0-4.62","GP","2","pretest","true","3528904","null","","",""
"295","<p>How strong was your <strong>aha-experience</strong>?</p>","","aha","html-keyboard-response","379","682464","0.0-2.0-5.62","GP","2","pretest","true","3528904","50","../img/tt/1311tt.jpg","","2"
"null","<div style=""font-size:60px;""> </div>","","fixation","html-keyboard-response","380","682667","0.0-2.0-0.63","GP","2","pretest","true","3528904","null","","",""
"null","../img/tt/486tt.jpg","","mooney1","image-keyboard-response","381","685678","0.0-2.0-1.63","GP","2","pretest","true","3528904","null","../img/tt/486tt.jpg","",""
"533","<p></p>","","recognized","html-keyboard-response","382","686213","0.0-2.0-2.63","GP","2","pretest","true","3528904","78","../img/tt/486tt.jpg","n",""
"null","../img/gs/486gs.jpg","","solution","image-keyboard-response","383","688214","0.0-2.0-3.63","GP","2","pretest","true","3528904","null","","",""
"null","../img/tt/486tt.jpg","","mooney2","image-keyboard-response","384","690219","0.0-2.0-4.63","GP","2","pretest","true","3528904","null","","",""
"1709","<p>How strong was your <strong>aha-experience</strong>?</p>","","aha","html-keyboard-response","385","691929","0.0-2.0-5.63","GP","2","pretest","true","3528904","49","../img/tt/486tt.jpg","","1"
"null","<div style=""font-size:60px;""> </div>","","fixation","html-keyboard-response","386","692135","0.0-2.0-0.64","GP","2","pretest","true","3528904","null","","",""
"null","../img/tt/387tt.jpg","","mooney1","image-keyboard-response","387","695148","0.0-2.0-1.64","GP","2","pretest","true","3528904","null","../img/tt/387tt.jpg","",""
"1142","<p></p>","","recognized","html-keyboard-response","388","696290","0.0-2.0-2.64","GP","2","pretest","true","3528904","78","../img/tt/387tt.jpg","n",""
"null","../img/gs/387gs.jpg","","solution","image-keyboard-response","389","698296","0.0-2.0-3.64","GP","2","pretest","true","3528904","null","","",""
"null","../img/tt/387tt.jpg","","mooney2","image-keyboard-response","390","700298","0.0-2.0-4.64","GP","2","pretest","true","3528904","null","","",""
"820","<p>How strong was your <strong>aha-experience</strong>?</p>","","aha","html-keyboard-response","391","701118","0.0-2.0-5.64","GP","2","pretest","true","3528904","50","../img/tt/387tt.jpg","","2"
"null","<div style=""font-size:60px;""> </div>","","fixation","html-keyboard-response","392","701323","0.0-2.0-0.65","GP","2","pretest","true","3528904","null","","",""
"null","../img/tt/239tt.jpg","","mooney1","image-keyboard-response","393","704327","0.0-2.0-1.65","GP","2","pretest","true","3528904","null","../img/tt/239tt.jpg","",""
"951","<p></p>","","recognized","html-keyboard-response","394","705278","0.0-2.0-2.65","GP","2","pretest","true","3528904","78","../img/tt/239tt.jpg","n",""
"null","../img/gs/239gs.jpg","","solution","image-keyboard-response","395","707289","0.0-2.0-3.65","GP","2","pretest","true","3528904","null","","",""
"null","../img/tt/239tt.jpg","","mooney2","image-keyboard-response","396","709292","0.0-2.0-4.65","GP","2","pretest","true","3528904","null","","",""
"569","<p>How strong was your <strong>aha-experience</strong>?</p>","","aha","html-keyboard-response","397","709861","0.0-2.0-5.65","GP","2","pretest","true","3528904","51","../img/tt/239tt.jpg","","3"
"null","<div style=""font-size:60px;""> </div>","","fixation","html-keyboard-response","398","710062","0.0-2.0-0.66","GP","2","pretest","true","3528904","null","","",""
"null","../img/tt/470tt.jpg","","mooney1","image-keyboard-response","399","713068","0.0-2.0-1.66","GP","2","pretest","true","3528904","null","../img/tt/470tt.jpg","",""
"1108","<p></p>","","recognized","html-keyboard-response","400","714177","0.0-2.0-2.66","GP","2","pretest","true","3528904","78","../img/tt/470tt.jpg","n",""
"null","../img/gs/470gs.jpg","","solution","image-keyboard-response","401","716187","0.0-2.0-3.66","GP","2","pretest","true","3528904","null","","",""
"null","../img/tt/470tt.jpg","","mooney2","image-keyboard-response","402","718188","0.0-2.0-4.66","GP","2","pretest","true","3528904","null","","",""
"323","<p>How strong was your <strong>aha-experience</strong>?</p>","","aha","html-keyboard-response","403","718512","0.0-2.0-5.66","GP","2","pretest","true","3528904","49","../img/tt/470tt.jpg","","1"
"null","<div style=""font-size:60px;""> </div>","","fixation","html-keyboard-response","404","718720","0.0-2.0-0.67","GP","2","pretest","true","3528904","null","","",""
"null","../img/tt/386tt.jpg","","mooney1","image-keyboard-response","405","721727","0.0-2.0-1.67","GP","2","pretest","true","3528904","null","../img/tt/386tt.jpg","",""
"604","<p></p>","","recognized","html-keyboard-response","406","722331","0.0-2.0-2.67","GP","2","pretest","true","3528904","89","../img/tt/386tt.jpg","y",""
"null","../img/gs/386gs.jpg","","solution","image-keyboard-response","407","724347","0.0-2.0-3.67","GP","2","pretest","true","3528904","null","","",""
"null","../img/tt/386tt.jpg","","mooney2","image-keyboard-response","408","726348","0.0-2.0-4.67","GP","2","pretest","true","3528904","null","","",""
"749","<p>How strong was your <strong>aha-experience</strong>?</p>","","aha","html-keyboard-response","409","727098","0.0-2.0-5.67","GP","2","pretest","true","3528904","51","../img/tt/386tt.jpg","","3"
"null","<div style=""font-size:60px;""> </div>","","fixation","html-keyboard-response","410","727311","0.0-2.0-0.68","GP","2","pretest","true","3528904","null","","",""
"null","../img/tt/336tt.jpg","","mooney1","image-keyboard-response","411","730315","0.0-2.0-1.68","GP","2","pretest","true","3528904","null","../img/tt/336tt.jpg","",""
"409","<p></p>","","recognized","html-keyboard-response","412","730725","0.0-2.0-2.68","GP","2","pretest","true","3528904","78","../img/tt/336tt.jpg","n",""
"null","../img/gs/336gs.jpg","","solution","image-keyboard-response","413","732732","0.0-2.0-3.68","GP","2","pretest","true","3528904","null","","",""
"null","../img/tt/336tt.jpg","","mooney2","image-keyboard-response","414","734733","0.0-2.0-4.68","GP","2","pretest","true","3528904","null","","",""
"802","<p>How strong was your <strong>aha-experience</strong>?</p>","","aha","html-keyboard-response","415","735536","0.0-2.0-5.68","GP","2","pretest","true","3528904","50","../img/tt/336tt.jpg","","2"
"null","<div style=""font-size:60px;""> </div>","","fixation","html-keyboard-response","416","735748","0.0-2.0-0.69","GP","2","pretest","true","3528904","null","","",""
"null","../img/tt/1356tt.jpg","","mooney1","image-keyboard-response","417","738759","0.0-2.0-1.69","GP","2","pretest","true","3528904","null","../img/tt/1356tt.jpg","",""
"729","<p></p>","","recognized","html-keyboard-response","418","739489","0.0-2.0-2.69","GP","2","pretest","true","3528904","78","../img/tt/1356tt.jpg","n",""
"null","../img/gs/1356gs.jpg","","solution","image-keyboard-response","419","741491","0.0-2.0-3.69","GP","2","pretest","true","3528904","null","","",""
"null","../img/tt/1356tt.jpg","","mooney2","image-keyboard-response","420","743497","0.0-2.0-4.69","GP","2","pretest","true","3528904","null","","",""
"492","<p>How strong was your <strong>aha-experience</strong>?</p>","","aha","html-keyboard-response","421","743989","0.0-2.0-5.69","GP","2","pretest","true","3528904","50","../img/tt/1356tt.jpg","","2"
"null","<div style=""font-size:60px;""> </div>","","fixation","html-keyboard-response","422","744193","0.0-2.0-0.70","GP","2","pretest","true","3528904","null","","",""
"null","../img/tt/524tt.jpg","","mooney1","image-keyboard-response","423","747195","0.0-2.0-1.70","GP","2","pretest","true","3528904","null","../img/tt/524tt.jpg","",""
"539","<p></p>","","recognized","html-keyboard-response","424","747735","0.0-2.0-2.70","GP","2","pretest","true","3528904","78","../img/tt/524tt.jpg","n",""
"null","../img/gs/524gs.jpg","","solution","image-keyboard-response","425","749745","0.0-2.0-3.70","GP","2","pretest","true","3528904","null","","",""
"null","../img/tt/524tt.jpg","","mooney2","image-keyboard-response","426","751752","0.0-2.0-4.70","GP","2","pretest","true","3528904","null","","",""
"487","<p>How strong was your <strong>aha-experience</strong>?</p>","","aha","html-keyboard-response","427","752239","0.0-2.0-5.70","GP","2","pretest","true","3528904","53","../img/tt/524tt.jpg","","5"
"null","<div style=""font-size:60px;""> </div>","","fixation","html-keyboard-response","428","752449","0.0-2.0-0.71","GP","2","pretest","true","3528904","null","","",""
"null","../img/tt/167tt.jpg","","mooney1","image-keyboard-response","429","755454","0.0-2.0-1.71","GP","2","pretest","true","3528904","null","../img/tt/167tt.jpg","",""
"540","<p></p>","","recognized","html-keyboard-response","430","755995","0.0-2.0-2.71","GP","2","pretest","true","3528904","89","../img/tt/167tt.jpg","y",""
"null","../img/gs/167gs.jpg","","solution","image-keyboard-response","431","758004","0.0-2.0-3.71","GP","2","pretest","true","3528904","null","","",""
"null","../img/tt/167tt.jpg","","mooney2","image-keyboard-response","432","760011","0.0-2.0-4.71","GP","2","pretest","true","3528904","null","","",""
"516","<p>How strong was your <strong>aha-experience</strong>?</p>","","aha","html-keyboard-response","433","760529","0.0-2.0-5.71","GP","2","pretest","true","3528904","50","../img/tt/167tt.jpg","","2"
"null","<div style=""font-size:60px;""> </div>","","fixation","html-keyboard-response","434","760730","0.0-2.0-0.72","GP","2","pretest","true","3528904","null","","",""
"null","../img/tt/504tt.jpg","","mooney1","image-keyboard-response","435","763737","0.0-2.0-1.72","GP","2","pretest","true","3528904","null","../img/tt/504tt.jpg","",""
"855","<p></p>","","recognized","html-keyboard-response","436","764592","0.0-2.0-2.72","GP","2","pretest","true","3528904","78","../img/tt/504tt.jpg","n",""
"null","../img/gs/504gs.jpg","","solution","image-keyboard-response","437","766609","0.0-2.0-3.72","GP","2","pretest","true","3528904","null","","",""
"null","../img/tt/504tt.jpg","","mooney2","image-keyboard-response","438","768625","0.0-2.0-4.72","GP","2","pretest","true","3528904","null","","",""
"453","<p>How strong was your <strong>aha-experience</strong>?</p>","","aha","html-keyboard-response","439","769080","0.0-2.0-5.72","GP","2","pretest","true","3528904","49","../img/tt/504tt.jpg","","1"
"null","<div style=""font-size:60px;""> </div>","","fixation","html-keyboard-response","440","769296","0.0-2.0-0.73","GP","2","pretest","true","3528904","null","","",""
"null","../img/tt/1347tt.jpg","","mooney1","image-keyboard-response","441","772303","0.0-2.0-1.73","GP","2","pretest","true","3528904","null","../img/tt/1347tt.jpg","",""
"355","<p></p>","","recognized","html-keyboard-response","442","772659","0.0-2.0-2.73","GP","2","pretest","true","3528904","78","../img/tt/1347tt.jpg","n",""
"null","../img/gs/1347gs.jpg","","solution","image-keyboard-response","443","774662","0.0-2.0-3.73","GP","2","pretest","true","3528904","null","","",""
"null","../img/tt/1347tt.jpg","","mooney2","image-keyboard-response","444","776668","0.0-2.0-4.73","GP","2","pretest","true","3528904","null","","",""
"483","<p>How strong was your <strong>aha-experience</strong>?</p>","","aha","html-keyboard-response","445","777153","0.0-2.0-5.73","GP","2","pretest","true","3528904","50","../img/tt/1347tt.jpg","","2"
"null","<div style=""font-size:60px;""> </div>","","fixation","html-keyboard-response","446","777369","0.0-2.0-0.74","GP","2","pretest","true","3528904","null","","",""
"null","../img/tt/236tt.jpg","","mooney1","image-keyboard-response","447","780371","0.0-2.0-1.74","GP","2","pretest","true","3528904","null","../img/tt/236tt.jpg","",""
"1088","<p></p>","","recognized","html-keyboard-response","448","781460","0.0-2.0-2.74","GP","2","pretest","true","3528904","78","../img/tt/236tt.jpg","n",""
"null","../img/gs/236gs.jpg","","solution","image-keyboard-response","449","783475","0.0-2.0-3.74","GP","2","pretest","true","3528904","null","","",""
"null","../img/tt/236tt.jpg","","mooney2","image-keyboard-response","450","785476","0.0-2.0-4.74","GP","2","pretest","true","3528904","null","","",""
"613","<p>How strong was your <strong>aha-experience</strong>?</p>","","aha","html-keyboard-response","451","786089","0.0-2.0-5.74","GP","2","pretest","true","3528904","49","../img/tt/236tt.jpg","","1"
"null","<div style=""font-size:60px;""> </div>","","fixation","html-keyboard-response","452","786296","0.0-2.0-0.75","GP","2","pretest","true","3528904","null","","",""
"null","../img/tt/600tt.jpg","","mooney1","image-keyboard-response","453","789299","0.0-2.0-1.75","GP","2","pretest","true","3528904","null","../img/tt/600tt.jpg","",""
"2800","<p></p>","","recognized","html-keyboard-response","454","792099","0.0-2.0-2.75","GP","2","pretest","true","3528904","78","../img/tt/600tt.jpg","n",""
"null","../img/gs/600gs.jpg","","solution","image-keyboard-response","455","794110","0.0-2.0-3.75","GP","2","pretest","true","3528904","null","","",""
"null","../img/tt/600tt.jpg","","mooney2","image-keyboard-response","456","796122","0.0-2.0-4.75","GP","2","pretest","true","3528904","null","","",""
"408","<p>How strong was your <strong>aha-experience</strong>?</p>","","aha","html-keyboard-response","457","796530","0.0-2.0-5.75","GP","2","pretest","true","3528904","50","../img/tt/600tt.jpg","","2"
"null","<div style=""font-size:60px;""> </div>","","fixation","html-keyboard-response","458","796744","0.0-2.0-0.76","GP","2","pretest","true","3528904","null","","",""
"null","../img/tt/436tt.jpg","","mooney1","image-keyboard-response","459","799745","0.0-2.0-1.76","GP","2","pretest","true","3528904","null","../img/tt/436tt.jpg","",""
"740","<p></p>","","recognized","html-keyboard-response","460","800485","0.0-2.0-2.76","GP","2","pretest","true","3528904","78","../img/tt/436tt.jpg","n",""
"null","../img/gs/436gs.jpg","","solution","image-keyboard-response","461","802495","0.0-2.0-3.76","GP","2","pretest","true","3528904","null","","",""
"null","../img/tt/436tt.jpg","","mooney2","image-keyboard-response","462","804502","0.0-2.0-4.76","GP","2","pretest","true","3528904","null","","",""
"511","<p>How strong was your <strong>aha-experience</strong>?</p>","","aha","html-keyboard-response","463","805013","0.0-2.0-5.76","GP","2","pretest","true","3528904","49","../img/tt/436tt.jpg","","1"
"null","<div style=""font-size:60px;""> </div>","","fixation","html-keyboard-response","464","805217","0.0-2.0-0.77","GP","2","pretest","true","3528904","null","","",""
"null","../img/tt/182tt.jpg","","mooney1","image-keyboard-response","465","808230","0.0-2.0-1.77","GP","2","pretest","true","3528904","null","../img/tt/182tt.jpg","",""
"649","<p></p>","","recognized","html-keyboard-response","466","808879","0.0-2.0-2.77","GP","2","pretest","true","3528904","78","../img/tt/182tt.jpg","n",""
"null","../img/gs/182gs.jpg","","solution","image-keyboard-response","467","810895","0.0-2.0-3.77","GP","2","pretest","true","3528904","null","","",""
"null","../img/tt/182tt.jpg","","mooney2","image-keyboard-response","468","812904","0.0-2.0-4.77","GP","2","pretest","true","3528904","null","","",""
"584","<p>How strong was your <strong>aha-experience</strong>?</p>","","aha","html-keyboard-response","469","813488","0.0-2.0-5.77","GP","2","pretest","true","3528904","50","../img/tt/182tt.jpg","","2"
"null","<div style=""font-size:60px;""> </div>","","fixation","html-keyboard-response","470","813691","0.0-2.0-0.78","GP","2","pretest","true","3528904","null","","",""
"null","../img/tt/477tt.jpg","","mooney1","image-keyboard-response","471","816704","0.0-2.0-1.78","GP","2","pretest","true","3528904","null","../img/tt/477tt.jpg","",""
"739","<p></p>","","recognized","html-keyboard-response","472","817444","0.0-2.0-2.78","GP","2","pretest","true","3528904","78","../img/tt/477tt.jpg","n",""
"null","../img/gs/477gs.jpg","","solution","image-keyboard-response","473","819455","0.0-2.0-3.78","GP","2","pretest","true","3528904","null","","",""
"null","../img/tt/477tt.jpg","","mooney2","image-keyboard-response","474","821458","0.0-2.0-4.78","GP","2","pretest","true","3528904","null","","",""
"2681","<p>How strong was your <strong>aha-experience</strong>?</p>","","aha","html-keyboard-response","475","824140","0.0-2.0-5.78","GP","2","pretest","true","3528904","52","../img/tt/477tt.jpg","","4"
"null","<div style=""font-size:60px;""> </div>","","fixation","html-keyboard-response","476","824355","0.0-2.0-0.79","GP","2","pretest","true","3528904","null","","",""
"null","../img/tt/572tt.jpg","","mooney1","image-keyboard-response","477","827367","0.0-2.0-1.79","GP","2","pretest","true","3528904","null","../img/tt/572tt.jpg","",""
"440","<p></p>","","recognized","html-keyboard-response","478","827808","0.0-2.0-2.79","GP","2","pretest","true","3528904","78","../img/tt/572tt.jpg","n",""
"null","../img/gs/572gs.jpg","","solution","image-keyboard-response","479","829818","0.0-2.0-3.79","GP","2","pretest","true","3528904","null","","",""
"null","../img/tt/572tt.jpg","","mooney2","image-keyboard-response","480","831832","0.0-2.0-4.79","GP","2","pretest","true","3528904","null","","",""
"311","<p>How strong was your <strong>aha-experience</strong>?</p>","","aha","html-keyboard-response","481","832143","0.0-2.0-5.79","GP","2","pretest","true","3528904","49","../img/tt/572tt.jpg","","1"
"null","<div style=""font-size:60px;""> </div>","","fixation","html-keyboard-response","482","832348","0.0-2.0-0.80","GP","2","pretest","true","3528904","null","","",""
"null","../img/tt/456tt.jpg","","mooney1","image-keyboard-response","483","835362","0.0-2.0-1.80","GP","2","pretest","true","3528904","null","../img/tt/456tt.jpg","",""
"876","<p></p>","","recognized","html-keyboard-response","484","836238","0.0-2.0-2.80","GP","2","pretest","true","3528904","78","../img/tt/456tt.jpg","n",""
"null","../img/gs/456gs.jpg","","solution","image-keyboard-response","485","838242","0.0-2.0-3.80","GP","2","pretest","true","3528904","null","","",""
"null","../img/tt/456tt.jpg","","mooney2","image-keyboard-response","486","840248","0.0-2.0-4.80","GP","2","pretest","true","3528904","null","","",""
"1486","<p>How strong was your <strong>aha-experience</strong>?</p>","","aha","html-keyboard-response","487","841735","0.0-2.0-5.80","GP","2","pretest","true","3528904","50","../img/tt/456tt.jpg","","2"
"null","<div style=""font-size:60px;""> </div>","","fixation","html-keyboard-response","488","841941","0.0-2.0-0.81","GP","2","pretest","true","3528904","null","","",""
"null","../img/tt/427tt.jpg","","mooney1","image-keyboard-response","489","844953","0.0-2.0-1.81","GP","2","pretest","true","3528904","null","../img/tt/427tt.jpg","",""
"490","<p></p>","","recognized","html-keyboard-response","490","845443","0.0-2.0-2.81","GP","2","pretest","true","3528904","89","../img/tt/427tt.jpg","y",""
"null","../img/gs/427gs.jpg","","solution","image-keyboard-response","491","847446","0.0-2.0-3.81","GP","2","pretest","true","3528904","null","","",""
"null","../img/tt/427tt.jpg","","mooney2","image-keyboard-response","492","849452","0.0-2.0-4.81","GP","2","pretest","true","3528904","null","","",""
"1895","<p>How strong was your <strong>aha-experience</strong>?</p>","","aha","html-keyboard-response","493","851349","0.0-2.0-5.81","GP","2","pretest","true","3528904","49","../img/tt/427tt.jpg","","1"
"null","<div style=""font-size:60px;""> </div>","","fixation","html-keyboard-response","494","851552","0.0-2.0-0.82","GP","2","pretest","true","3528904","null","","",""
"null","../img/tt/556tt.jpg","","mooney1","image-keyboard-response","495","854566","0.0-2.0-1.82","GP","2","pretest","true","3528904","null","../img/tt/556tt.jpg","",""
"766","<p></p>","","recognized","html-keyboard-response","496","855332","0.0-2.0-2.82","GP","2","pretest","true","3528904","78","../img/tt/556tt.jpg","n",""
"null","../img/gs/556gs.jpg","","solution","image-keyboard-response","497","857347","0.0-2.0-3.82","GP","2","pretest","true","3528904","null","","",""
"null","../img/tt/556tt.jpg","","mooney2","image-keyboard-response","498","859351","0.0-2.0-4.82","GP","2","pretest","true","3528904","null","","",""
"366","<p>How strong was your <strong>aha-experience</strong>?</p>","","aha","html-keyboard-response","499","859718","0.0-2.0-5.82","GP","2","pretest","true","3528904","49","../img/tt/556tt.jpg","","1"
"null","<div style=""font-size:60px;""> </div>","","fixation","html-keyboard-response","500","859925","0.0-2.0-0.83","GP","2","pretest","true","3528904","null","","",""
"null","../img/tt/263tt.jpg","","mooney1","image-keyboard-response","501","862939","0.0-2.0-1.83","GP","2","pretest","true","3528904","null","../img/tt/263tt.jpg","",""
"367","<p></p>","","recognized","html-keyboard-response","502","863307","0.0-2.0-2.83","GP","2","pretest","true","3528904","78","../img/tt/263tt.jpg","n",""
"null","../img/gs/263gs.jpg","","solution","image-keyboard-response","503","865321","0.0-2.0-3.83","GP","2","pretest","true","3528904","null","","",""
"null","../img/tt/263tt.jpg","","mooney2","image-keyboard-response","504","867338","0.0-2.0-4.83","GP","2","pretest","true","3528904","null","","",""
"1361","<p>How strong was your <strong>aha-experience</strong>?</p>","","aha","html-keyboard-response","505","868699","0.0-2.0-5.83","GP","2","pretest","true","3528904","49","../img/tt/263tt.jpg","","1"
"null","<div style=""font-size:60px;""> </div>","","fixation","html-keyboard-response","506","868914","0.0-2.0-0.84","GP","2","pretest","true","3528904","null","","",""
"null","../img/tt/337tt.jpg","","mooney1","image-keyboard-response","507","871924","0.0-2.0-1.84","GP","2","pretest","true","3528904","null","../img/tt/337tt.jpg","",""
"519","<p></p>","","recognized","html-keyboard-response","508","872443","0.0-2.0-2.84","GP","2","pretest","true","3528904","78","../img/tt/337tt.jpg","n",""
"null","../img/gs/337gs.jpg","","solution","image-keyboard-response","509","874448","0.0-2.0-3.84","GP","2","pretest","true","3528904","null","","",""
"null","../img/tt/337tt.jpg","","mooney2","image-keyboard-response","510","876454","0.0-2.0-4.84","GP","2","pretest","true","3528904","null","","",""
"476","<p>How strong was your <strong>aha-experience</strong>?</p>","","aha","html-keyboard-response","511","876930","0.0-2.0-5.84","GP","2","pretest","true","3528904","49","../img/tt/337tt.jpg","","1"
"null","<div style=""font-size:60px;""> </div>","","fixation","html-keyboard-response","512","877141","0.0-2.0-0.85","GP","2","pretest","true","3528904","null","","",""
"null","../img/tt/318tt.jpg","","mooney1","image-keyboard-response","513","880154","0.0-2.0-1.85","GP","2","pretest","true","3528904","null","../img/tt/318tt.jpg","",""
"794","<p></p>","","recognized","html-keyboard-response","514","880948","0.0-2.0-2.85","GP","2","pretest","true","3528904","78","../img/tt/318tt.jpg","n",""
"null","../img/gs/318gs.jpg","","solution","image-keyboard-response","515","882950","0.0-2.0-3.85","GP","2","pretest","true","3528904","null","","",""
"null","../img/tt/318tt.jpg","","mooney2","image-keyboard-response","516","884956","0.0-2.0-4.85","GP","2","pretest","true","3528904","null","","",""
"781","<p>How strong was your <strong>aha-experience</strong>?</p>","","aha","html-keyboard-response","517","885738","0.0-2.0-5.85","GP","2","pretest","true","3528904","53","../img/tt/318tt.jpg","","5"
"null","<div style=""font-size:60px;""> </div>","","fixation","html-keyboard-response","518","885946","0.0-2.0-0.86","GP","2","pretest","true","3528904","null","","",""
"null","../img/tt/260tt.jpg","","mooney1","image-keyboard-response","519","888957","0.0-2.0-1.86","GP","2","pretest","true","3528904","null","../img/tt/260tt.jpg","",""
"682","<p></p>","","recognized","html-keyboard-response","520","889641","0.0-2.0-2.86","GP","2","pretest","true","3528904","78","../img/tt/260tt.jpg","n",""
"null","../img/gs/260gs.jpg","","solution","image-keyboard-response","521","891657","0.0-2.0-3.86","GP","2","pretest","true","3528904","null","","",""
"null","../img/tt/260tt.jpg","","mooney2","image-keyboard-response","522","893663","0.0-2.0-4.86","GP","2","pretest","true","3528904","null","","",""
"1049","<p>How strong was your <strong>aha-experience</strong>?</p>","","aha","html-keyboard-response","523","894713","0.0-2.0-5.86","GP","2","pretest","true","3528904","52","../img/tt/260tt.jpg","","4"
"null","<div style=""font-size:60px;""> </div>","","fixation","html-keyboard-response","524","894918","0.0-2.0-0.87","GP","2","pretest","true","3528904","null","","",""
"null","../img/tt/312tt.jpg","","mooney1","image-keyboard-response","525","897930","0.0-2.0-1.87","GP","2","pretest","true","3528904","null","../img/tt/312tt.jpg","",""
"475","<p></p>","","recognized","html-keyboard-response","526","898406","0.0-2.0-2.87","GP","2","pretest","true","3528904","78","../img/tt/312tt.jpg","n",""
"null","../img/gs/312gs.jpg","","solution","image-keyboard-response","527","900413","0.0-2.0-3.87","GP","2","pretest","true","3528904","null","","",""
"null","../img/tt/312tt.jpg","","mooney2","image-keyboard-response","528","902419","0.0-2.0-4.87","GP","2","pretest","true","3528904","null","","",""
"353","<p>How strong was your <strong>aha-experience</strong>?</p>","","aha","html-keyboard-response","529","902773","0.0-2.0-5.87","GP","2","pretest","true","3528904","49","../img/tt/312tt.jpg","","1"
"null","<div style=""font-size:60px;""> </div>","","fixation","html-keyboard-response","530","902976","0.0-2.0-0.88","GP","2","pretest","true","3528904","null","","",""
"null","../img/tt/448tt.jpg","","mooney1","image-keyboard-response","531","905989","0.0-2.0-1.88","GP","2","pretest","true","3528904","null","../img/tt/448tt.jpg","",""
"978","<p></p>","","recognized","html-keyboard-response","532","906967","0.0-2.0-2.88","GP","2","pretest","true","3528904","78","../img/tt/448tt.jpg","n",""
"null","../img/gs/448gs.jpg","","solution","image-keyboard-response","533","908969","0.0-2.0-3.88","GP","2","pretest","true","3528904","null","","",""
"null","../img/tt/448tt.jpg","","mooney2","image-keyboard-response","534","910977","0.0-2.0-4.88","GP","2","pretest","true","3528904","null","","",""
"1720","<p>How strong was your <strong>aha-experience</strong>?</p>","","aha","html-keyboard-response","535","912698","0.0-2.0-5.88","GP","2","pretest","true","3528904","49","../img/tt/448tt.jpg","","1"
"null","<div style=""font-size:60px;""> </div>","","fixation","html-keyboard-response","536","912910","0.0-2.0-0.89","GP","2","pretest","true","3528904","null","","",""
"null","../img/tt/351tt.jpg","","mooney1","image-keyboard-response","537","915923","0.0-2.0-1.89","GP","2","pretest","true","3528904","null","../img/tt/351tt.jpg","",""
"1089","<p></p>","","recognized","html-keyboard-response","538","917013","0.0-2.0-2.89","GP","2","pretest","true","3528904","78","../img/tt/351tt.jpg","n",""
"null","../img/gs/351gs.jpg","","solution","image-keyboard-response","539","919021","0.0-2.0-3.89","GP","2","pretest","true","3528904","null","","",""
"null","../img/tt/351tt.jpg","","mooney2","image-keyboard-response","540","921026","0.0-2.0-4.89","GP","2","pretest","true","3528904","null","","",""
"1098","<p>How strong was your <strong>aha-experience</strong>?</p>","","aha","html-keyboard-response","541","922124","0.0-2.0-5.89","GP","2","pretest","true","3528904","50","../img/tt/351tt.jpg","","2"
"null","<div style=""font-size:60px;""> </div>","","fixation","html-keyboard-response","542","922329","0.0-2.0-0.90","GP","2","pretest","true","3528904","null","","",""
"null","../img/tt/135tt.jpg","","mooney1","image-keyboard-response","543","925343","0.0-2.0-1.90","GP","2","pretest","true","3528904","null","../img/tt/135tt.jpg","",""
"1205","<p></p>","","recognized","html-keyboard-response","544","926549","0.0-2.0-2.90","GP","2","pretest","true","3528904","78","../img/tt/135tt.jpg","n",""
"null","../img/gs/135gs.jpg","","solution","image-keyboard-response","545","928559","0.0-2.0-3.90","GP","2","pretest","true","3528904","null","","",""
"null","../img/tt/135tt.jpg","","mooney2","image-keyboard-response","546","930560","0.0-2.0-4.90","GP","2","pretest","true","3528904","null","","",""
"1515","<p>How strong was your <strong>aha-experience</strong>?</p>","","aha","html-keyboard-response","547","932075","0.0-2.0-5.90","GP","2","pretest","true","3528904","54","../img/tt/135tt.jpg","","6"
"null","<div style=""font-size:60px;""> </div>","","fixation","html-keyboard-response","548","932280","0.0-2.0-0.91","GP","2","pretest","true","3528904","null","","",""
"null","../img/tt/481tt.jpg","","mooney1","image-keyboard-response","549","935294","0.0-2.0-1.91","GP","2","pretest","true","3528904","null","../img/tt/481tt.jpg","",""
"855","<p></p>","","recognized","html-keyboard-response","550","936149","0.0-2.0-2.91","GP","2","pretest","true","3528904","78","../img/tt/481tt.jpg","n",""
"null","../img/gs/481gs.jpg","","solution","image-keyboard-response","551","938166","0.0-2.0-3.91","GP","2","pretest","true","3528904","null","","",""
"null","../img/tt/481tt.jpg","","mooney2","image-keyboard-response","552","940169","0.0-2.0-4.91","GP","2","pretest","true","3528904","null","","",""
"871","<p>How strong was your <strong>aha-experience</strong>?</p>","","aha","html-keyboard-response","553","941040","0.0-2.0-5.91","GP","2","pretest","true","3528904","49","../img/tt/481tt.jpg","","1"
"null","<div style=""font-size:60px;""> </div>","","fixation","html-keyboard-response","554","941251","0.0-2.0-0.92","GP","2","pretest","true","3528904","null","","",""
"null","../img/tt/261tt.jpg","","mooney1","image-keyboard-response","555","944260","0.0-2.0-1.92","GP","2","pretest","true","3528904","null","../img/tt/261tt.jpg","",""
"922","<p></p>","","recognized","html-keyboard-response","556","945182","0.0-2.0-2.92","GP","2","pretest","true","3528904","78","../img/tt/261tt.jpg","n",""
"null","../img/gs/261gs.jpg","","solution","image-keyboard-response","557","947184","0.0-2.0-3.92","GP","2","pretest","true","3528904","null","","",""
"null","../img/tt/261tt.jpg","","mooney2","image-keyboard-response","558","949185","0.0-2.0-4.92","GP","2","pretest","true","3528904","null","","",""
"876","<p>How strong was your <strong>aha-experience</strong>?</p>","","aha","html-keyboard-response","559","950062","0.0-2.0-5.92","GP","2","pretest","true","3528904","49","../img/tt/261tt.jpg","","1"
"null","<div style=""font-size:60px;""> </div>","","fixation","html-keyboard-response","560","950276","0.0-2.0-0.93","GP","2","pretest","true","3528904","null","","",""
"null","../img/tt/322tt.jpg","","mooney1","image-keyboard-response","561","953279","0.0-2.0-1.93","GP","2","pretest","true","3528904","null","../img/tt/322tt.jpg","",""
"397","<p></p>","","recognized","html-keyboard-response","562","953677","0.0-2.0-2.93","GP","2","pretest","true","3528904","89","../img/tt/322tt.jpg","y",""
"null","../img/gs/322gs.jpg","","solution","image-keyboard-response","563","955683","0.0-2.0-3.93","GP","2","pretest","true","3528904","null","","",""
"null","../img/tt/322tt.jpg","","mooney2","image-keyboard-response","564","957684","0.0-2.0-4.93","GP","2","pretest","true","3528904","null","","",""
"649","<p>How strong was your <strong>aha-experience</strong>?</p>","","aha","html-keyboard-response","565","958333","0.0-2.0-5.93","GP","2","pretest","true","3528904","50","../img/tt/322tt.jpg","","2"
"null","<div style=""font-size:60px;""> </div>","","fixation","html-keyboard-response","566","958535","0.0-2.0-0.94","GP","2","pretest","true","3528904","null","","",""
"null","../img/tt/266tt.jpg","","mooney1","image-keyboard-response","567","961544","0.0-2.0-1.94","GP","2","pretest","true","3528904","null","../img/tt/266tt.jpg","",""
"806","<p></p>","","recognized","html-keyboard-response","568","962351","0.0-2.0-2.94","GP","2","pretest","true","3528904","78","../img/tt/266tt.jpg","n",""
"null","../img/gs/266gs.jpg","","solution","image-keyboard-response","569","964355","0.0-2.0-3.94","GP","2","pretest","true","3528904","null","","",""
"null","../img/tt/266tt.jpg","","mooney2","image-keyboard-response","570","966359","0.0-2.0-4.94","GP","2","pretest","true","3528904","null","","",""
