"rt","stimulus","key_press","test_part","trial_type","trial_index","time_elapsed","internal_node_id","totalTime","subject","experiment_name","button_pressed","success","responses","question_order","currentStim","old","correct"
"7327","Welcome to the experiment. This is an online experiment so please don't close the tab/window until we say goodbye.  Press any key to begin.","32","instructions","html-keyboard-response","0","7336","0.0-0.0","2691503","co33928","norming","","","","","","",""
"3644","<div style='word-wrap: break-word; width: 900px'><h3>Please consider this information carefully before deciding whether to participate in this research</h3><ul style='text-align: left; font-size: .8em;'><li><b>Purpose of the research</b>: To examine how people process images.</li><li><b>What you will do in this research</b>:  Stimuli (images) will be presented on the computer and you will be asked different questions about them.</li><li><b>Time required</b>: Participation will take between 45 and 60 minutes to complete.</li><li><b>Risks</b>:  There are no anticipated risks associated with participating in this study. The effects of participating should be comparable to those you would experience from viewing a computer monitor for 30 minutes and using a mouse or keyboard.</li><li><b>Benefits</b>:  This study provides no benefits to you individually except for the credit. The study provides important information about the nature of perception and learning.</li><li><b>Confidentiality</b>:  Your participation in this study will remain confidential. No personally identifiable information will be associated with your data. Your de-identified data may be shared with other researchers and used in future projects.</li><li><b>Participation and withdrawal</b>:  Your participation in this study is completely voluntary and you may refuse to participate or you may choose to withdraw at any time without penalty.</li><li><b>How to contact the researchers</b>: If you have questions or concerns about your participation or payment, or want to request a summary of research findings, please contact Sander Van de Cruys (KU Leuven), at sander.vandecruys@kuleuven.be.</li></ul><p>The nature and purpose of this research have been sufficiently explained and I agree to participate in this study.  I understand that I am free to withdraw at any time without incurring any penalty.</p><p>Please consent by clicking the button below to continue. Otherwise, please exit the study at this time.</p></div>","","instructions","html-button-response","1","10983","0.0-1.0","2691503","co33928","norming","0","","","","","",""
"","","","instructions","fullscreen","2","18777","0.0-2.0","2691503","co33928","norming","","true","","","","",""
"32096","","","sona","survey-html-form","3","50877","0.0-3.0","2691503","co33928","norming","","","[{""name"":""sonaid"",""value"":""33928""},{""name"":""debrief"",""value"":""yes""},{""name"":""datajoin"",""value"":""yes""}]","","","",""
"59295","<div style='word-wrap: break-word; width: 900px'><h3>Instructions</h3><p>This experiment will have 3 parts. In the first part you will see a series of distorted images like the one below on the left. As you can see in the righthand image, the distorted images are derived from actual photographs. In what follows, you will <strong>briefly</strong> be presented with <strong>only</strong> the distorted image.</p> <div style='float: left; margin-right: 20px;'><img src='../img/018tt.jpg' height='250' width='250'></img></div><div style='float: right; margin-left: 20px;'><img src='../img/018gs.jpg' height='250' width='250'></img></div><p>Subsequently you will be asked a few questions about the image: One question on how <strong>curious</strong> you are about the solution and one on how <strong>confident</strong> you are that you know the solution.</p>Next, we ask you to make a guess on what is in the image. Note that it is OK to name just the <strong>basic level category</strong>. For example when you see a parrot in the image, 'parrot' will obviously be a correct answer but also correct is 'bird'. However, 'animal' will <strong>not</strong> be counted as a correct response. For the example above, 'rose' would be correct or 'flower', but not 'plant'. When soccer players are depicted, 'soccer', 'football', 'soccer players' will be correct, but not 'humans', 'outdoors', or 'sports'. You do not need to describe the image in full, just name the main object in it <strong>in one or two words</strong>. All images depict objects from one of the following broad level categories: animals, inanimate objects, plants, sports, vehicles, and food. Recognizing means knowing <strong>more</strong> than these broad labels for a given image. But we always encourage you to <strong>make a guess</strong> if you can. Note that you are allowed to use <strong>Dutch and English</strong> in your answers, whatever comes easiest for you.</p><p>Press any key to continue.</p></div>","32","instructions","html-keyboard-response","4","110176","0.0-4.0","2691503","co33928","norming","","","","","","",""
"8380","<div style='word-wrap: break-word; width: 900px'><h3>Instructions</h3> <p>Next, the solution image will be revealed to you and you'll be asked to indicate how strong your <strong>aha-experience</strong> was after seeing the solution. This describes the positive feeling of the 'click' you sometimes experience, when the pieces of the 'puzzle' fall together and you suddenly have 'insight' in the image.</p><img src='aha.jpg' height='188' width='250'></img><p>Note that there are no right or wrong answers. We are interested in what <strong>you</strong> see in the image and how <strong>you</strong> feel about it.</p><p>Press any key to start the experiment.</p></div>","32","instructions","html-keyboard-response","5","118559","0.0-5.0","2691503","co33928","norming","","","","","","",""
"null","<div style=""font-size:60px;""> </div>","null","fixation","html-keyboard-response","6","118763","0.0-6.0-0.0","2691503","co33928","norming","","","","","","",""
"null","../img/tt/1080tt.jpg","null","mooney1","image-keyboard-response","7","121781","0.0-6.0-1.0","2691503","co33928","norming","","","","","","",""
"9657","","","post_mooney1_questions","survey-likert","8","131443","0.0-6.0-2.0","2691503","co33928","norming","","","{""curiosity"":5,""confidence"":1}","[0,1]","../img/tt/1080tt.jpg","",""
"2384","","","recognition","survey-text","9","133835","0.0-6.0-3.0","2691503","co33928","norming","","","{""guess"":""koe""}","","../img/tt/1080tt.jpg","",""
"null","../img/gs/1080gs.jpg","null","reveal","image-keyboard-response","10","135842","0.0-6.0-4.0","2691503","co33928","norming","","","","","","",""
"null","../img/tt/1080tt.jpg","null","mooney2","image-keyboard-response","11","137860","0.0-6.0-5.0","2691503","co33928","norming","","","","","","",""
"4255","","","post_reveal_questions","survey-likert","12","142117","0.0-6.0-6.0","2691503","co33928","norming","","","{""aha"":2}","[0]","../img/tt/1080tt.jpg","",""
"null","<div style=""font-size:60px;""> </div>","null","fixation","html-keyboard-response","13","142331","0.0-6.0-0.1","2691503","co33928","norming","","","","","","",""
"null","../img/tt/123tt.jpg","null","mooney1","image-keyboard-response","14","145341","0.0-6.0-1.1","2691503","co33928","norming","","","","","","",""
"5804","","","post_mooney1_questions","survey-likert","15","151147","0.0-6.0-2.1","2691503","co33928","norming","","","{""curiosity"":4,""confidence"":2}","[0,1]","../img/tt/123tt.jpg","",""
"1714","","","recognition","survey-text","16","152867","0.0-6.0-3.1","2691503","co33928","norming","","","{""guess"":""tas""}","","../img/tt/123tt.jpg","",""
"null","../img/gs/123gs.jpg","null","reveal","image-keyboard-response","17","154870","0.0-6.0-4.1","2691503","co33928","norming","","","","","","",""
"null","../img/tt/123tt.jpg","null","mooney2","image-keyboard-response","18","156880","0.0-6.0-5.1","2691503","co33928","norming","","","","","","",""
"4175","","","post_reveal_questions","survey-likert","19","161058","0.0-6.0-6.1","2691503","co33928","norming","","","{""aha"":2}","[0]","../img/tt/123tt.jpg","",""
"null","<div style=""font-size:60px;""> </div>","null","fixation","html-keyboard-response","20","161269","0.0-6.0-0.2","2691503","co33928","norming","","","","","","",""
"null","../img/tt/549tt.jpg","null","mooney1","image-keyboard-response","21","164291","0.0-6.0-1.2","2691503","co33928","norming","","","","","","",""
"5059","","","post_mooney1_questions","survey-likert","22","169353","0.0-6.0-2.2","2691503","co33928","norming","","","{""curiosity"":6,""confidence"":0}","[0,1]","../img/tt/549tt.jpg","",""
"4104","","","recognition","survey-text","23","173463","0.0-6.0-3.2","2691503","co33928","norming","","","{""guess"":""ruimte""}","","../img/tt/549tt.jpg","",""
"null","../img/gs/549gs.jpg","null","reveal","image-keyboard-response","24","175481","0.0-6.0-4.2","2691503","co33928","norming","","","","","","",""
"null","../img/tt/549tt.jpg","null","mooney2","image-keyboard-response","25","177490","0.0-6.0-5.2","2691503","co33928","norming","","","","","","",""
"6167","","","post_reveal_questions","survey-likert","26","183660","0.0-6.0-6.2","2691503","co33928","norming","","","{""aha"":1}","[0]","../img/tt/549tt.jpg","",""
"null","<div style=""font-size:60px;""> </div>","null","fixation","html-keyboard-response","27","183870","0.0-6.0-0.3","2691503","co33928","norming","","","","","","",""
"null","../img/tt/1278tt.jpg","null","mooney1","image-keyboard-response","28","186891","0.0-6.0-1.3","2691503","co33928","norming","","","","","","",""
"12408","","","post_mooney1_questions","survey-likert","29","199301","0.0-6.0-2.3","2691503","co33928","norming","","","{""curiosity"":5,""confidence"":1}","[0,1]","../img/tt/1278tt.jpg","",""
"3454","","","recognition","survey-text","30","202761","0.0-6.0-3.3","2691503","co33928","norming","","","{""guess"":""vrouw""}","","../img/tt/1278tt.jpg","",""
"null","../img/gs/1278gs.jpg","null","reveal","image-keyboard-response","31","204781","0.0-6.0-4.3","2691503","co33928","norming","","","","","","",""
"null","../img/tt/1278tt.jpg","null","mooney2","image-keyboard-response","32","206800","0.0-6.0-5.3","2691503","co33928","norming","","","","","","",""
"5755","","","post_reveal_questions","survey-likert","33","212559","0.0-6.0-6.3","2691503","co33928","norming","","","{""aha"":4}","[0]","../img/tt/1278tt.jpg","",""
"null","<div style=""font-size:60px;""> </div>","null","fixation","html-keyboard-response","34","212770","0.0-6.0-0.4","2691503","co33928","norming","","","","","","",""
"null","../img/tt/064tt.jpg","null","mooney1","image-keyboard-response","35","215790","0.0-6.0-1.4","2691503","co33928","norming","","","","","","",""
"6244","","","post_mooney1_questions","survey-likert","36","222037","0.0-6.0-2.4","2691503","co33928","norming","","","{""curiosity"":5,""confidence"":1}","[0,1]","../img/tt/064tt.jpg","",""
"4687","","","recognition","survey-text","37","226732","0.0-6.0-3.4","2691503","co33928","norming","","","{""guess"":""gitaar""}","","../img/tt/064tt.jpg","",""
"null","../img/gs/064gs.jpg","null","reveal","image-keyboard-response","38","228741","0.0-6.0-4.4","2691503","co33928","norming","","","","","","",""
"null","../img/tt/064tt.jpg","null","mooney2","image-keyboard-response","39","230760","0.0-6.0-5.4","2691503","co33928","norming","","","","","","",""
"4452","","","post_reveal_questions","survey-likert","40","235217","0.0-6.0-6.4","2691503","co33928","norming","","","{""aha"":3}","[0]","../img/tt/064tt.jpg","",""
"null","<div style=""font-size:60px;""> </div>","null","fixation","html-keyboard-response","41","235423","0.0-6.0-0.5","2691503","co33928","norming","","","","","","",""
"null","../img/tt/438tt.jpg","null","mooney1","image-keyboard-response","42","238431","0.0-6.0-1.5","2691503","co33928","norming","","","","","","",""
"5690","","","post_mooney1_questions","survey-likert","43","244124","0.0-6.0-2.5","2691503","co33928","norming","","","{""curiosity"":4,""confidence"":1}","[0,1]","../img/tt/438tt.jpg","",""
"1625","","","recognition","survey-text","44","245757","0.0-6.0-3.5","2691503","co33928","norming","","","{""guess"":""vis""}","","../img/tt/438tt.jpg","",""
"null","../img/gs/438gs.jpg","null","reveal","image-keyboard-response","45","247770","0.0-6.0-4.5","2691503","co33928","norming","","","","","","",""
"null","../img/tt/438tt.jpg","null","mooney2","image-keyboard-response","46","249780","0.0-6.0-5.5","2691503","co33928","norming","","","","","","",""
"3104","","","post_reveal_questions","survey-likert","47","252888","0.0-6.0-6.5","2691503","co33928","norming","","","{""aha"":4}","[0]","../img/tt/438tt.jpg","",""
"null","<div style=""font-size:60px;""> </div>","null","fixation","html-keyboard-response","48","253096","0.0-6.0-0.6","2691503","co33928","norming","","","","","","",""
"null","../img/tt/1006tt.jpg","null","mooney1","image-keyboard-response","49","256101","0.0-6.0-1.6","2691503","co33928","norming","","","","","","",""
"6826","","","post_mooney1_questions","survey-likert","50","262931","0.0-6.0-2.6","2691503","co33928","norming","","","{""curiosity"":4,""confidence"":3}","[0,1]","../img/tt/1006tt.jpg","",""
"1619","","","recognition","survey-text","51","264558","0.0-6.0-3.6","2691503","co33928","norming","","","{""guess"":""koe""}","","../img/tt/1006tt.jpg","",""
"null","../img/gs/1006gs.jpg","null","reveal","image-keyboard-response","52","266572","0.0-6.0-4.6","2691503","co33928","norming","","","","","","",""
"null","../img/tt/1006tt.jpg","null","mooney2","image-keyboard-response","53","268580","0.0-6.0-5.6","2691503","co33928","norming","","","","","","",""
"3370","","","post_reveal_questions","survey-likert","54","271955","0.0-6.0-6.6","2691503","co33928","norming","","","{""aha"":4}","[0]","../img/tt/1006tt.jpg","",""
"null","<div style=""font-size:60px;""> </div>","null","fixation","html-keyboard-response","55","272168","0.0-6.0-0.7","2691503","co33928","norming","","","","","","",""
"null","../img/tt/496tt.jpg","null","mooney1","image-keyboard-response","56","275192","0.0-6.0-1.7","2691503","co33928","norming","","","","","","",""
"8015","","","post_mooney1_questions","survey-likert","57","283212","0.0-6.0-2.7","2691503","co33928","norming","","","{""curiosity"":4,""confidence"":2}","[0,1]","../img/tt/496tt.jpg","",""
"4689","","","recognition","survey-text","58","287908","0.0-6.0-3.7","2691503","co33928","norming","","","{""guess"":""paard""}","","../img/tt/496tt.jpg","",""
"null","../img/gs/496gs.jpg","null","reveal","image-keyboard-response","59","289930","0.0-6.0-4.7","2691503","co33928","norming","","","","","","",""
"null","../img/tt/496tt.jpg","null","mooney2","image-keyboard-response","60","291940","0.0-6.0-5.7","2691503","co33928","norming","","","","","","",""
"3979","","","post_reveal_questions","survey-likert","61","295924","0.0-6.0-6.7","2691503","co33928","norming","","","{""aha"":5}","[0]","../img/tt/496tt.jpg","",""
"null","<div style=""font-size:60px;""> </div>","null","fixation","html-keyboard-response","62","296136","0.0-6.0-0.8","2691503","co33928","norming","","","","","","",""
"null","../img/tt/416tt.jpg","null","mooney1","image-keyboard-response","63","299150","0.0-6.0-1.8","2691503","co33928","norming","","","","","","",""
"10671","","","post_mooney1_questions","survey-likert","64","309825","0.0-6.0-2.8","2691503","co33928","norming","","","{""curiosity"":4,""confidence"":2}","[0,1]","../img/tt/416tt.jpg","",""
"2275","","","recognition","survey-text","65","312105","0.0-6.0-3.8","2691503","co33928","norming","","","{""guess"":""kameel""}","","../img/tt/416tt.jpg","",""
"null","../img/gs/416gs.jpg","null","reveal","image-keyboard-response","66","314121","0.0-6.0-4.8","2691503","co33928","norming","","","","","","",""
"null","../img/tt/416tt.jpg","null","mooney2","image-keyboard-response","67","316130","0.0-6.0-5.8","2691503","co33928","norming","","","","","","",""
"3128","","","post_reveal_questions","survey-likert","68","319261","0.0-6.0-6.8","2691503","co33928","norming","","","{""aha"":4}","[0]","../img/tt/416tt.jpg","",""
"null","<div style=""font-size:60px;""> </div>","null","fixation","html-keyboard-response","69","319472","0.0-6.0-0.9","2691503","co33928","norming","","","","","","",""
"null","../img/tt/194tt.jpg","null","mooney1","image-keyboard-response","70","322480","0.0-6.0-1.9","2691503","co33928","norming","","","","","","",""
"3827","","","post_mooney1_questions","survey-likert","71","326310","0.0-6.0-2.9","2691503","co33928","norming","","","{""curiosity"":6,""confidence"":0}","[0,1]","../img/tt/194tt.jpg","",""
"3680","","","recognition","survey-text","72","329996","0.0-6.0-3.9","2691503","co33928","norming","","","{""guess"":""kast""}","","../img/tt/194tt.jpg","",""
"null","../img/gs/194gs.jpg","null","reveal","image-keyboard-response","73","332002","0.0-6.0-4.9","2691503","co33928","norming","","","","","","",""
"null","../img/tt/194tt.jpg","null","mooney2","image-keyboard-response","74","334011","0.0-6.0-5.9","2691503","co33928","norming","","","","","","",""
"3601","","","post_reveal_questions","survey-likert","75","337613","0.0-6.0-6.9","2691503","co33928","norming","","","{""aha"":5}","[0]","../img/tt/194tt.jpg","",""
"null","<div style=""font-size:60px;""> </div>","null","fixation","html-keyboard-response","76","337827","0.0-6.0-0.10","2691503","co33928","norming","","","","","","",""
"null","../img/tt/1102tt.jpg","null","mooney1","image-keyboard-response","77","340830","0.0-6.0-1.10","2691503","co33928","norming","","","","","","",""
"6642","","","post_mooney1_questions","survey-likert","78","347473","0.0-6.0-2.10","2691503","co33928","norming","","","{""curiosity"":3,""confidence"":0}","[0,1]","../img/tt/1102tt.jpg","",""
"3988","","","recognition","survey-text","79","351466","0.0-6.0-3.10","2691503","co33928","norming","","","{""guess"":""boek""}","","../img/tt/1102tt.jpg","",""
"null","../img/gs/1102gs.jpg","null","reveal","image-keyboard-response","80","353470","0.0-6.0-4.10","2691503","co33928","norming","","","","","","",""
"null","../img/tt/1102tt.jpg","null","mooney2","image-keyboard-response","81","355490","0.0-6.0-5.10","2691503","co33928","norming","","","","","","",""
"2806","","","post_reveal_questions","survey-likert","82","358297","0.0-6.0-6.10","2691503","co33928","norming","","","{""aha"":4}","[0]","../img/tt/1102tt.jpg","",""
"null","<div style=""font-size:60px;""> </div>","null","fixation","html-keyboard-response","83","358514","0.0-6.0-0.11","2691503","co33928","norming","","","","","","",""
"null","../img/tt/1116tt.jpg","null","mooney1","image-keyboard-response","84","361530","0.0-6.0-1.11","2691503","co33928","norming","","","","","","",""
"5861","","","post_mooney1_questions","survey-likert","85","367395","0.0-6.0-2.11","2691503","co33928","norming","","","{""curiosity"":4,""confidence"":0}","[0,1]","../img/tt/1116tt.jpg","",""
"2306","","","recognition","survey-text","86","369706","0.0-6.0-3.11","2691503","co33928","norming","","","{""guess"":""parking""}","","../img/tt/1116tt.jpg","",""
"null","../img/gs/1116gs.jpg","null","reveal","image-keyboard-response","87","371711","0.0-6.0-4.11","2691503","co33928","norming","","","","","","",""
"null","../img/tt/1116tt.jpg","null","mooney2","image-keyboard-response","88","373729","0.0-6.0-5.11","2691503","co33928","norming","","","","","","",""
"5941","","","post_reveal_questions","survey-likert","89","379673","0.0-6.0-6.11","2691503","co33928","norming","","","{""aha"":5}","[0]","../img/tt/1116tt.jpg","",""
"null","<div style=""font-size:60px;""> </div>","null","fixation","html-keyboard-response","90","379885","0.0-6.0-0.12","2691503","co33928","norming","","","","","","",""
"null","../img/tt/1033tt.jpg","null","mooney1","image-keyboard-response","91","382890","0.0-6.0-1.12","2691503","co33928","norming","","","","","","",""
"5608","","","post_mooney1_questions","survey-likert","92","388501","0.0-6.0-2.12","2691503","co33928","norming","","","{""curiosity"":5,""confidence"":2}","[0,1]","../img/tt/1033tt.jpg","",""
"2204","","","recognition","survey-text","93","390711","0.0-6.0-3.12","2691503","co33928","norming","","","{""guess"":""DJ""}","","../img/tt/1033tt.jpg","",""
"null","../img/gs/1033gs.jpg","null","reveal","image-keyboard-response","94","392721","0.0-6.0-4.12","2691503","co33928","norming","","","","","","",""
"null","../img/tt/1033tt.jpg","null","mooney2","image-keyboard-response","95","394740","0.0-6.0-5.12","2691503","co33928","norming","","","","","","",""
"2985","","","post_reveal_questions","survey-likert","96","397727","0.0-6.0-6.12","2691503","co33928","norming","","","{""aha"":5}","[0]","../img/tt/1033tt.jpg","",""
"null","<div style=""font-size:60px;""> </div>","null","fixation","html-keyboard-response","97","397940","0.0-6.0-0.13","2691503","co33928","norming","","","","","","",""
"null","../img/tt/1046tt.jpg","null","mooney1","image-keyboard-response","98","400960","0.0-6.0-1.13","2691503","co33928","norming","","","","","","",""
"5677","","","post_mooney1_questions","survey-likert","99","406639","0.0-6.0-2.13","2691503","co33928","norming","","","{""curiosity"":2,""confidence"":0}","[0,1]","../img/tt/1046tt.jpg","",""
"2782","","","recognition","survey-text","100","409426","0.0-6.0-3.13","2691503","co33928","norming","","","{""guess"":""sport""}","","../img/tt/1046tt.jpg","",""
"null","../img/gs/1046gs.jpg","null","reveal","image-keyboard-response","101","411430","0.0-6.0-4.13","2691503","co33928","norming","","","","","","",""
"null","../img/tt/1046tt.jpg","null","mooney2","image-keyboard-response","102","413440","0.0-6.0-5.13","2691503","co33928","norming","","","","","","",""
"2892","","","post_reveal_questions","survey-likert","103","416335","0.0-6.0-6.13","2691503","co33928","norming","","","{""aha"":4}","[0]","../img/tt/1046tt.jpg","",""
"null","<div style=""font-size:60px;""> </div>","null","fixation","html-keyboard-response","104","416546","0.0-6.0-0.14","2691503","co33928","norming","","","","","","",""
"null","../img/tt/1070tt.jpg","null","mooney1","image-keyboard-response","105","419550","0.0-6.0-1.14","2691503","co33928","norming","","","","","","",""
"4945","","","post_mooney1_questions","survey-likert","106","424498","0.0-6.0-2.14","2691503","co33928","norming","","","{""curiosity"":3,""confidence"":2}","[0,1]","../img/tt/1070tt.jpg","",""
"1972","","","recognition","survey-text","107","426476","0.0-6.0-3.14","2691503","co33928","norming","","","{""guess"":""taart""}","","../img/tt/1070tt.jpg","",""
"null","../img/gs/1070gs.jpg","null","reveal","image-keyboard-response","108","428480","0.0-6.0-4.14","2691503","co33928","norming","","","","","","",""
"null","../img/tt/1070tt.jpg","null","mooney2","image-keyboard-response","109","430487","0.0-6.0-5.14","2691503","co33928","norming","","","","","","",""
"2868","","","post_reveal_questions","survey-likert","110","433357","0.0-6.0-6.14","2691503","co33928","norming","","","{""aha"":1}","[0]","../img/tt/1070tt.jpg","",""
"null","<div style=""font-size:60px;""> </div>","null","fixation","html-keyboard-response","111","433569","0.0-6.0-0.15","2691503","co33928","norming","","","","","","",""
"null","../img/tt/078tt.jpg","null","mooney1","image-keyboard-response","112","436583","0.0-6.0-1.15","2691503","co33928","norming","","","","","","",""
"4250","","","post_mooney1_questions","survey-likert","113","440834","0.0-6.0-2.15","2691503","co33928","norming","","","{""curiosity"":2,""confidence"":3}","[0,1]","../img/tt/078tt.jpg","",""
"2339","","","recognition","survey-text","114","443179","0.0-6.0-3.15","2691503","co33928","norming","","","{""guess"":""druiven""}","","../img/tt/078tt.jpg","",""
"null","../img/gs/078gs.jpg","null","reveal","image-keyboard-response","115","445190","0.0-6.0-4.15","2691503","co33928","norming","","","","","","",""
"null","../img/tt/078tt.jpg","null","mooney2","image-keyboard-response","116","447200","0.0-6.0-5.15","2691503","co33928","norming","","","","","","",""
"4940","","","post_reveal_questions","survey-likert","117","452143","0.0-6.0-6.15","2691503","co33928","norming","","","{""aha"":1}","[0]","../img/tt/078tt.jpg","",""
"null","<div style=""font-size:60px;""> </div>","null","fixation","html-keyboard-response","118","452358","0.0-6.0-0.16","2691503","co33928","norming","","","","","","",""
"null","../img/tt/046tt.jpg","null","mooney1","image-keyboard-response","119","455366","0.0-6.0-1.16","2691503","co33928","norming","","","","","","",""
"6321","","","post_mooney1_questions","survey-likert","120","461690","0.0-6.0-2.16","2691503","co33928","norming","","","{""curiosity"":5,""confidence"":1}","[0,1]","../img/tt/046tt.jpg","",""
"2144","","","recognition","survey-text","121","463839","0.0-6.0-3.16","2691503","co33928","norming","","","{""guess"":""tong""}","","../img/tt/046tt.jpg","",""
"null","../img/gs/046gs.jpg","null","reveal","image-keyboard-response","122","465850","0.0-6.0-4.16","2691503","co33928","norming","","","","","","",""
"null","../img/tt/046tt.jpg","null","mooney2","image-keyboard-response","123","467860","0.0-6.0-5.16","2691503","co33928","norming","","","","","","",""
"3823","","","post_reveal_questions","survey-likert","124","471685","0.0-6.0-6.16","2691503","co33928","norming","","","{""aha"":4}","[0]","../img/tt/046tt.jpg","",""
"null","<div style=""font-size:60px;""> </div>","null","fixation","html-keyboard-response","125","471895","0.0-6.0-0.17","2691503","co33928","norming","","","","","","",""
"null","../img/tt/1125tt.jpg","null","mooney1","image-keyboard-response","126","474910","0.0-6.0-1.17","2691503","co33928","norming","","","","","","",""
"5971","","","post_mooney1_questions","survey-likert","127","480883","0.0-6.0-2.17","2691503","co33928","norming","","","{""curiosity"":3,""confidence"":1}","[0,1]","../img/tt/1125tt.jpg","",""
"2199","","","recognition","survey-text","128","483088","0.0-6.0-3.17","2691503","co33928","norming","","","{""guess"":""voetbal""}","","../img/tt/1125tt.jpg","",""
"null","../img/gs/1125gs.jpg","null","reveal","image-keyboard-response","129","485100","0.0-6.0-4.17","2691503","co33928","norming","","","","","","",""
"null","../img/tt/1125tt.jpg","null","mooney2","image-keyboard-response","130","487120","0.0-6.0-5.17","2691503","co33928","norming","","","","","","",""
"4916","","","post_reveal_questions","survey-likert","131","492038","0.0-6.0-6.17","2691503","co33928","norming","","","{""aha"":3}","[0]","../img/tt/1125tt.jpg","",""
"null","<div style=""font-size:60px;""> </div>","null","fixation","html-keyboard-response","132","492250","0.0-6.0-0.18","2691503","co33928","norming","","","","","","",""
"null","../img/tt/007tt.jpg","null","mooney1","image-keyboard-response","133","495270","0.0-6.0-1.18","2691503","co33928","norming","","","","","","",""
"8275","","","post_mooney1_questions","survey-likert","134","503549","0.0-6.0-2.18","2691503","co33928","norming","","","{""curiosity"":4,""confidence"":1}","[0,1]","../img/tt/007tt.jpg","",""
"3738","","","recognition","survey-text","135","507292","0.0-6.0-3.18","2691503","co33928","norming","","","{""guess"":""paard""}","","../img/tt/007tt.jpg","",""
"null","../img/gs/007gs.jpg","null","reveal","image-keyboard-response","136","509311","0.0-6.0-4.18","2691503","co33928","norming","","","","","","",""
"null","../img/tt/007tt.jpg","null","mooney2","image-keyboard-response","137","511320","0.0-6.0-5.18","2691503","co33928","norming","","","","","","",""
"3834","","","post_reveal_questions","survey-likert","138","515156","0.0-6.0-6.18","2691503","co33928","norming","","","{""aha"":5}","[0]","../img/tt/007tt.jpg","",""
"null","<div style=""font-size:60px;""> </div>","null","fixation","html-keyboard-response","139","515370","0.0-6.0-0.19","2691503","co33928","norming","","","","","","",""
"null","../img/tt/184tt.jpg","null","mooney1","image-keyboard-response","140","518380","0.0-6.0-1.19","2691503","co33928","norming","","","","","","",""
"4919","","","post_mooney1_questions","survey-likert","141","523301","0.0-6.0-2.19","2691503","co33928","norming","","","{""curiosity"":4,""confidence"":1}","[0,1]","../img/tt/184tt.jpg","",""
"2056","","","recognition","survey-text","142","525363","0.0-6.0-3.19","2691503","co33928","norming","","","{""guess"":""dessert""}","","../img/tt/184tt.jpg","",""
"null","../img/gs/184gs.jpg","null","reveal","image-keyboard-response","143","527380","0.0-6.0-4.19","2691503","co33928","norming","","","","","","",""
"null","../img/tt/184tt.jpg","null","mooney2","image-keyboard-response","144","529399","0.0-6.0-5.19","2691503","co33928","norming","","","","","","",""
"3811","","","post_reveal_questions","survey-likert","145","533213","0.0-6.0-6.19","2691503","co33928","norming","","","{""aha"":3}","[0]","../img/tt/184tt.jpg","",""
"null","<div style=""font-size:60px;""> </div>","null","fixation","html-keyboard-response","146","533425","0.0-6.0-0.20","2691503","co33928","norming","","","","","","",""
"null","../img/tt/085tt.jpg","null","mooney1","image-keyboard-response","147","536430","0.0-6.0-1.20","2691503","co33928","norming","","","","","","",""
"8403","","","post_mooney1_questions","survey-likert","148","544834","0.0-6.0-2.20","2691503","co33928","norming","","","{""curiosity"":3,""confidence"":1}","[0,1]","../img/tt/085tt.jpg","",""
"1886","","","recognition","survey-text","149","546726","0.0-6.0-3.20","2691503","co33928","norming","","","{""guess"":""slang""}","","../img/tt/085tt.jpg","",""
"null","../img/gs/085gs.jpg","null","reveal","image-keyboard-response","150","548740","0.0-6.0-4.20","2691503","co33928","norming","","","","","","",""
"null","../img/tt/085tt.jpg","null","mooney2","image-keyboard-response","151","550759","0.0-6.0-5.20","2691503","co33928","norming","","","","","","",""
"4171","","","post_reveal_questions","survey-likert","152","554933","0.0-6.0-6.20","2691503","co33928","norming","","","{""aha"":5}","[0]","../img/tt/085tt.jpg","",""
"null","<div style=""font-size:60px;""> </div>","null","fixation","html-keyboard-response","153","555145","0.0-6.0-0.21","2691503","co33928","norming","","","","","","",""
"null","../img/tt/307tt.jpg","null","mooney1","image-keyboard-response","154","558156","0.0-6.0-1.21","2691503","co33928","norming","","","","","","",""
"6619","","","post_mooney1_questions","survey-likert","155","564775","0.0-6.0-2.21","2691503","co33928","norming","","","{""curiosity"":4,""confidence"":2}","[0,1]","../img/tt/307tt.jpg","",""
"4915","","","recognition","survey-text","156","569697","0.0-6.0-3.21","2691503","co33928","norming","","","{""guess"":""schildpad""}","","../img/tt/307tt.jpg","",""
"null","../img/gs/307gs.jpg","null","reveal","image-keyboard-response","157","571700","0.0-6.0-4.21","2691503","co33928","norming","","","","","","",""
"null","../img/tt/307tt.jpg","null","mooney2","image-keyboard-response","158","573710","0.0-6.0-5.21","2691503","co33928","norming","","","","","","",""
"3870","","","post_reveal_questions","survey-likert","159","577582","0.0-6.0-6.21","2691503","co33928","norming","","","{""aha"":3}","[0]","../img/tt/307tt.jpg","",""
"null","<div style=""font-size:60px;""> </div>","null","fixation","html-keyboard-response","160","577797","0.0-6.0-0.22","2691503","co33928","norming","","","","","","",""
"null","../img/tt/1242tt.jpg","null","mooney1","image-keyboard-response","161","580800","0.0-6.0-1.22","2691503","co33928","norming","","","","","","",""
"5511","","","post_mooney1_questions","survey-likert","162","586314","0.0-6.0-2.22","2691503","co33928","norming","","","{""curiosity"":5,""confidence"":0}","[0,1]","../img/tt/1242tt.jpg","",""
"1879","","","recognition","survey-text","163","588200","0.0-6.0-3.22","2691503","co33928","norming","","","{""guess"":""paard""}","","../img/tt/1242tt.jpg","",""
"null","../img/gs/1242gs.jpg","null","reveal","image-keyboard-response","164","590220","0.0-6.0-4.22","2691503","co33928","norming","","","","","","",""
"null","../img/tt/1242tt.jpg","null","mooney2","image-keyboard-response","165","592229","0.0-6.0-5.22","2691503","co33928","norming","","","","","","",""
"3254","","","post_reveal_questions","survey-likert","166","595486","0.0-6.0-6.22","2691503","co33928","norming","","","{""aha"":5}","[0]","../img/tt/1242tt.jpg","",""
"null","<div style=""font-size:60px;""> </div>","null","fixation","html-keyboard-response","167","595702","0.0-6.0-0.23","2691503","co33928","norming","","","","","","",""
"null","../img/tt/270tt.jpg","null","mooney1","image-keyboard-response","168","598710","0.0-6.0-1.23","2691503","co33928","norming","","","","","","",""
"4620","","","post_mooney1_questions","survey-likert","169","603332","0.0-6.0-2.23","2691503","co33928","norming","","","{""curiosity"":5,""confidence"":0}","[0,1]","../img/tt/270tt.jpg","",""
"3105","","","recognition","survey-text","170","606442","0.0-6.0-3.23","2691503","co33928","norming","","","{""guess"":""schilderij""}","","../img/tt/270tt.jpg","",""
"null","../img/gs/270gs.jpg","null","reveal","image-keyboard-response","171","608460","0.0-6.0-4.23","2691503","co33928","norming","","","","","","",""
"null","../img/tt/270tt.jpg","null","mooney2","image-keyboard-response","172","610461","0.0-6.0-5.23","2691503","co33928","norming","","","","","","",""
"2756","","","post_reveal_questions","survey-likert","173","613219","0.0-6.0-6.23","2691503","co33928","norming","","","{""aha"":5}","[0]","../img/tt/270tt.jpg","",""
"null","<div style=""font-size:60px;""> </div>","null","fixation","html-keyboard-response","174","613426","0.0-6.0-0.24","2691503","co33928","norming","","","","","","",""
"null","../img/tt/1276tt.jpg","null","mooney1","image-keyboard-response","175","616439","0.0-6.0-1.24","2691503","co33928","norming","","","","","","",""
"5078","","","post_mooney1_questions","survey-likert","176","621521","0.0-6.0-2.24","2691503","co33928","norming","","","{""curiosity"":6,""confidence"":0}","[0,1]","../img/tt/1276tt.jpg","",""
"1537","","","recognition","survey-text","177","623064","0.0-6.0-3.24","2691503","co33928","norming","","","{""guess"":""melk""}","","../img/tt/1276tt.jpg","",""
"null","../img/gs/1276gs.jpg","null","reveal","image-keyboard-response","178","625080","0.0-6.0-4.24","2691503","co33928","norming","","","","","","",""
"null","../img/tt/1276tt.jpg","null","mooney2","image-keyboard-response","179","627090","0.0-6.0-5.24","2691503","co33928","norming","","","","","","",""
"2927","","","post_reveal_questions","survey-likert","180","630020","0.0-6.0-6.24","2691503","co33928","norming","","","{""aha"":5}","[0]","../img/tt/1276tt.jpg","",""
"null","<div style=""font-size:60px;""> </div>","null","fixation","html-keyboard-response","181","630232","0.0-6.0-0.25","2691503","co33928","norming","","","","","","",""
"null","../img/tt/1269tt.jpg","null","mooney1","image-keyboard-response","182","633249","0.0-6.0-1.25","2691503","co33928","norming","","","","","","",""
"7744","","","post_mooney1_questions","survey-likert","183","640995","0.0-6.0-2.25","2691503","co33928","norming","","","{""curiosity"":4,""confidence"":1}","[0,1]","../img/tt/1269tt.jpg","",""
"1287","","","recognition","survey-text","184","642288","0.0-6.0-3.25","2691503","co33928","norming","","","{""guess"":""vos""}","","../img/tt/1269tt.jpg","",""
"null","../img/gs/1269gs.jpg","null","reveal","image-keyboard-response","185","644298","0.0-6.0-4.25","2691503","co33928","norming","","","","","","",""
"null","../img/tt/1269tt.jpg","null","mooney2","image-keyboard-response","186","646307","0.0-6.0-5.25","2691503","co33928","norming","","","","","","",""
"3679","","","post_reveal_questions","survey-likert","187","649988","0.0-6.0-6.25","2691503","co33928","norming","","","{""aha"":4}","[0]","../img/tt/1269tt.jpg","",""
"null","<div style=""font-size:60px;""> </div>","null","fixation","html-keyboard-response","188","650197","0.0-6.0-0.26","2691503","co33928","norming","","","","","","",""
"null","../img/tt/319tt.jpg","null","mooney1","image-keyboard-response","189","653211","0.0-6.0-1.26","2691503","co33928","norming","","","","","","",""
"4808","","","post_mooney1_questions","survey-likert","190","658020","0.0-6.0-2.26","2691503","co33928","norming","","","{""curiosity"":4,""confidence"":1}","[0,1]","../img/tt/319tt.jpg","",""
"958","","","recognition","survey-text","191","658983","0.0-6.0-3.26","2691503","co33928","norming","","","{""guess"":""hert""}","","../img/tt/319tt.jpg","",""
"null","../img/gs/319gs.jpg","null","reveal","image-keyboard-response","192","660990","0.0-6.0-4.26","2691503","co33928","norming","","","","","","",""
"null","../img/tt/319tt.jpg","null","mooney2","image-keyboard-response","193","663010","0.0-6.0-5.26","2691503","co33928","norming","","","","","","",""
"4231","","","post_reveal_questions","survey-likert","194","667243","0.0-6.0-6.26","2691503","co33928","norming","","","{""aha"":5}","[0]","../img/tt/319tt.jpg","",""
"null","<div style=""font-size:60px;""> </div>","null","fixation","html-keyboard-response","195","667460","0.0-6.0-0.27","2691503","co33928","norming","","","","","","",""
"null","../img/tt/1199tt.jpg","null","mooney1","image-keyboard-response","196","670470","0.0-6.0-1.27","2691503","co33928","norming","","","","","","",""
"5612","","","post_mooney1_questions","survey-likert","197","676084","0.0-6.0-2.27","2691503","co33928","norming","","","{""curiosity"":5,""confidence"":0}","[0,1]","../img/tt/1199tt.jpg","",""
"8026","","","recognition","survey-text","198","684116","0.0-6.0-3.27","2691503","co33928","norming","","","{""guess"":""waterbak""}","","../img/tt/1199tt.jpg","",""
"null","../img/gs/1199gs.jpg","null","reveal","image-keyboard-response","199","686130","0.0-6.0-4.27","2691503","co33928","norming","","","","","","",""
"null","../img/tt/1199tt.jpg","null","mooney2","image-keyboard-response","200","688140","0.0-6.0-5.27","2691503","co33928","norming","","","","","","",""
"3972","","","post_reveal_questions","survey-likert","201","692113","0.0-6.0-6.27","2691503","co33928","norming","","","{""aha"":6}","[0]","../img/tt/1199tt.jpg","",""
"null","<div style=""font-size:60px;""> </div>","null","fixation","html-keyboard-response","202","692328","0.0-6.0-0.28","2691503","co33928","norming","","","","","","",""
"null","../img/tt/412tt.jpg","null","mooney1","image-keyboard-response","203","695340","0.0-6.0-1.28","2691503","co33928","norming","","","","","","",""
"5874","","","post_mooney1_questions","survey-likert","204","701215","0.0-6.0-2.28","2691503","co33928","norming","","","{""curiosity"":4,""confidence"":0}","[0,1]","../img/tt/412tt.jpg","",""
"2051","","","recognition","survey-text","205","703273","0.0-6.0-3.28","2691503","co33928","norming","","","{""guess"":""koe""}","","../img/tt/412tt.jpg","",""
"null","../img/gs/412gs.jpg","null","reveal","image-keyboard-response","206","705289","0.0-6.0-4.28","2691503","co33928","norming","","","","","","",""
"null","../img/tt/412tt.jpg","null","mooney2","image-keyboard-response","207","707300","0.0-6.0-5.28","2691503","co33928","norming","","","","","","",""
"4119","","","post_reveal_questions","survey-likert","208","711421","0.0-6.0-6.28","2691503","co33928","norming","","","{""aha"":4}","[0]","../img/tt/412tt.jpg","",""
"null","<div style=""font-size:60px;""> </div>","null","fixation","html-keyboard-response","209","711632","0.0-6.0-0.29","2691503","co33928","norming","","","","","","",""
"null","../img/tt/1241tt.jpg","null","mooney1","image-keyboard-response","210","714639","0.0-6.0-1.29","2691503","co33928","norming","","","","","","",""
"4247","","","post_mooney1_questions","survey-likert","211","718889","0.0-6.0-2.29","2691503","co33928","norming","","","{""curiosity"":4,""confidence"":1}","[0,1]","../img/tt/1241tt.jpg","",""
"2288","","","recognition","survey-text","212","721183","0.0-6.0-3.29","2691503","co33928","norming","","","{""guess"":""nijlpaard""}","","../img/tt/1241tt.jpg","",""
"null","../img/gs/1241gs.jpg","null","reveal","image-keyboard-response","213","723190","0.0-6.0-4.29","2691503","co33928","norming","","","","","","",""
"null","../img/tt/1241tt.jpg","null","mooney2","image-keyboard-response","214","725209","0.0-6.0-5.29","2691503","co33928","norming","","","","","","",""
"3798","","","post_reveal_questions","survey-likert","215","729010","0.0-6.0-6.29","2691503","co33928","norming","","","{""aha"":4}","[0]","../img/tt/1241tt.jpg","",""
"null","<div style=""font-size:60px;""> </div>","null","fixation","html-keyboard-response","216","729221","0.0-6.0-0.30","2691503","co33928","norming","","","","","","",""
"null","../img/tt/1148tt.jpg","null","mooney1","image-keyboard-response","217","732230","0.0-6.0-1.30","2691503","co33928","norming","","","","","","",""
"4679","","","post_mooney1_questions","survey-likert","218","736911","0.0-6.0-2.30","2691503","co33928","norming","","","{""curiosity"":5,""confidence"":1}","[0,1]","../img/tt/1148tt.jpg","",""
"5101","","","recognition","survey-text","219","742016","0.0-6.0-3.30","2691503","co33928","norming","","","{""guess"":""sport""}","","../img/tt/1148tt.jpg","",""
"null","../img/gs/1148gs.jpg","null","reveal","image-keyboard-response","220","744030","0.0-6.0-4.30","2691503","co33928","norming","","","","","","",""
"null","../img/tt/1148tt.jpg","null","mooney2","image-keyboard-response","221","746039","0.0-6.0-5.30","2691503","co33928","norming","","","","","","",""
"2971","","","post_reveal_questions","survey-likert","222","749012","0.0-6.0-6.30","2691503","co33928","norming","","","{""aha"":4}","[0]","../img/tt/1148tt.jpg","",""
"null","<div style=""font-size:60px;""> </div>","null","fixation","html-keyboard-response","223","749226","0.0-6.0-0.31","2691503","co33928","norming","","","","","","",""
"null","../img/tt/008tt.jpg","null","mooney1","image-keyboard-response","224","752230","0.0-6.0-1.31","2691503","co33928","norming","","","","","","",""
"7150","","","post_mooney1_questions","survey-likert","225","759383","0.0-6.0-2.31","2691503","co33928","norming","","","{""curiosity"":6,""confidence"":0}","[0,1]","../img/tt/008tt.jpg","",""
"1325","","","recognition","survey-text","226","760713","0.0-6.0-3.31","2691503","co33928","norming","","","{""guess"":""slang""}","","../img/tt/008tt.jpg","",""
"null","../img/gs/008gs.jpg","null","reveal","image-keyboard-response","227","762730","0.0-6.0-4.31","2691503","co33928","norming","","","","","","",""
"null","../img/tt/008tt.jpg","null","mooney2","image-keyboard-response","228","764740","0.0-6.0-5.31","2691503","co33928","norming","","","","","","",""
"2294","","","post_reveal_questions","survey-likert","229","767034","0.0-6.0-6.31","2691503","co33928","norming","","","{""aha"":5}","[0]","../img/tt/008tt.jpg","",""
"null","<div style=""font-size:60px;""> </div>","null","fixation","html-keyboard-response","230","767249","0.0-6.0-0.32","2691503","co33928","norming","","","","","","",""
"null","../img/tt/1270tt.jpg","null","mooney1","image-keyboard-response","231","770269","0.0-6.0-1.32","2691503","co33928","norming","","","","","","",""
"5525","","","post_mooney1_questions","survey-likert","232","775798","0.0-6.0-2.32","2691503","co33928","norming","","","{""curiosity"":4,""confidence"":0}","[0,1]","../img/tt/1270tt.jpg","",""
"1880","","","recognition","survey-text","233","777683","0.0-6.0-3.32","2691503","co33928","norming","","","{""guess"":""beest""}","","../img/tt/1270tt.jpg","",""
"null","../img/gs/1270gs.jpg","null","reveal","image-keyboard-response","234","779690","0.0-6.0-4.32","2691503","co33928","norming","","","","","","",""
"null","../img/tt/1270tt.jpg","null","mooney2","image-keyboard-response","235","781710","0.0-6.0-5.32","2691503","co33928","norming","","","","","","",""
"3263","","","post_reveal_questions","survey-likert","236","784974","0.0-6.0-6.32","2691503","co33928","norming","","","{""aha"":5}","[0]","../img/tt/1270tt.jpg","",""
"null","<div style=""font-size:60px;""> </div>","null","fixation","html-keyboard-response","237","785188","0.0-6.0-0.33","2691503","co33928","norming","","","","","","",""
"null","../img/tt/1254tt.jpg","null","mooney1","image-keyboard-response","238","788190","0.0-6.0-1.33","2691503","co33928","norming","","","","","","",""
"4695","","","post_mooney1_questions","survey-likert","239","792887","0.0-6.0-2.33","2691503","co33928","norming","","","{""curiosity"":4,""confidence"":1}","[0,1]","../img/tt/1254tt.jpg","",""
"2744","","","recognition","survey-text","240","795635","0.0-6.0-3.33","2691503","co33928","norming","","","{""guess"":""konijn""}","","../img/tt/1254tt.jpg","",""
"null","../img/gs/1254gs.jpg","null","reveal","image-keyboard-response","241","797650","0.0-6.0-4.33","2691503","co33928","norming","","","","","","",""
"null","../img/tt/1254tt.jpg","null","mooney2","image-keyboard-response","242","799654","0.0-6.0-5.33","2691503","co33928","norming","","","","","","",""
"3190","","","post_reveal_questions","survey-likert","243","802846","0.0-6.0-6.33","2691503","co33928","norming","","","{""aha"":2}","[0]","../img/tt/1254tt.jpg","",""
"null","<div style=""font-size:60px;""> </div>","null","fixation","html-keyboard-response","244","803060","0.0-6.0-0.34","2691503","co33928","norming","","","","","","",""
"null","../img/tt/1175tt.jpg","null","mooney1","image-keyboard-response","245","806070","0.0-6.0-1.34","2691503","co33928","norming","","","","","","",""
"6766","","","post_mooney1_questions","survey-likert","246","812837","0.0-6.0-2.34","2691503","co33928","norming","","","{""curiosity"":3,""confidence"":2}","[0,1]","../img/tt/1175tt.jpg","",""
"2407","","","recognition","survey-text","247","815250","0.0-6.0-3.34","2691503","co33928","norming","","","{""guess"":""volleybal""}","","../img/tt/1175tt.jpg","",""
"null","../img/gs/1175gs.jpg","null","reveal","image-keyboard-response","248","817260","0.0-6.0-4.34","2691503","co33928","norming","","","","","","",""
"null","../img/tt/1175tt.jpg","null","mooney2","image-keyboard-response","249","819280","0.0-6.0-5.34","2691503","co33928","norming","","","","","","",""
"3037","","","post_reveal_questions","survey-likert","250","822320","0.0-6.0-6.34","2691503","co33928","norming","","","{""aha"":4}","[0]","../img/tt/1175tt.jpg","",""
"null","<div style=""font-size:60px;""> </div>","null","fixation","html-keyboard-response","251","822531","0.0-6.0-0.35","2691503","co33928","norming","","","","","","",""
"null","../img/tt/456tt.jpg","null","mooney1","image-keyboard-response","252","825539","0.0-6.0-1.35","2691503","co33928","norming","","","","","","",""
"5903","","","post_mooney1_questions","survey-likert","253","831444","0.0-6.0-2.35","2691503","co33928","norming","","","{""curiosity"":5,""confidence"":1}","[0,1]","../img/tt/456tt.jpg","",""
"5910","","","recognition","survey-text","254","837361","0.0-6.0-3.35","2691503","co33928","norming","","","{""guess"":""krokodil""}","","../img/tt/456tt.jpg","",""
"null","../img/gs/456gs.jpg","null","reveal","image-keyboard-response","255","839380","0.0-6.0-4.35","2691503","co33928","norming","","","","","","",""
"null","../img/tt/456tt.jpg","null","mooney2","image-keyboard-response","256","841399","0.0-6.0-5.35","2691503","co33928","norming","","","","","","",""
"4471","","","post_reveal_questions","survey-likert","257","845873","0.0-6.0-6.35","2691503","co33928","norming","","","{""aha"":5}","[0]","../img/tt/456tt.jpg","",""
"null","<div style=""font-size:60px;""> </div>","null","fixation","html-keyboard-response","258","846082","0.0-6.0-0.36","2691503","co33928","norming","","","","","","",""
"null","../img/tt/1188tt.jpg","null","mooney1","image-keyboard-response","259","849090","0.0-6.0-1.36","2691503","co33928","norming","","","","","","",""
"6914","","","post_mooney1_questions","survey-likert","260","856008","0.0-6.0-2.36","2691503","co33928","norming","","","{""curiosity"":4,""confidence"":0}","[0,1]","../img/tt/1188tt.jpg","",""
"2170","","","recognition","survey-text","261","858184","0.0-6.0-3.36","2691503","co33928","norming","","","{""guess"":""beest""}","","../img/tt/1188tt.jpg","",""
"null","../img/gs/1188gs.jpg","null","reveal","image-keyboard-response","262","860190","0.0-6.0-4.36","2691503","co33928","norming","","","","","","",""
"null","../img/tt/1188tt.jpg","null","mooney2","image-keyboard-response","263","862210","0.0-6.0-5.36","2691503","co33928","norming","","","","","","",""
"4480","","","post_reveal_questions","survey-likert","264","866692","0.0-6.0-6.36","2691503","co33928","norming","","","{""aha"":5}","[0]","../img/tt/1188tt.jpg","",""
"null","<div style=""font-size:60px;""> </div>","null","fixation","html-keyboard-response","265","866903","0.0-6.0-0.37","2691503","co33928","norming","","","","","","",""
"null","../img/tt/468tt.jpg","null","mooney1","image-keyboard-response","266","869919","0.0-6.0-1.37","2691503","co33928","norming","","","","","","",""
"6611","","","post_mooney1_questions","survey-likert","267","876532","0.0-6.0-2.37","2691503","co33928","norming","","","{""curiosity"":4,""confidence"":1}","[0,1]","../img/tt/468tt.jpg","",""
"2604","","","recognition","survey-text","268","879141","0.0-6.0-3.37","2691503","co33928","norming","","","{""guess"":""hoed""}","","../img/tt/468tt.jpg","",""
"null","../img/gs/468gs.jpg","null","reveal","image-keyboard-response","269","881160","0.0-6.0-4.37","2691503","co33928","norming","","","","","","",""
"null","../img/tt/468tt.jpg","null","mooney2","image-keyboard-response","270","883169","0.0-6.0-5.37","2691503","co33928","norming","","","","","","",""
"5391","","","post_reveal_questions","survey-likert","271","888562","0.0-6.0-6.37","2691503","co33928","norming","","","{""aha"":5}","[0]","../img/tt/468tt.jpg","",""
"null","<div style=""font-size:60px;""> </div>","null","fixation","html-keyboard-response","272","888774","0.0-6.0-0.38","2691503","co33928","norming","","","","","","",""
"null","../img/tt/315tt.jpg","null","mooney1","image-keyboard-response","273","891790","0.0-6.0-1.38","2691503","co33928","norming","","","","","","",""
"4264","","","post_mooney1_questions","survey-likert","274","896057","0.0-6.0-2.38","2691503","co33928","norming","","","{""curiosity"":5,""confidence"":0}","[0,1]","../img/tt/315tt.jpg","",""
"5321","","","recognition","survey-text","275","901383","0.0-6.0-3.38","2691503","co33928","norming","","","{""guess"":""instrument""}","","../img/tt/315tt.jpg","",""
"null","../img/gs/315gs.jpg","null","reveal","image-keyboard-response","276","903390","0.0-6.0-4.38","2691503","co33928","norming","","","","","","",""
"null","../img/tt/315tt.jpg","null","mooney2","image-keyboard-response","277","905399","0.0-6.0-5.38","2691503","co33928","norming","","","","","","",""
"3137","","","post_reveal_questions","survey-likert","278","908539","0.0-6.0-6.38","2691503","co33928","norming","","","{""aha"":6}","[0]","../img/tt/315tt.jpg","",""
"null","<div style=""font-size:60px;""> </div>","null","fixation","html-keyboard-response","279","908745","0.0-6.0-0.39","2691503","co33928","norming","","","","","","",""
"null","../img/tt/440tt.jpg","null","mooney1","image-keyboard-response","280","911759","0.0-6.0-1.39","2691503","co33928","norming","","","","","","",""
"6293","","","post_mooney1_questions","survey-likert","281","918054","0.0-6.0-2.39","2691503","co33928","norming","","","{""curiosity"":4,""confidence"":1}","[0,1]","../img/tt/440tt.jpg","",""
"1609","","","recognition","survey-text","282","919670","0.0-6.0-3.39","2691503","co33928","norming","","","{""guess"":""sport""}","","../img/tt/440tt.jpg","",""
"null","../img/gs/440gs.jpg","null","reveal","image-keyboard-response","283","921679","0.0-6.0-4.39","2691503","co33928","norming","","","","","","",""
"null","../img/tt/440tt.jpg","null","mooney2","image-keyboard-response","284","923690","0.0-6.0-5.39","2691503","co33928","norming","","","","","","",""
"3212","","","post_reveal_questions","survey-likert","285","926905","0.0-6.0-6.39","2691503","co33928","norming","","","{""aha"":5}","[0]","../img/tt/440tt.jpg","",""
"null","<div style=""font-size:60px;""> </div>","null","fixation","html-keyboard-response","286","927117","0.0-6.0-0.40","2691503","co33928","norming","","","","","","",""
"null","../img/tt/477tt.jpg","null","mooney1","image-keyboard-response","287","930130","0.0-6.0-1.40","2691503","co33928","norming","","","","","","",""
"9515","","","post_mooney1_questions","survey-likert","288","939646","0.0-6.0-2.40","2691503","co33928","norming","","","{""curiosity"":3,""confidence"":1}","[0,1]","../img/tt/477tt.jpg","",""
"1023","","","recognition","survey-text","289","940676","0.0-6.0-3.40","2691503","co33928","norming","","","{""guess"":""bos""}","","../img/tt/477tt.jpg","",""
"null","../img/gs/477gs.jpg","null","reveal","image-keyboard-response","290","942680","0.0-6.0-4.40","2691503","co33928","norming","","","","","","",""
"null","../img/tt/477tt.jpg","null","mooney2","image-keyboard-response","291","944699","0.0-6.0-5.40","2691503","co33928","norming","","","","","","",""
"2404","","","post_reveal_questions","survey-likert","292","947105","0.0-6.0-6.40","2691503","co33928","norming","","","{""aha"":4}","[0]","../img/tt/477tt.jpg","",""
"null","<div style=""font-size:60px;""> </div>","null","fixation","html-keyboard-response","293","947321","0.0-6.0-0.41","2691503","co33928","norming","","","","","","",""
"null","../img/tt/063tt.jpg","null","mooney1","image-keyboard-response","294","950339","0.0-6.0-1.41","2691503","co33928","norming","","","","","","",""
"5856","","","post_mooney1_questions","survey-likert","295","956199","0.0-6.0-2.41","2691503","co33928","norming","","","{""curiosity"":3,""confidence"":2}","[0,1]","../img/tt/063tt.jpg","",""
"4882","","","recognition","survey-text","296","961085","0.0-6.0-3.41","2691503","co33928","norming","","","{""guess"":""accordeon""}","","../img/tt/063tt.jpg","",""
"null","../img/gs/063gs.jpg","null","reveal","image-keyboard-response","297","963092","0.0-6.0-4.41","2691503","co33928","norming","","","","","","",""
"null","../img/tt/063tt.jpg","null","mooney2","image-keyboard-response","298","965099","0.0-6.0-5.41","2691503","co33928","norming","","","","","","",""
"4105","","","post_reveal_questions","survey-likert","299","969205","0.0-6.0-6.41","2691503","co33928","norming","","","{""aha"":1}","[0]","../img/tt/063tt.jpg","",""
"null","<div style=""font-size:60px;""> </div>","null","fixation","html-keyboard-response","300","969424","0.0-6.0-0.42","2691503","co33928","norming","","","","","","",""
"null","../img/tt/1043tt.jpg","null","mooney1","image-keyboard-response","301","972440","0.0-6.0-1.42","2691503","co33928","norming","","","","","","",""
"7607","","","post_mooney1_questions","survey-likert","302","980049","0.0-6.0-2.42","2691503","co33928","norming","","","{""curiosity"":3,""confidence"":1}","[0,1]","../img/tt/1043tt.jpg","",""
"1528","","","recognition","survey-text","303","981584","0.0-6.0-3.42","2691503","co33928","norming","","","{""guess"":""banaan""}","","../img/tt/1043tt.jpg","",""
"null","../img/gs/1043gs.jpg","null","reveal","image-keyboard-response","304","983590","0.0-6.0-4.42","2691503","co33928","norming","","","","","","",""
"null","../img/tt/1043tt.jpg","null","mooney2","image-keyboard-response","305","985608","0.0-6.0-5.42","2691503","co33928","norming","","","","","","",""
"3155","","","post_reveal_questions","survey-likert","306","988767","0.0-6.0-6.42","2691503","co33928","norming","","","{""aha"":5}","[0]","../img/tt/1043tt.jpg","",""
"null","<div style=""font-size:60px;""> </div>","null","fixation","html-keyboard-response","307","988979","0.0-6.0-0.43","2691503","co33928","norming","","","","","","",""
"null","../img/tt/091tt.jpg","null","mooney1","image-keyboard-response","308","991999","0.0-6.0-1.43","2691503","co33928","norming","","","","","","",""
"7059","","","post_mooney1_questions","survey-likert","309","999061","0.0-6.0-2.43","2691503","co33928","norming","","","{""curiosity"":2,""confidence"":0}","[0,1]","../img/tt/091tt.jpg","",""
"2235","","","recognition","survey-text","310","1001303","0.0-6.0-3.43","2691503","co33928","norming","","","{""guess"":""beest""}","","../img/tt/091tt.jpg","",""
"null","../img/gs/091gs.jpg","null","reveal","image-keyboard-response","311","1003309","0.0-6.0-4.43","2691503","co33928","norming","","","","","","",""
"null","../img/tt/091tt.jpg","null","mooney2","image-keyboard-response","312","1005319","0.0-6.0-5.43","2691503","co33928","norming","","","","","","",""
"2633","","","post_reveal_questions","survey-likert","313","1007954","0.0-6.0-6.43","2691503","co33928","norming","","","{""aha"":4}","[0]","../img/tt/091tt.jpg","",""
"null","<div style=""font-size:60px;""> </div>","null","fixation","html-keyboard-response","314","1008168","0.0-6.0-0.44","2691503","co33928","norming","","","","","","",""
"null","../img/tt/1260tt.jpg","null","mooney1","image-keyboard-response","315","1011173","0.0-6.0-1.44","2691503","co33928","norming","","","","","","",""
"14369","","","post_mooney1_questions","survey-likert","316","1025544","0.0-6.0-2.44","2691503","co33928","norming","","","{""curiosity"":2,""confidence"":0}","[0,1]","../img/tt/1260tt.jpg","",""
"4334","","","recognition","survey-text","317","1029883","0.0-6.0-3.44","2691503","co33928","norming","","","{""guess"":""beest""}","","../img/tt/1260tt.jpg","",""
"null","../img/gs/1260gs.jpg","null","reveal","image-keyboard-response","318","1031890","0.0-6.0-4.44","2691503","co33928","norming","","","","","","",""
"null","../img/tt/1260tt.jpg","null","mooney2","image-keyboard-response","319","1033899","0.0-6.0-5.44","2691503","co33928","norming","","","","","","",""
"4210","","","post_reveal_questions","survey-likert","320","1038112","0.0-6.0-6.44","2691503","co33928","norming","","","{""aha"":4}","[0]","../img/tt/1260tt.jpg","",""
"null","<div style=""font-size:60px;""> </div>","null","fixation","html-keyboard-response","321","1038331","0.0-6.0-0.45","2691503","co33928","norming","","","","","","",""
"null","../img/tt/013tt.jpg","null","mooney1","image-keyboard-response","322","1041349","0.0-6.0-1.45","2691503","co33928","norming","","","","","","",""
"4050","","","post_mooney1_questions","survey-likert","323","1045402","0.0-6.0-2.45","2691503","co33928","norming","","","{""curiosity"":4,""confidence"":0}","[0,1]","../img/tt/013tt.jpg","",""
"944","","","recognition","survey-text","324","1046350","0.0-6.0-3.45","2691503","co33928","norming","","","{""guess"":""koe""}","","../img/tt/013tt.jpg","",""
"null","../img/gs/013gs.jpg","null","reveal","image-keyboard-response","325","1048370","0.0-6.0-4.45","2691503","co33928","norming","","","","","","",""
"null","../img/tt/013tt.jpg","null","mooney2","image-keyboard-response","326","1050390","0.0-6.0-5.45","2691503","co33928","norming","","","","","","",""
"2569","","","post_reveal_questions","survey-likert","327","1052961","0.0-6.0-6.45","2691503","co33928","norming","","","{""aha"":5}","[0]","../img/tt/013tt.jpg","",""
"null","<div style=""font-size:60px;""> </div>","null","fixation","html-keyboard-response","328","1053175","0.0-6.0-0.46","2691503","co33928","norming","","","","","","",""
"null","../img/tt/1247tt.jpg","null","mooney1","image-keyboard-response","329","1056189","0.0-6.0-1.46","2691503","co33928","norming","","","","","","",""
"8530","","","post_mooney1_questions","survey-likert","330","1064721","0.0-6.0-2.46","2691503","co33928","norming","","","{""curiosity"":1,""confidence"":0}","[0,1]","../img/tt/1247tt.jpg","",""
"4451","","","recognition","survey-text","331","1069177","0.0-6.0-3.46","2691503","co33928","norming","","","{""guess"":""""}","","../img/tt/1247tt.jpg","",""
"null","../img/gs/1247gs.jpg","null","reveal","image-keyboard-response","332","1071189","0.0-6.0-4.46","2691503","co33928","norming","","","","","","",""
"null","../img/tt/1247tt.jpg","null","mooney2","image-keyboard-response","333","1073209","0.0-6.0-5.46","2691503","co33928","norming","","","","","","",""
"8386","","","post_reveal_questions","survey-likert","334","1081598","0.0-6.0-6.46","2691503","co33928","norming","","","{""aha"":4}","[0]","../img/tt/1247tt.jpg","",""
"null","<div style=""font-size:60px;""> </div>","null","fixation","html-keyboard-response","335","1081806","0.0-6.0-0.47","2691503","co33928","norming","","","","","","",""
"null","../img/tt/357tt.jpg","null","mooney1","image-keyboard-response","336","1084820","0.0-6.0-1.47","2691503","co33928","norming","","","","","","",""
"4017","","","post_mooney1_questions","survey-likert","337","1088839","0.0-6.0-2.47","2691503","co33928","norming","","","{""curiosity"":5,""confidence"":0}","[0,1]","../img/tt/357tt.jpg","",""
"3052","","","recognition","survey-text","338","1091896","0.0-6.0-3.47","2691503","co33928","norming","","","{""guess"":""""}","","../img/tt/357tt.jpg","",""
"null","../img/gs/357gs.jpg","null","reveal","image-keyboard-response","339","1093899","0.0-6.0-4.47","2691503","co33928","norming","","","","","","",""
"null","../img/tt/357tt.jpg","null","mooney2","image-keyboard-response","340","1095919","0.0-6.0-5.47","2691503","co33928","norming","","","","","","",""
"2669","","","post_reveal_questions","survey-likert","341","1098589","0.0-6.0-6.47","2691503","co33928","norming","","","{""aha"":5}","[0]","../img/tt/357tt.jpg","",""
"null","<div style=""font-size:60px;""> </div>","null","fixation","html-keyboard-response","342","1098796","0.0-6.0-0.48","2691503","co33928","norming","","","","","","",""
"null","../img/tt/1089tt.jpg","null","mooney1","image-keyboard-response","343","1101799","0.0-6.0-1.48","2691503","co33928","norming","","","","","","",""
"4808","","","post_mooney1_questions","survey-likert","344","1106611","0.0-6.0-2.48","2691503","co33928","norming","","","{""curiosity"":4,""confidence"":1}","[0,1]","../img/tt/1089tt.jpg","",""
"3809","","","recognition","survey-text","345","1110425","0.0-6.0-3.48","2691503","co33928","norming","","","{""guess"":""boerderijdier""}","","../img/tt/1089tt.jpg","",""
"null","../img/gs/1089gs.jpg","null","reveal","image-keyboard-response","346","1112429","0.0-6.0-4.48","2691503","co33928","norming","","","","","","",""
"null","../img/tt/1089tt.jpg","null","mooney2","image-keyboard-response","347","1114439","0.0-6.0-5.48","2691503","co33928","norming","","","","","","",""
"4911","","","post_reveal_questions","survey-likert","348","1119354","0.0-6.0-6.48","2691503","co33928","norming","","","{""aha"":5}","[0]","../img/tt/1089tt.jpg","",""
"null","<div style=""font-size:60px;""> </div>","null","fixation","html-keyboard-response","349","1119566","0.0-6.0-0.49","2691503","co33928","norming","","","","","","",""
"null","../img/tt/1084tt.jpg","null","mooney1","image-keyboard-response","350","1122579","0.0-6.0-1.49","2691503","co33928","norming","","","","","","",""
"6001","","","post_mooney1_questions","survey-likert","351","1128584","0.0-6.0-2.49","2691503","co33928","norming","","","{""curiosity"":4,""confidence"":1}","[0,1]","../img/tt/1084tt.jpg","",""
"1581","","","recognition","survey-text","352","1130169","0.0-6.0-3.49","2691503","co33928","norming","","","{""guess"":""beest""}","","../img/tt/1084tt.jpg","",""
"null","../img/gs/1084gs.jpg","null","reveal","image-keyboard-response","353","1132189","0.0-6.0-4.49","2691503","co33928","norming","","","","","","",""
"null","../img/tt/1084tt.jpg","null","mooney2","image-keyboard-response","354","1134199","0.0-6.0-5.49","2691503","co33928","norming","","","","","","",""
"3142","","","post_reveal_questions","survey-likert","355","1137343","0.0-6.0-6.49","2691503","co33928","norming","","","{""aha"":5}","[0]","../img/tt/1084tt.jpg","",""
"null","<div style=""font-size:60px;""> </div>","null","fixation","html-keyboard-response","356","1137556","0.0-6.0-0.50","2691503","co33928","norming","","","","","","",""
"null","../img/tt/559tt.jpg","null","mooney1","image-keyboard-response","357","1140560","0.0-6.0-1.50","2691503","co33928","norming","","","","","","",""
"5394","","","post_mooney1_questions","survey-likert","358","1145955","0.0-6.0-2.50","2691503","co33928","norming","","","{""curiosity"":5,""confidence"":2}","[0,1]","../img/tt/559tt.jpg","",""
"2185","","","recognition","survey-text","359","1148146","0.0-6.0-3.50","2691503","co33928","norming","","","{""guess"":""machine""}","","../img/tt/559tt.jpg","",""
"null","../img/gs/559gs.jpg","null","reveal","image-keyboard-response","360","1150159","0.0-6.0-4.50","2691503","co33928","norming","","","","","","",""
"null","../img/tt/559tt.jpg","null","mooney2","image-keyboard-response","361","1152169","0.0-6.0-5.50","2691503","co33928","norming","","","","","","",""
"3002","","","post_reveal_questions","survey-likert","362","1155174","0.0-6.0-6.50","2691503","co33928","norming","","","{""aha"":1}","[0]","../img/tt/559tt.jpg","",""
"null","<div style=""font-size:60px;""> </div>","null","fixation","html-keyboard-response","363","1155378","0.0-6.0-0.51","2691503","co33928","norming","","","","","","",""
"null","../img/tt/1307tt.jpg","null","mooney1","image-keyboard-response","364","1158386","0.0-6.0-1.51","2691503","co33928","norming","","","","","","",""
"5313","","","post_mooney1_questions","survey-likert","365","1163701","0.0-6.0-2.51","2691503","co33928","norming","","","{""curiosity"":6,""confidence"":1}","[0,1]","../img/tt/1307tt.jpg","",""
"4781","","","recognition","survey-text","366","1168490","0.0-6.0-3.51","2691503","co33928","norming","","","{""guess"":""parasol""}","","../img/tt/1307tt.jpg","",""
"null","../img/gs/1307gs.jpg","null","reveal","image-keyboard-response","367","1170510","0.0-6.0-4.51","2691503","co33928","norming","","","","","","",""
"null","../img/tt/1307tt.jpg","null","mooney2","image-keyboard-response","368","1172519","0.0-6.0-5.51","2691503","co33928","norming","","","","","","",""
"3481","","","post_reveal_questions","survey-likert","369","1176003","0.0-6.0-6.51","2691503","co33928","norming","","","{""aha"":4}","[0]","../img/tt/1307tt.jpg","",""
"null","<div style=""font-size:60px;""> </div>","null","fixation","html-keyboard-response","370","1176215","0.0-6.0-0.52","2691503","co33928","norming","","","","","","",""
"null","../img/tt/1362tt.jpg","null","mooney1","image-keyboard-response","371","1179229","0.0-6.0-1.52","2691503","co33928","norming","","","","","","",""
"6098","","","post_mooney1_questions","survey-likert","372","1185331","0.0-6.0-2.52","2691503","co33928","norming","","","{""curiosity"":5,""confidence"":1}","[0,1]","../img/tt/1362tt.jpg","",""
"3322","","","recognition","survey-text","373","1188658","0.0-6.0-3.52","2691503","co33928","norming","","","{""guess"":""platenspeler""}","","../img/tt/1362tt.jpg","",""
"null","../img/gs/1362gs.jpg","null","reveal","image-keyboard-response","374","1190664","0.0-6.0-4.52","2691503","co33928","norming","","","","","","",""
"null","../img/tt/1362tt.jpg","null","mooney2","image-keyboard-response","375","1192743","0.0-6.0-5.52","2691503","co33928","norming","","","","","","",""
"4860","","","post_reveal_questions","survey-likert","376","1197606","0.0-6.0-6.52","2691503","co33928","norming","","","{""aha"":6}","[0]","../img/tt/1362tt.jpg","",""
"null","<div style=""font-size:60px;""> </div>","null","fixation","html-keyboard-response","377","1197819","0.0-6.0-0.53","2691503","co33928","norming","","","","","","",""
"null","../img/tt/552tt.jpg","null","mooney1","image-keyboard-response","378","1200829","0.0-6.0-1.53","2691503","co33928","norming","","","","","","",""
"6001","","","post_mooney1_questions","survey-likert","379","1206833","0.0-6.0-2.53","2691503","co33928","norming","","","{""curiosity"":3,""confidence"":1}","[0,1]","../img/tt/552tt.jpg","",""
"3144","","","recognition","survey-text","380","1209983","0.0-6.0-3.53","2691503","co33928","norming","","","{""guess"":""eekhoorn""}","","../img/tt/552tt.jpg","",""
"null","../img/gs/552gs.jpg","null","reveal","image-keyboard-response","381","1211999","0.0-6.0-4.53","2691503","co33928","norming","","","","","","",""
"null","../img/tt/552tt.jpg","null","mooney2","image-keyboard-response","382","1214010","0.0-6.0-5.53","2691503","co33928","norming","","","","","","",""
"4049","","","post_reveal_questions","survey-likert","383","1218061","0.0-6.0-6.53","2691503","co33928","norming","","","{""aha"":4}","[0]","../img/tt/552tt.jpg","",""
"null","<div style=""font-size:60px;""> </div>","null","fixation","html-keyboard-response","384","1218271","0.0-6.0-0.54","2691503","co33928","norming","","","","","","",""
"null","../img/tt/1151tt.jpg","null","mooney1","image-keyboard-response","385","1221289","0.0-6.0-1.54","2691503","co33928","norming","","","","","","",""
"6079","","","post_mooney1_questions","survey-likert","386","1227371","0.0-6.0-2.54","2691503","co33928","norming","","","{""curiosity"":4,""confidence"":1}","[0,1]","../img/tt/1151tt.jpg","",""
"3059","","","recognition","survey-text","387","1230437","0.0-6.0-3.54","2691503","co33928","norming","","","{""guess"":""koe""}","","../img/tt/1151tt.jpg","",""
"null","../img/gs/1151gs.jpg","null","reveal","image-keyboard-response","388","1232450","0.0-6.0-4.54","2691503","co33928","norming","","","","","","",""
"null","../img/tt/1151tt.jpg","null","mooney2","image-keyboard-response","389","1234469","0.0-6.0-5.54","2691503","co33928","norming","","","","","","",""
"4010","","","post_reveal_questions","survey-likert","390","1238481","0.0-6.0-6.54","2691503","co33928","norming","","","{""aha"":5}","[0]","../img/tt/1151tt.jpg","",""
"null","<div style=""font-size:60px;""> </div>","null","fixation","html-keyboard-response","391","1238692","0.0-6.0-0.55","2691503","co33928","norming","","","","","","",""
"null","../img/tt/517tt.jpg","null","mooney1","image-keyboard-response","392","1241709","0.0-6.0-1.55","2691503","co33928","norming","","","","","","",""
"5930","","","post_mooney1_questions","survey-likert","393","1247642","0.0-6.0-2.55","2691503","co33928","norming","","","{""curiosity"":5,""confidence"":0}","[0,1]","../img/tt/517tt.jpg","",""
"1144","","","recognition","survey-text","394","1248792","0.0-6.0-3.55","2691503","co33928","norming","","","{""guess"":""""}","","../img/tt/517tt.jpg","",""
"null","../img/gs/517gs.jpg","null","reveal","image-keyboard-response","395","1250809","0.0-6.0-4.55","2691503","co33928","norming","","","","","","",""
"null","../img/tt/517tt.jpg","null","mooney2","image-keyboard-response","396","1252829","0.0-6.0-5.55","2691503","co33928","norming","","","","","","",""
"4087","","","post_reveal_questions","survey-likert","397","1256920","0.0-6.0-6.55","2691503","co33928","norming","","","{""aha"":5}","[0]","../img/tt/517tt.jpg","",""
"null","<div style=""font-size:60px;""> </div>","null","fixation","html-keyboard-response","398","1257131","0.0-6.0-0.56","2691503","co33928","norming","","","","","","",""
"null","../img/tt/603tt.jpg","null","mooney1","image-keyboard-response","399","1260150","0.0-6.0-1.56","2691503","co33928","norming","","","","","","",""
"6125","","","post_mooney1_questions","survey-likert","400","1266283","0.0-6.0-2.56","2691503","co33928","norming","","","{""curiosity"":4,""confidence"":0}","[0,1]","../img/tt/603tt.jpg","",""
"1927","","","recognition","survey-text","401","1268219","0.0-6.0-3.56","2691503","co33928","norming","","","{""guess"":""bos""}","","../img/tt/603tt.jpg","",""
"null","../img/gs/603gs.jpg","null","reveal","image-keyboard-response","402","1270240","0.0-6.0-4.56","2691503","co33928","norming","","","","","","",""
"null","../img/tt/603tt.jpg","null","mooney2","image-keyboard-response","403","1272259","0.0-6.0-5.56","2691503","co33928","norming","","","","","","",""
"2781","","","post_reveal_questions","survey-likert","404","1275043","0.0-6.0-6.56","2691503","co33928","norming","","","{""aha"":5}","[0]","../img/tt/603tt.jpg","",""
"null","<div style=""font-size:60px;""> </div>","null","fixation","html-keyboard-response","405","1275252","0.0-6.0-0.57","2691503","co33928","norming","","","","","","",""
"null","../img/tt/1205tt.jpg","null","mooney1","image-keyboard-response","406","1278258","0.0-6.0-1.57","2691503","co33928","norming","","","","","","",""
"9424","","","post_mooney1_questions","survey-likert","407","1287684","0.0-6.0-2.57","2691503","co33928","norming","","","{""curiosity"":4,""confidence"":0}","[0,1]","../img/tt/1205tt.jpg","",""
"927","","","recognition","survey-text","408","1288616","0.0-6.0-3.57","2691503","co33928","norming","","","{""guess"":""""}","","../img/tt/1205tt.jpg","",""
"null","../img/gs/1205gs.jpg","null","reveal","image-keyboard-response","409","1290621","0.0-6.0-4.57","2691503","co33928","norming","","","","","","",""
"null","../img/tt/1205tt.jpg","null","mooney2","image-keyboard-response","410","1292629","0.0-6.0-5.57","2691503","co33928","norming","","","","","","",""
"3993","","","post_reveal_questions","survey-likert","411","1296626","0.0-6.0-6.57","2691503","co33928","norming","","","{""aha"":4}","[0]","../img/tt/1205tt.jpg","",""
"null","<div style=""font-size:60px;""> </div>","null","fixation","html-keyboard-response","412","1296839","0.0-6.0-0.58","2691503","co33928","norming","","","","","","",""
"null","../img/tt/358tt.jpg","null","mooney1","image-keyboard-response","413","1299860","0.0-6.0-1.58","2691503","co33928","norming","","","","","","",""
"5212","","","post_mooney1_questions","survey-likert","414","1305074","0.0-6.0-2.58","2691503","co33928","norming","","","{""curiosity"":3,""confidence"":0}","[0,1]","../img/tt/358tt.jpg","",""
"1192","","","recognition","survey-text","415","1306272","0.0-6.0-3.58","2691503","co33928","norming","","","{""guess"":""""}","","../img/tt/358tt.jpg","",""
"null","../img/gs/358gs.jpg","null","reveal","image-keyboard-response","416","1308289","0.0-6.0-4.58","2691503","co33928","norming","","","","","","",""
"null","../img/tt/358tt.jpg","null","mooney2","image-keyboard-response","417","1310309","0.0-6.0-5.58","2691503","co33928","norming","","","","","","",""
"3408","","","post_reveal_questions","survey-likert","418","1313719","0.0-6.0-6.58","2691503","co33928","norming","","","{""aha"":4}","[0]","../img/tt/358tt.jpg","",""
"null","<div style=""font-size:60px;""> </div>","null","fixation","html-keyboard-response","419","1313929","0.0-6.0-0.59","2691503","co33928","norming","","","","","","",""
"null","../img/tt/598tt.jpg","null","mooney1","image-keyboard-response","420","1316950","0.0-6.0-1.59","2691503","co33928","norming","","","","","","",""
"7909","","","post_mooney1_questions","survey-likert","421","1324862","0.0-6.0-2.59","2691503","co33928","norming","","","{""curiosity"":4,""confidence"":1}","[0,1]","../img/tt/598tt.jpg","",""
"1568","","","recognition","survey-text","422","1326438","0.0-6.0-3.59","2691503","co33928","norming","","","{""guess"":""bal""}","","../img/tt/598tt.jpg","",""
"null","../img/gs/598gs.jpg","null","reveal","image-keyboard-response","423","1328451","0.0-6.0-4.59","2691503","co33928","norming","","","","","","",""
"null","../img/tt/598tt.jpg","null","mooney2","image-keyboard-response","424","1330459","0.0-6.0-5.59","2691503","co33928","norming","","","","","","",""
"2283","","","post_reveal_questions","survey-likert","425","1332747","0.0-6.0-6.59","2691503","co33928","norming","","","{""aha"":4}","[0]","../img/tt/598tt.jpg","",""
"null","<div style=""font-size:60px;""> </div>","null","fixation","html-keyboard-response","426","1332969","0.0-6.0-0.60","2691503","co33928","norming","","","","","","",""
"null","../img/tt/105tt.jpg","null","mooney1","image-keyboard-response","427","1335989","0.0-6.0-1.60","2691503","co33928","norming","","","","","","",""
"4681","","","post_mooney1_questions","survey-likert","428","1340674","0.0-6.0-2.60","2691503","co33928","norming","","","{""curiosity"":4,""confidence"":1}","[0,1]","../img/tt/105tt.jpg","",""
"1173","","","recognition","survey-text","429","1341854","0.0-6.0-3.60","2691503","co33928","norming","","","{""guess"":""gras""}","","../img/tt/105tt.jpg","",""
"null","../img/gs/105gs.jpg","null","reveal","image-keyboard-response","430","1343870","0.0-6.0-4.60","2691503","co33928","norming","","","","","","",""
"null","../img/tt/105tt.jpg","null","mooney2","image-keyboard-response","431","1345881","0.0-6.0-5.60","2691503","co33928","norming","","","","","","",""
"3650","","","post_reveal_questions","survey-likert","432","1349533","0.0-6.0-6.60","2691503","co33928","norming","","","{""aha"":5}","[0]","../img/tt/105tt.jpg","",""
"null","<div style=""font-size:60px;""> </div>","null","fixation","html-keyboard-response","433","1349741","0.0-6.0-0.61","2691503","co33928","norming","","","","","","",""
"null","../img/tt/435tt.jpg","null","mooney1","image-keyboard-response","434","1352759","0.0-6.0-1.61","2691503","co33928","norming","","","","","","",""
"5613","","","post_mooney1_questions","survey-likert","435","1358376","0.0-6.0-2.61","2691503","co33928","norming","","","{""curiosity"":2,""confidence"":0}","[0,1]","../img/tt/435tt.jpg","",""
"1573","","","recognition","survey-text","436","1359957","0.0-6.0-3.61","2691503","co33928","norming","","","{""guess"":""""}","","../img/tt/435tt.jpg","",""
"null","../img/gs/435gs.jpg","null","reveal","image-keyboard-response","437","1361979","0.0-6.0-4.61","2691503","co33928","norming","","","","","","",""
"null","../img/tt/435tt.jpg","null","mooney2","image-keyboard-response","438","1363996","0.0-6.0-5.61","2691503","co33928","norming","","","","","","",""
"5734","","","post_reveal_questions","survey-likert","439","1369734","0.0-6.0-6.61","2691503","co33928","norming","","","{""aha"":1}","[0]","../img/tt/435tt.jpg","",""
"null","<div style=""font-size:60px;""> </div>","null","fixation","html-keyboard-response","440","1369947","0.0-6.0-0.62","2691503","co33928","norming","","","","","","",""
"null","../img/tt/1268tt.jpg","null","mooney1","image-keyboard-response","441","1372949","0.0-6.0-1.62","2691503","co33928","norming","","","","","","",""
"6228","","","post_mooney1_questions","survey-likert","442","1379180","0.0-6.0-2.62","2691503","co33928","norming","","","{""curiosity"":4,""confidence"":1}","[0,1]","../img/tt/1268tt.jpg","",""
"2022","","","recognition","survey-text","443","1381210","0.0-6.0-3.62","2691503","co33928","norming","","","{""guess"":""lama""}","","../img/tt/1268tt.jpg","",""
"null","../img/gs/1268gs.jpg","null","reveal","image-keyboard-response","444","1383218","0.0-6.0-4.62","2691503","co33928","norming","","","","","","",""
"null","../img/tt/1268tt.jpg","null","mooney2","image-keyboard-response","445","1385239","0.0-6.0-5.62","2691503","co33928","norming","","","","","","",""
"4265","","","post_reveal_questions","survey-likert","446","1389507","0.0-6.0-6.62","2691503","co33928","norming","","","{""aha"":5}","[0]","../img/tt/1268tt.jpg","",""
"null","<div style=""font-size:60px;""> </div>","null","fixation","html-keyboard-response","447","1389717","0.0-6.0-0.63","2691503","co33928","norming","","","","","","",""
"null","../img/tt/296tt.jpg","null","mooney1","image-keyboard-response","448","1392730","0.0-6.0-1.63","2691503","co33928","norming","","","","","","",""
"9150","","","post_mooney1_questions","survey-likert","449","1401884","0.0-6.0-2.63","2691503","co33928","norming","","","{""curiosity"":6,""confidence"":1}","[0,1]","../img/tt/296tt.jpg","",""
"3515","","","recognition","survey-text","450","1405406","0.0-6.0-3.63","2691503","co33928","norming","","","{""guess"":""doodskist""}","","../img/tt/296tt.jpg","",""
"null","../img/gs/296gs.jpg","null","reveal","image-keyboard-response","451","1407419","0.0-6.0-4.63","2691503","co33928","norming","","","","","","",""
"null","../img/tt/296tt.jpg","null","mooney2","image-keyboard-response","452","1409421","0.0-6.0-5.63","2691503","co33928","norming","","","","","","",""
"3184","","","post_reveal_questions","survey-likert","453","1412608","0.0-6.0-6.63","2691503","co33928","norming","","","{""aha"":6}","[0]","../img/tt/296tt.jpg","",""
"null","<div style=""font-size:60px;""> </div>","null","fixation","html-keyboard-response","454","1412818","0.0-6.0-0.64","2691503","co33928","norming","","","","","","",""
"null","../img/tt/055tt.jpg","null","mooney1","image-keyboard-response","455","1415829","0.0-6.0-1.64","2691503","co33928","norming","","","","","","",""
"5837","","","post_mooney1_questions","survey-likert","456","1421670","0.0-6.0-2.64","2691503","co33928","norming","","","{""curiosity"":2,""confidence"":0}","[0,1]","../img/tt/055tt.jpg","",""
"1311","","","recognition","survey-text","457","1422986","0.0-6.0-3.64","2691503","co33928","norming","","","{""guess"":""""}","","../img/tt/055tt.jpg","",""
"null","../img/gs/055gs.jpg","null","reveal","image-keyboard-response","458","1425009","0.0-6.0-4.64","2691503","co33928","norming","","","","","","",""
"null","../img/tt/055tt.jpg","null","mooney2","image-keyboard-response","459","1427024","0.0-6.0-5.64","2691503","co33928","norming","","","","","","",""
"1969","","","post_reveal_questions","survey-likert","460","1428998","0.0-6.0-6.64","2691503","co33928","norming","","","{""aha"":4}","[0]","../img/tt/055tt.jpg","",""
"null","<div style=""font-size:60px;""> </div>","null","fixation","html-keyboard-response","461","1429208","0.0-6.0-0.65","2691503","co33928","norming","","","","","","",""
"null","../img/tt/1283tt.jpg","null","mooney1","image-keyboard-response","462","1432219","0.0-6.0-1.65","2691503","co33928","norming","","","","","","",""
"3632","","","post_mooney1_questions","survey-likert","463","1435855","0.0-6.0-2.65","2691503","co33928","norming","","","{""curiosity"":4,""confidence"":1}","[0,1]","../img/tt/1283tt.jpg","",""
"1151","","","recognition","survey-text","464","1437013","0.0-6.0-3.65","2691503","co33928","norming","","","{""guess"":""aap""}","","../img/tt/1283tt.jpg","",""
"null","../img/gs/1283gs.jpg","null","reveal","image-keyboard-response","465","1439029","0.0-6.0-4.65","2691503","co33928","norming","","","","","","",""
"null","../img/tt/1283tt.jpg","null","mooney2","image-keyboard-response","466","1441049","0.0-6.0-5.65","2691503","co33928","norming","","","","","","",""
"2902","","","post_reveal_questions","survey-likert","467","1443957","0.0-6.0-6.65","2691503","co33928","norming","","","{""aha"":4}","[0]","../img/tt/1283tt.jpg","",""
"null","<div style=""font-size:60px;""> </div>","null","fixation","html-keyboard-response","468","1444168","0.0-6.0-0.66","2691503","co33928","norming","","","","","","",""
"null","../img/tt/1101tt.jpg","null","mooney1","image-keyboard-response","469","1447189","0.0-6.0-1.66","2691503","co33928","norming","","","","","","",""
"5808","","","post_mooney1_questions","survey-likert","470","1453001","0.0-6.0-2.66","2691503","co33928","norming","","","{""curiosity"":2,""confidence"":1}","[0,1]","../img/tt/1101tt.jpg","",""
"2857","","","recognition","survey-text","471","1455862","0.0-6.0-3.66","2691503","co33928","norming","","","{""guess"":""persoon""}","","../img/tt/1101tt.jpg","",""
"null","../img/gs/1101gs.jpg","null","reveal","image-keyboard-response","472","1457879","0.0-6.0-4.66","2691503","co33928","norming","","","","","","",""
"null","../img/tt/1101tt.jpg","null","mooney2","image-keyboard-response","473","1459899","0.0-6.0-5.66","2691503","co33928","norming","","","","","","",""
"2460","","","post_reveal_questions","survey-likert","474","1462362","0.0-6.0-6.66","2691503","co33928","norming","","","{""aha"":2}","[0]","../img/tt/1101tt.jpg","",""
"null","<div style=""font-size:60px;""> </div>","null","fixation","html-keyboard-response","475","1462573","0.0-6.0-0.67","2691503","co33928","norming","","","","","","",""
"null","../img/tt/1217tt.jpg","null","mooney1","image-keyboard-response","476","1465590","0.0-6.0-1.67","2691503","co33928","norming","","","","","","",""
"5768","","","post_mooney1_questions","survey-likert","477","1471373","0.0-6.0-2.67","2691503","co33928","norming","","","{""curiosity"":2,""confidence"":1}","[0,1]","../img/tt/1217tt.jpg","",""
"1559","","","recognition","survey-text","478","1472940","0.0-6.0-3.67","2691503","co33928","norming","","","{""guess"":""sport""}","","../img/tt/1217tt.jpg","",""
"null","../img/gs/1217gs.jpg","null","reveal","image-keyboard-response","479","1474949","0.0-6.0-4.67","2691503","co33928","norming","","","","","","",""
"null","../img/tt/1217tt.jpg","null","mooney2","image-keyboard-response","480","1476958","0.0-6.0-5.67","2691503","co33928","norming","","","","","","",""
"3290","","","post_reveal_questions","survey-likert","481","1480251","0.0-6.0-6.67","2691503","co33928","norming","","","{""aha"":1}","[0]","../img/tt/1217tt.jpg","",""
"null","<div style=""font-size:60px;""> </div>","null","fixation","html-keyboard-response","482","1480462","0.0-6.0-0.68","2691503","co33928","norming","","","","","","",""
"null","../img/tt/081tt.jpg","null","mooney1","image-keyboard-response","483","1483470","0.0-6.0-1.68","2691503","co33928","norming","","","","","","",""
"5267","","","post_mooney1_questions","survey-likert","484","1488744","0.0-6.0-2.68","2691503","co33928","norming","","","{""curiosity"":2,""confidence"":1}","[0,1]","../img/tt/081tt.jpg","",""
"1057","","","recognition","survey-text","485","1489810","0.0-6.0-3.68","2691503","co33928","norming","","","{""guess"":""sport""}","","../img/tt/081tt.jpg","",""
"null","../img/gs/081gs.jpg","null","reveal","image-keyboard-response","486","1491829","0.0-6.0-4.68","2691503","co33928","norming","","","","","","",""
"null","../img/tt/081tt.jpg","null","mooney2","image-keyboard-response","487","1493837","0.0-6.0-5.68","2691503","co33928","norming","","","","","","",""
"2216","","","post_reveal_questions","survey-likert","488","1496056","0.0-6.0-6.68","2691503","co33928","norming","","","{""aha"":5}","[0]","../img/tt/081tt.jpg","",""
"null","<div style=""font-size:60px;""> </div>","null","fixation","html-keyboard-response","489","1496269","0.0-6.0-0.69","2691503","co33928","norming","","","","","","",""
"null","../img/tt/353tt.jpg","null","mooney1","image-keyboard-response","490","1499289","0.0-6.0-1.69","2691503","co33928","norming","","","","","","",""
"8110","","","post_mooney1_questions","survey-likert","491","1507403","0.0-6.0-2.69","2691503","co33928","norming","","","{""curiosity"":4,""confidence"":1}","[0,1]","../img/tt/353tt.jpg","",""
"3865","","","recognition","survey-text","492","1511275","0.0-6.0-3.69","2691503","co33928","norming","","","{""guess"":""walvis""}","","../img/tt/353tt.jpg","",""
"null","../img/gs/353gs.jpg","null","reveal","image-keyboard-response","493","1513289","0.0-6.0-4.69","2691503","co33928","norming","","","","","","",""
"null","../img/tt/353tt.jpg","null","mooney2","image-keyboard-response","494","1515298","0.0-6.0-5.69","2691503","co33928","norming","","","","","","",""
"2841","","","post_reveal_questions","survey-likert","495","1518144","0.0-6.0-6.69","2691503","co33928","norming","","","{""aha"":4}","[0]","../img/tt/353tt.jpg","",""
"null","<div style=""font-size:60px;""> </div>","null","fixation","html-keyboard-response","496","1518356","0.0-6.0-0.70","2691503","co33928","norming","","","","","","",""
"null","../img/tt/515tt.jpg","null","mooney1","image-keyboard-response","497","1521369","0.0-6.0-1.70","2691503","co33928","norming","","","","","","",""
"4968","","","post_mooney1_questions","survey-likert","498","1526339","0.0-6.0-2.70","2691503","co33928","norming","","","{""curiosity"":3,""confidence"":2}","[0,1]","../img/tt/515tt.jpg","",""
"2228","","","recognition","survey-text","499","1528576","0.0-6.0-3.70","2691503","co33928","norming","","","{""guess"":""vogel""}","","../img/tt/515tt.jpg","",""
"null","../img/gs/515gs.jpg","null","reveal","image-keyboard-response","500","1530599","0.0-6.0-4.70","2691503","co33928","norming","","","","","","",""
"null","../img/tt/515tt.jpg","null","mooney2","image-keyboard-response","501","1532609","0.0-6.0-5.70","2691503","co33928","norming","","","","","","",""
"3236","","","post_reveal_questions","survey-likert","502","1535850","0.0-6.0-6.70","2691503","co33928","norming","","","{""aha"":1}","[0]","../img/tt/515tt.jpg","",""
"null","<div style=""font-size:60px;""> </div>","null","fixation","html-keyboard-response","503","1536061","0.0-6.0-0.71","2691503","co33928","norming","","","","","","",""
"null","../img/tt/1002tt.jpg","null","mooney1","image-keyboard-response","504","1539079","0.0-6.0-1.71","2691503","co33928","norming","","","","","","",""
"6979","","","post_mooney1_questions","survey-likert","505","1546061","0.0-6.0-2.71","2691503","co33928","norming","","","{""curiosity"":1,""confidence"":1}","[0,1]","../img/tt/1002tt.jpg","",""
"2157","","","recognition","survey-text","506","1548228","0.0-6.0-3.71","2691503","co33928","norming","","","{""guess"":""mensen""}","","../img/tt/1002tt.jpg","",""
"null","../img/gs/1002gs.jpg","null","reveal","image-keyboard-response","507","1550250","0.0-6.0-4.71","2691503","co33928","norming","","","","","","",""
"null","../img/tt/1002tt.jpg","null","mooney2","image-keyboard-response","508","1552259","0.0-6.0-5.71","2691503","co33928","norming","","","","","","",""
"4901","","","post_reveal_questions","survey-likert","509","1557163","0.0-6.0-6.71","2691503","co33928","norming","","","{""aha"":6}","[0]","../img/tt/1002tt.jpg","",""
"null","<div style=""font-size:60px;""> </div>","null","fixation","html-keyboard-response","510","1557381","0.0-6.0-0.72","2691503","co33928","norming","","","","","","",""
"null","../img/tt/222tt.jpg","null","mooney1","image-keyboard-response","511","1560399","0.0-6.0-1.72","2691503","co33928","norming","","","","","","",""
"4880","","","post_mooney1_questions","survey-likert","512","1565283","0.0-6.0-2.72","2691503","co33928","norming","","","{""curiosity"":4,""confidence"":1}","[0,1]","../img/tt/222tt.jpg","",""
"1485","","","recognition","survey-text","513","1566774","0.0-6.0-3.72","2691503","co33928","norming","","","{""guess"":""tank""}","","../img/tt/222tt.jpg","",""
"null","../img/gs/222gs.jpg","null","reveal","image-keyboard-response","514","1568780","0.0-6.0-4.72","2691503","co33928","norming","","","","","","",""
"null","../img/tt/222tt.jpg","null","mooney2","image-keyboard-response","515","1570789","0.0-6.0-5.72","2691503","co33928","norming","","","","","","",""
"3080","","","post_reveal_questions","survey-likert","516","1573876","0.0-6.0-6.72","2691503","co33928","norming","","","{""aha"":6}","[0]","../img/tt/222tt.jpg","",""
"null","<div style=""font-size:60px;""> </div>","null","fixation","html-keyboard-response","517","1574088","0.0-6.0-0.73","2691503","co33928","norming","","","","","","",""
"null","../img/tt/019tt.jpg","null","mooney1","image-keyboard-response","518","1577098","0.0-6.0-1.73","2691503","co33928","norming","","","","","","",""
"5135","","","post_mooney1_questions","survey-likert","519","1582237","0.0-6.0-2.73","2691503","co33928","norming","","","{""curiosity"":5,""confidence"":1}","[0,1]","../img/tt/019tt.jpg","",""
"1422","","","recognition","survey-text","520","1583665","0.0-6.0-3.73","2691503","co33928","norming","","","{""guess"":""ufo""}","","../img/tt/019tt.jpg","",""
"null","../img/gs/019gs.jpg","null","reveal","image-keyboard-response","521","1585680","0.0-6.0-4.73","2691503","co33928","norming","","","","","","",""
"null","../img/tt/019tt.jpg","null","mooney2","image-keyboard-response","522","1587698","0.0-6.0-5.73","2691503","co33928","norming","","","","","","",""
"2382","","","post_reveal_questions","survey-likert","523","1590082","0.0-6.0-6.73","2691503","co33928","norming","","","{""aha"":6}","[0]","../img/tt/019tt.jpg","",""
"null","<div style=""font-size:60px;""> </div>","null","fixation","html-keyboard-response","524","1590294","0.0-6.0-0.74","2691503","co33928","norming","","","","","","",""
"null","../img/tt/1053tt.jpg","null","mooney1","image-keyboard-response","525","1593298","0.0-6.0-1.74","2691503","co33928","norming","","","","","","",""
"4675","","","post_mooney1_questions","survey-likert","526","1597979","0.0-6.0-2.74","2691503","co33928","norming","","","{""curiosity"":1,""confidence"":0}","[0,1]","../img/tt/1053tt.jpg","",""
"2069","","","recognition","survey-text","527","1600060","0.0-6.0-3.74","2691503","co33928","norming","","","{""guess"":""""}","","../img/tt/1053tt.jpg","",""
"null","../img/gs/1053gs.jpg","null","reveal","image-keyboard-response","528","1602078","0.0-6.0-4.74","2691503","co33928","norming","","","","","","",""
"null","../img/tt/1053tt.jpg","null","mooney2","image-keyboard-response","529","1604088","0.0-6.0-5.74","2691503","co33928","norming","","","","","","",""
"3049","","","post_reveal_questions","survey-likert","530","1607139","0.0-6.0-6.74","2691503","co33928","norming","","","{""aha"":5}","[0]","../img/tt/1053tt.jpg","",""
"null","<div style=""font-size:60px;""> </div>","null","fixation","html-keyboard-response","531","1607351","0.0-6.0-0.75","2691503","co33928","norming","","","","","","",""
"null","../img/tt/534tt.jpg","null","mooney1","image-keyboard-response","532","1610360","0.0-6.0-1.75","2691503","co33928","norming","","","","","","",""
"5534","","","post_mooney1_questions","survey-likert","533","1615902","0.0-6.0-2.75","2691503","co33928","norming","","","{""curiosity"":3,""confidence"":1}","[0,1]","../img/tt/534tt.jpg","",""
"2154","","","recognition","survey-text","534","1618063","0.0-6.0-3.75","2691503","co33928","norming","","","{""guess"":""waterdier""}","","../img/tt/534tt.jpg","",""
"null","../img/gs/534gs.jpg","null","reveal","image-keyboard-response","535","1620070","0.0-6.0-4.75","2691503","co33928","norming","","","","","","",""
"null","../img/tt/534tt.jpg","null","mooney2","image-keyboard-response","536","1622076","0.0-6.0-5.75","2691503","co33928","norming","","","","","","",""
"2333","","","post_reveal_questions","survey-likert","537","1624412","0.0-6.0-6.75","2691503","co33928","norming","","","{""aha"":6}","[0]","../img/tt/534tt.jpg","",""
"null","<div style=""font-size:60px;""> </div>","null","fixation","html-keyboard-response","538","1624624","0.0-6.0-0.76","2691503","co33928","norming","","","","","","",""
"null","../img/tt/497tt.jpg","null","mooney1","image-keyboard-response","539","1627639","0.0-6.0-1.76","2691503","co33928","norming","","","","","","",""
"4232","","","post_mooney1_questions","survey-likert","540","1631875","0.0-6.0-2.76","2691503","co33928","norming","","","{""curiosity"":2,""confidence"":0}","[0,1]","../img/tt/497tt.jpg","",""
"1542","","","recognition","survey-text","541","1633422","0.0-6.0-3.76","2691503","co33928","norming","","","{""guess"":""""}","","../img/tt/497tt.jpg","",""
"null","../img/gs/497gs.jpg","null","reveal","image-keyboard-response","542","1635430","0.0-6.0-4.76","2691503","co33928","norming","","","","","","",""
"null","../img/tt/497tt.jpg","null","mooney2","image-keyboard-response","543","1637438","0.0-6.0-5.76","2691503","co33928","norming","","","","","","",""
"3224","","","post_reveal_questions","survey-likert","544","1640670","0.0-6.0-6.76","2691503","co33928","norming","","","{""aha"":1}","[0]","../img/tt/497tt.jpg","",""
"null","<div style=""font-size:60px;""> </div>","null","fixation","html-keyboard-response","545","1640880","0.0-6.0-0.77","2691503","co33928","norming","","","","","","",""
"null","../img/tt/1186tt.jpg","null","mooney1","image-keyboard-response","546","1643899","0.0-6.0-1.77","2691503","co33928","norming","","","","","","",""
"4678","","","post_mooney1_questions","survey-likert","547","1648582","0.0-6.0-2.77","2691503","co33928","norming","","","{""curiosity"":1,""confidence"":2}","[0,1]","../img/tt/1186tt.jpg","",""
"1032","","","recognition","survey-text","548","1649620","0.0-6.0-3.77","2691503","co33928","norming","","","{""guess"":""sport""}","","../img/tt/1186tt.jpg","",""
"null","../img/gs/1186gs.jpg","null","reveal","image-keyboard-response","549","1651631","0.0-6.0-4.77","2691503","co33928","norming","","","","","","",""
"null","../img/tt/1186tt.jpg","null","mooney2","image-keyboard-response","550","1653639","0.0-6.0-5.77","2691503","co33928","norming","","","","","","",""
"4178","","","post_reveal_questions","survey-likert","551","1657825","0.0-6.0-6.77","2691503","co33928","norming","","","{""aha"":1}","[0]","../img/tt/1186tt.jpg","",""
"null","<div style=""font-size:60px;""> </div>","null","fixation","html-keyboard-response","552","1658038","0.0-6.0-0.78","2691503","co33928","norming","","","","","","",""
"null","../img/tt/1130tt.jpg","null","mooney1","image-keyboard-response","553","1661059","0.0-6.0-1.78","2691503","co33928","norming","","","","","","",""
"5808","","","post_mooney1_questions","survey-likert","554","1666870","0.0-6.0-2.78","2691503","co33928","norming","","","{""curiosity"":1,""confidence"":2}","[0,1]","../img/tt/1130tt.jpg","",""
"1243","","","recognition","survey-text","555","1668119","0.0-6.0-3.78","2691503","co33928","norming","","","{""guess"":""lopen""}","","../img/tt/1130tt.jpg","",""
"null","../img/gs/1130gs.jpg","null","reveal","image-keyboard-response","556","1670139","0.0-6.0-4.78","2691503","co33928","norming","","","","","","",""
"null","../img/tt/1130tt.jpg","null","mooney2","image-keyboard-response","557","1672149","0.0-6.0-5.78","2691503","co33928","norming","","","","","","",""
"3460","","","post_reveal_questions","survey-likert","558","1675613","0.0-6.0-6.78","2691503","co33928","norming","","","{""aha"":3}","[0]","../img/tt/1130tt.jpg","",""
"null","<div style=""font-size:60px;""> </div>","null","fixation","html-keyboard-response","559","1675826","0.0-6.0-0.79","2691503","co33928","norming","","","","","","",""
"null","../img/tt/1262tt.jpg","null","mooney1","image-keyboard-response","560","1678839","0.0-6.0-1.79","2691503","co33928","norming","","","","","","",""
"6199","","","post_mooney1_questions","survey-likert","561","1685042","0.0-6.0-2.79","2691503","co33928","norming","","","{""curiosity"":3,""confidence"":1}","[0,1]","../img/tt/1262tt.jpg","",""
"5445","","","recognition","survey-text","562","1690493","0.0-6.0-3.79","2691503","co33928","norming","","","{""guess"":""dier""}","","../img/tt/1262tt.jpg","",""
"null","../img/gs/1262gs.jpg","null","reveal","image-keyboard-response","563","1692499","0.0-6.0-4.79","2691503","co33928","norming","","","","","","",""
"null","../img/tt/1262tt.jpg","null","mooney2","image-keyboard-response","564","1694519","0.0-6.0-5.79","2691503","co33928","norming","","","","","","",""
"6990","","","post_reveal_questions","survey-likert","565","1701513","0.0-6.0-6.79","2691503","co33928","norming","","","{""aha"":1}","[0]","../img/tt/1262tt.jpg","",""
"15548","<div style='word-wrap: break-word; width: 900px'><h3>Part 2</h3><p>You completed the first phase of the experiment.</p><p>In the next phase you will again see a series of distorted images, some of which you have already encountered in the previous phase.</p><p>You will be asked to indicate whether the image was an old or a new one (one not seen in the previous phase) and subsequently to recognize what is depicted if you can.</p><p>Press any key to start the new phase</p></div>","32","instructions","html-keyboard-response","566","1717065","0.0-7.0","2691503","co33928","norming","","","","","","",""
"null","<div style=""font-size:60px;""> </div>","null","fixation","html-keyboard-response","567","1717267","0.0-8.0-0.0","2691503","co33928","norming","","","","","","",""
"null","../img/tt/091tt.jpg","null","ph2_mooney","image-keyboard-response","568","1719289","0.0-8.0-1.0","2691503","co33928","norming","","","","","","",""
