"rt","stimulus","key_press","test_part","trial_type","trial_index","time_elapsed","internal_node_id","totalTime","subject","experiment_name","button_pressed","success","responses","question_order","currentStim","old","correct"
"9604","Welcome to the experiment. This is an online experiment so please don't close the tab/window until we say goodbye.  Press any key to begin.","32","instructions","html-keyboard-response","0","9642","0.0-0.0","3378780","co34363","norming","","","","","","",""
"15008","<div style='word-wrap: break-word; width: 900px'><h3>Please consider this information carefully before deciding whether to participate in this research</h3><ul style='text-align: left; font-size: .8em;'><li><b>Purpose of the research</b>: To examine how people process images.</li><li><b>What you will do in this research</b>:  Stimuli (images) will be presented on the computer and you will be asked different questions about them.</li><li><b>Time required</b>: Participation will take between 45 and 60 minutes to complete.</li><li><b>Risks</b>:  There are no anticipated risks associated with participating in this study. The effects of participating should be comparable to those you would experience from viewing a computer monitor for 30 minutes and using a mouse or keyboard.</li><li><b>Benefits</b>:  This study provides no benefits to you individually except for the credit. The study provides important information about the nature of perception and learning.</li><li><b>Confidentiality</b>:  Your participation in this study will remain confidential. No personally identifiable information will be associated with your data. Your de-identified data may be shared with other researchers and used in future projects.</li><li><b>Participation and withdrawal</b>:  Your participation in this study is completely voluntary and you may refuse to participate or you may choose to withdraw at any time without penalty.</li><li><b>How to contact the researchers</b>: If you have questions or concerns about your participation or payment, or want to request a summary of research findings, please contact Sander Van de Cruys (KU Leuven), at sander.vandecruys@kuleuven.be.</li></ul><p>The nature and purpose of this research have been sufficiently explained and I agree to participate in this study.  I understand that I am free to withdraw at any time without incurring any penalty.</p><p>Please consent by clicking the button below to continue. Otherwise, please exit the study at this time.</p></div>","","instructions","html-button-response","1","24654","0.0-1.0","3378780","co34363","norming","0","","","","","",""
"","","","instructions","fullscreen","2","28727","0.0-2.0","3378780","co34363","norming","","true","","","","",""
"38843.000000000015","","","sona","survey-html-form","3","67602","0.0-3.0","3378780","co34363","norming","","","[{""name"":""sonaid"",""value"":""34363""},{""name"":""debrief"",""value"":""yes""},{""name"":""datajoin"",""value"":""yes""}]","","","",""
"45355","<div style='word-wrap: break-word; width: 900px'><h3>Instructions</h3><p>This experiment will have 3 parts. In the first part you will see a series of distorted images like the one below on the left. As you can see in the righthand image, the distorted images are derived from actual photographs. In what follows, you will <strong>briefly</strong> be presented with <strong>only</strong> the distorted image.</p> <div style='float: left; margin-right: 20px;'><img src='../img/018tt.jpg' height='250' width='250'></img></div><div style='float: right; margin-left: 20px;'><img src='../img/018gs.jpg' height='250' width='250'></img></div><p>Subsequently you will be asked a few questions about the image: One question on how <strong>curious</strong> you are about the solution and one on how <strong>confident</strong> you are that you know the solution.</p>Next, we ask you to make a guess on what is in the image. Note that it is OK to name just the <strong>basic level category</strong>. For example when you see a parrot in the image, 'parrot' will obviously be a correct answer but also correct is 'bird'. However, 'animal' will <strong>not</strong> be counted as a correct response. For the example above, 'rose' would be correct or 'flower', but not 'plant'. When soccer players are depicted, 'soccer', 'football', 'soccer players' will be correct, but not 'humans', 'outdoors', or 'sports'. You do not need to describe the image in full, just name the main object in it <strong>in one or two words</strong>. All images depict objects from one of the following broad level categories: animals, inanimate objects, plants, sports, vehicles, and food. Recognizing means knowing <strong>more</strong> than these broad labels for a given image. But we always encourage you to <strong>make a guess</strong> if you can. Note that you are allowed to use <strong>Dutch and English</strong> in your answers, whatever comes easiest for you.</p><p>Press any key to continue.</p></div>","32","instructions","html-keyboard-response","4","112971","0.0-4.0","3378780","co34363","norming","","","","","","",""
"16086","<div style='word-wrap: break-word; width: 900px'><h3>Instructions</h3> <p>Next, the solution image will be revealed to you and you'll be asked to indicate how strong your <strong>aha-experience</strong> was after seeing the solution. This describes the positive feeling of the 'click' you sometimes experience, when the pieces of the 'puzzle' fall together and you suddenly have 'insight' in the image.</p><img src='aha.jpg' height='188' width='250'></img><p>Note that there are no right or wrong answers. We are interested in what <strong>you</strong> see in the image and how <strong>you</strong> feel about it.</p><p>Press any key to start the experiment.</p></div>","32","instructions","html-keyboard-response","5","129059","0.0-5.0","3378780","co34363","norming","","","","","","",""
"null","<div style=""font-size:60px;""> </div>","null","fixation","html-keyboard-response","6","129261","0.0-6.0-0.0","3378780","co34363","norming","","","","","","",""
"null","../img/tt/1362tt.jpg","null","mooney1","image-keyboard-response","7","132265","0.0-6.0-1.0","3378780","co34363","norming","","","","","","",""
"11774","","","post_mooney1_questions","survey-likert","8","144041","0.0-6.0-2.0","3378780","co34363","norming","","","{""curiosity"":5,""confidence"":1}","[0,1]","../img/tt/1362tt.jpg","",""
"21614","","","recognition","survey-text","9","165663","0.0-6.0-3.0","3378780","co34363","norming","","","{""guess"":""Pots and pans on a stove""}","","../img/tt/1362tt.jpg","",""
"null","../img/gs/1362gs.jpg","null","reveal","image-keyboard-response","10","167665","0.0-6.0-4.0","3378780","co34363","norming","","","","","","",""
"null","../img/tt/1362tt.jpg","null","mooney2","image-keyboard-response","11","169667","0.0-6.0-5.0","3378780","co34363","norming","","","","","","",""
"7711","","","post_reveal_questions","survey-likert","12","177380","0.0-6.0-6.0","3378780","co34363","norming","","","{""aha"":2}","[0]","../img/tt/1362tt.jpg","",""
"null","<div style=""font-size:60px;""> </div>","null","fixation","html-keyboard-response","13","177584","0.0-6.0-0.1","3378780","co34363","norming","","","","","","",""
"null","../img/tt/477tt.jpg","null","mooney1","image-keyboard-response","14","180586","0.0-6.0-1.1","3378780","co34363","norming","","","","","","",""
"6456","","","post_mooney1_questions","survey-likert","15","187045","0.0-6.0-2.1","3378780","co34363","norming","","","{""curiosity"":6,""confidence"":0}","[0,1]","../img/tt/477tt.jpg","",""
"21541","","","recognition","survey-text","16","208596","0.0-6.0-3.1","3378780","co34363","norming","","","{""guess"":""Person""}","","../img/tt/477tt.jpg","",""
"null","../img/gs/477gs.jpg","null","reveal","image-keyboard-response","17","210598","0.0-6.0-4.1","3378780","co34363","norming","","","","","","",""
"null","../img/tt/477tt.jpg","null","mooney2","image-keyboard-response","18","212600","0.0-6.0-5.1","3378780","co34363","norming","","","","","","",""
"3190","","","post_reveal_questions","survey-likert","19","215792","0.0-6.0-6.1","3378780","co34363","norming","","","{""aha"":6}","[0]","../img/tt/477tt.jpg","",""
"null","<div style=""font-size:60px;""> </div>","null","fixation","html-keyboard-response","20","215996","0.0-6.0-0.2","3378780","co34363","norming","","","","","","",""
"null","../img/tt/456tt.jpg","null","mooney1","image-keyboard-response","21","218998","0.0-6.0-1.2","3378780","co34363","norming","","","","","","",""
"9778","","","post_mooney1_questions","survey-likert","22","228778","0.0-6.0-2.2","3378780","co34363","norming","","","{""curiosity"":5,""confidence"":1}","[0,1]","../img/tt/456tt.jpg","",""
"4026","","","recognition","survey-text","23","232812","0.0-6.0-3.2","3378780","co34363","norming","","","{""guess"":""shoe""}","","../img/tt/456tt.jpg","",""
"null","../img/gs/456gs.jpg","null","reveal","image-keyboard-response","24","234814","0.0-6.0-4.2","3378780","co34363","norming","","","","","","",""
"null","../img/tt/456tt.jpg","null","mooney2","image-keyboard-response","25","236816","0.0-6.0-5.2","3378780","co34363","norming","","","","","","",""
"5269","","","post_reveal_questions","survey-likert","26","242087","0.0-6.0-6.2","3378780","co34363","norming","","","{""aha"":5}","[0]","../img/tt/456tt.jpg","",""
"null","<div style=""font-size:60px;""> </div>","null","fixation","html-keyboard-response","27","242291","0.0-6.0-0.3","3378780","co34363","norming","","","","","","",""
"null","../img/tt/1107tt.jpg","null","mooney1","image-keyboard-response","28","245293","0.0-6.0-1.3","3378780","co34363","norming","","","","","","",""
"5838.999999999971","","","post_mooney1_questions","survey-likert","29","251134","0.0-6.0-2.3","3378780","co34363","norming","","","{""curiosity"":5,""confidence"":1}","[0,1]","../img/tt/1107tt.jpg","",""
"4005","","","recognition","survey-text","30","255148","0.0-6.0-3.3","3378780","co34363","norming","","","{""guess"":""a kitten""}","","../img/tt/1107tt.jpg","",""
"null","../img/gs/1107gs.jpg","null","reveal","image-keyboard-response","31","257150","0.0-6.0-4.3","3378780","co34363","norming","","","","","","",""
"null","../img/tt/1107tt.jpg","null","mooney2","image-keyboard-response","32","259152","0.0-6.0-5.3","3378780","co34363","norming","","","","","","",""
"3687","","","post_reveal_questions","survey-likert","33","262840","0.0-6.0-6.3","3378780","co34363","norming","","","{""aha"":3}","[0]","../img/tt/1107tt.jpg","",""
"null","<div style=""font-size:60px;""> </div>","null","fixation","html-keyboard-response","34","263044","0.0-6.0-0.4","3378780","co34363","norming","","","","","","",""
"null","../img/tt/315tt.jpg","null","mooney1","image-keyboard-response","35","266046","0.0-6.0-1.4","3378780","co34363","norming","","","","","","",""
"7183","","","post_mooney1_questions","survey-likert","36","273231","0.0-6.0-2.4","3378780","co34363","norming","","","{""curiosity"":6,""confidence"":0}","[0,1]","../img/tt/315tt.jpg","",""
"3192","","","recognition","survey-text","37","276430","0.0-6.0-3.4","3378780","co34363","norming","","","{""guess"":""Eagle""}","","../img/tt/315tt.jpg","",""
"null","../img/gs/315gs.jpg","null","reveal","image-keyboard-response","38","278431","0.0-6.0-4.4","3378780","co34363","norming","","","","","","",""
"null","../img/tt/315tt.jpg","null","mooney2","image-keyboard-response","39","280432","0.0-6.0-5.4","3378780","co34363","norming","","","","","","",""
"9193","","","post_reveal_questions","survey-likert","40","289627","0.0-6.0-6.4","3378780","co34363","norming","","","{""aha"":5}","[0]","../img/tt/315tt.jpg","",""
"null","<div style=""font-size:60px;""> </div>","null","fixation","html-keyboard-response","41","289831","0.0-6.0-0.5","3378780","co34363","norming","","","","","","",""
"null","../img/tt/378tt.jpg","null","mooney1","image-keyboard-response","42","292833","0.0-6.0-1.5","3378780","co34363","norming","","","","","","",""
"10702","","","post_mooney1_questions","survey-likert","43","303537","0.0-6.0-2.5","3378780","co34363","norming","","","{""curiosity"":6,""confidence"":0}","[0,1]","../img/tt/378tt.jpg","",""
"5249","","","recognition","survey-text","44","308794","0.0-6.0-3.5","3378780","co34363","norming","","","{""guess"":""""}","","../img/tt/378tt.jpg","",""
"null","../img/gs/378gs.jpg","null","reveal","image-keyboard-response","45","310796","0.0-6.0-4.5","3378780","co34363","norming","","","","","","",""
"null","../img/tt/378tt.jpg","null","mooney2","image-keyboard-response","46","312799","0.0-6.0-5.5","3378780","co34363","norming","","","","","","",""
"3519.000000000058","","","post_reveal_questions","survey-likert","47","316319","0.0-6.0-6.5","3378780","co34363","norming","","","{""aha"":6}","[0]","../img/tt/378tt.jpg","",""
"null","<div style=""font-size:60px;""> </div>","null","fixation","html-keyboard-response","48","316522","0.0-6.0-0.6","3378780","co34363","norming","","","","","","",""
"null","../img/tt/1046tt.jpg","null","mooney1","image-keyboard-response","49","319525","0.0-6.0-1.6","3378780","co34363","norming","","","","","","",""
"10587","","","post_mooney1_questions","survey-likert","50","330114","0.0-6.0-2.6","3378780","co34363","norming","","","{""curiosity"":6,""confidence"":0}","[0,1]","../img/tt/1046tt.jpg","",""
"9450","","","recognition","survey-text","51","339572","0.0-6.0-3.6","3378780","co34363","norming","","","{""guess"":""Plate with food""}","","../img/tt/1046tt.jpg","",""
"null","../img/gs/1046gs.jpg","null","reveal","image-keyboard-response","52","341575","0.0-6.0-4.6","3378780","co34363","norming","","","","","","",""
"null","../img/tt/1046tt.jpg","null","mooney2","image-keyboard-response","53","343578","0.0-6.0-5.6","3378780","co34363","norming","","","","","","",""
"3219","","","post_reveal_questions","survey-likert","54","346798","0.0-6.0-6.6","3378780","co34363","norming","","","{""aha"":6}","[0]","../img/tt/1046tt.jpg","",""
"null","<div style=""font-size:60px;""> </div>","null","fixation","html-keyboard-response","55","347002","0.0-6.0-0.7","3378780","co34363","norming","","","","","","",""
"null","../img/tt/1012tt.jpg","null","mooney1","image-keyboard-response","56","350004","0.0-6.0-1.7","3378780","co34363","norming","","","","","","",""
"15123","","","post_mooney1_questions","survey-likert","57","365130","0.0-6.0-2.7","3378780","co34363","norming","","","{""curiosity"":5,""confidence"":0}","[0,1]","../img/tt/1012tt.jpg","",""
"5055","","","recognition","survey-text","58","370192","0.0-6.0-3.7","3378780","co34363","norming","","","{""guess"":""sleeping dog""}","","../img/tt/1012tt.jpg","",""
"null","../img/gs/1012gs.jpg","null","reveal","image-keyboard-response","59","372195","0.0-6.0-4.7","3378780","co34363","norming","","","","","","",""
"null","../img/tt/1012tt.jpg","null","mooney2","image-keyboard-response","60","374197","0.0-6.0-5.7","3378780","co34363","norming","","","","","","",""
"2432.000000000058","","","post_reveal_questions","survey-likert","61","376631","0.0-6.0-6.7","3378780","co34363","norming","","","{""aha"":6}","[0]","../img/tt/1012tt.jpg","",""
"null","<div style=""font-size:60px;""> </div>","null","fixation","html-keyboard-response","62","376835","0.0-6.0-0.8","3378780","co34363","norming","","","","","","",""
"null","../img/tt/1053tt.jpg","null","mooney1","image-keyboard-response","63","379837","0.0-6.0-1.8","3378780","co34363","norming","","","","","","",""
"14342","","","post_mooney1_questions","survey-likert","64","394181","0.0-6.0-2.8","3378780","co34363","norming","","","{""curiosity"":5,""confidence"":1}","[0,1]","../img/tt/1053tt.jpg","",""
"4214","","","recognition","survey-text","65","398404","0.0-6.0-3.8","3378780","co34363","norming","","","{""guess"":""Elephant""}","","../img/tt/1053tt.jpg","",""
"null","../img/gs/1053gs.jpg","null","reveal","image-keyboard-response","66","400407","0.0-6.0-4.8","3378780","co34363","norming","","","","","","",""
"null","../img/tt/1053tt.jpg","null","mooney2","image-keyboard-response","67","402409","0.0-6.0-5.8","3378780","co34363","norming","","","","","","",""
"3290","","","post_reveal_questions","survey-likert","68","405701","0.0-6.0-6.8","3378780","co34363","norming","","","{""aha"":5}","[0]","../img/tt/1053tt.jpg","",""
"null","<div style=""font-size:60px;""> </div>","null","fixation","html-keyboard-response","69","405904","0.0-6.0-0.9","3378780","co34363","norming","","","","","","",""
"null","../img/tt/1272tt.jpg","null","mooney1","image-keyboard-response","70","408907","0.0-6.0-1.9","3378780","co34363","norming","","","","","","",""
"4646.000000000058","","","post_mooney1_questions","survey-likert","71","413555","0.0-6.0-2.9","3378780","co34363","norming","","","{""curiosity"":5,""confidence"":2}","[0,1]","../img/tt/1272tt.jpg","",""
"2384","","","recognition","survey-text","72","415948","0.0-6.0-3.9","3378780","co34363","norming","","","{""guess"":""Reptile""}","","../img/tt/1272tt.jpg","",""
"null","../img/gs/1272gs.jpg","null","reveal","image-keyboard-response","73","417951","0.0-6.0-4.9","3378780","co34363","norming","","","","","","",""
"null","../img/tt/1272tt.jpg","null","mooney2","image-keyboard-response","74","419952","0.0-6.0-5.9","3378780","co34363","norming","","","","","","",""
"2949.999999999942","","","post_reveal_questions","survey-likert","75","422904","0.0-6.0-6.9","3378780","co34363","norming","","","{""aha"":6}","[0]","../img/tt/1272tt.jpg","",""
"null","<div style=""font-size:60px;""> </div>","null","fixation","html-keyboard-response","76","423107","0.0-6.0-0.10","3378780","co34363","norming","","","","","","",""
"null","../img/tt/1190tt.jpg","null","mooney1","image-keyboard-response","77","426110","0.0-6.0-1.10","3378780","co34363","norming","","","","","","",""
"16270","","","post_mooney1_questions","survey-likert","78","442383","0.0-6.0-2.10","3378780","co34363","norming","","","{""curiosity"":4,""confidence"":1}","[0,1]","../img/tt/1190tt.jpg","",""
"7786","","","recognition","survey-text","79","450177","0.0-6.0-3.10","3378780","co34363","norming","","","{""guess"":""""}","","../img/tt/1190tt.jpg","",""
"null","../img/gs/1190gs.jpg","null","reveal","image-keyboard-response","80","452180","0.0-6.0-4.10","3378780","co34363","norming","","","","","","",""
"null","../img/tt/1190tt.jpg","null","mooney2","image-keyboard-response","81","454182","0.0-6.0-5.10","3378780","co34363","norming","","","","","","",""
"2053","","","post_reveal_questions","survey-likert","82","456236","0.0-6.0-6.10","3378780","co34363","norming","","","{""aha"":5}","[0]","../img/tt/1190tt.jpg","",""
"null","<div style=""font-size:60px;""> </div>","null","fixation","html-keyboard-response","83","456440","0.0-6.0-0.11","3378780","co34363","norming","","","","","","",""
"null","../img/tt/329tt.jpg","null","mooney1","image-keyboard-response","84","459442","0.0-6.0-1.11","3378780","co34363","norming","","","","","","",""
"7272.999999999942","","","post_mooney1_questions","survey-likert","85","466717","0.0-6.0-2.11","3378780","co34363","norming","","","{""curiosity"":5,""confidence"":0}","[0,1]","../img/tt/329tt.jpg","",""
"811","","","recognition","survey-text","86","467537","0.0-6.0-3.11","3378780","co34363","norming","","","{""guess"":""""}","","../img/tt/329tt.jpg","",""
"null","../img/gs/329gs.jpg","null","reveal","image-keyboard-response","87","469539","0.0-6.0-4.11","3378780","co34363","norming","","","","","","",""
"null","../img/tt/329tt.jpg","null","mooney2","image-keyboard-response","88","471542","0.0-6.0-5.11","3378780","co34363","norming","","","","","","",""
"3149","","","post_reveal_questions","survey-likert","89","474693","0.0-6.0-6.11","3378780","co34363","norming","","","{""aha"":6}","[0]","../img/tt/329tt.jpg","",""
"null","<div style=""font-size:60px;""> </div>","null","fixation","html-keyboard-response","90","474896","0.0-6.0-0.12","3378780","co34363","norming","","","","","","",""
"null","../img/tt/1307tt.jpg","null","mooney1","image-keyboard-response","91","477898","0.0-6.0-1.12","3378780","co34363","norming","","","","","","",""
"7359.000000000058","","","post_mooney1_questions","survey-likert","92","485259","0.0-6.0-2.12","3378780","co34363","norming","","","{""curiosity"":6,""confidence"":3}","[0,1]","../img/tt/1307tt.jpg","",""
"5418","","","recognition","survey-text","93","490685","0.0-6.0-3.12","3378780","co34363","norming","","","{""guess"":""Airballoon""}","","../img/tt/1307tt.jpg","",""
"null","../img/gs/1307gs.jpg","null","reveal","image-keyboard-response","94","492687","0.0-6.0-4.12","3378780","co34363","norming","","","","","","",""
"null","../img/tt/1307tt.jpg","null","mooney2","image-keyboard-response","95","494690","0.0-6.0-5.12","3378780","co34363","norming","","","","","","",""
"2559","","","post_reveal_questions","survey-likert","96","497251","0.0-6.0-6.12","3378780","co34363","norming","","","{""aha"":1}","[0]","../img/tt/1307tt.jpg","",""
"null","<div style=""font-size:60px;""> </div>","null","fixation","html-keyboard-response","97","497453","0.0-6.0-0.13","3378780","co34363","norming","","","","","","",""
"null","../img/tt/567tt.jpg","null","mooney1","image-keyboard-response","98","500455","0.0-6.0-1.13","3378780","co34363","norming","","","","","","",""
"8193","","","post_mooney1_questions","survey-likert","99","508651","0.0-6.0-2.13","3378780","co34363","norming","","","{""curiosity"":5,""confidence"":2}","[0,1]","../img/tt/567tt.jpg","",""
"3342","","","recognition","survey-text","100","512000","0.0-6.0-3.13","3378780","co34363","norming","","","{""guess"":""toothbrush""}","","../img/tt/567tt.jpg","",""
"null","../img/gs/567gs.jpg","null","reveal","image-keyboard-response","101","514003","0.0-6.0-4.13","3378780","co34363","norming","","","","","","",""
"null","../img/tt/567tt.jpg","null","mooney2","image-keyboard-response","102","516005","0.0-6.0-5.13","3378780","co34363","norming","","","","","","",""
"2182","","","post_reveal_questions","survey-likert","103","518189","0.0-6.0-6.13","3378780","co34363","norming","","","{""aha"":6}","[0]","../img/tt/567tt.jpg","",""
"null","<div style=""font-size:60px;""> </div>","null","fixation","html-keyboard-response","104","518391","0.0-6.0-0.14","3378780","co34363","norming","","","","","","",""
"null","../img/tt/076tt.jpg","null","mooney1","image-keyboard-response","105","521393","0.0-6.0-1.14","3378780","co34363","norming","","","","","","",""
"5554","","","post_mooney1_questions","survey-likert","106","526949","0.0-6.0-2.14","3378780","co34363","norming","","","{""curiosity"":4,""confidence"":3}","[0,1]","../img/tt/076tt.jpg","",""
"2580","","","recognition","survey-text","107","529537","0.0-6.0-3.14","3378780","co34363","norming","","","{""guess"":""Skeelers""}","","../img/tt/076tt.jpg","",""
"null","../img/gs/076gs.jpg","null","reveal","image-keyboard-response","108","531540","0.0-6.0-4.14","3378780","co34363","norming","","","","","","",""
"null","../img/tt/076tt.jpg","null","mooney2","image-keyboard-response","109","533541","0.0-6.0-5.14","3378780","co34363","norming","","","","","","",""
"2672","","","post_reveal_questions","survey-likert","110","536215","0.0-6.0-6.14","3378780","co34363","norming","","","{""aha"":0}","[0]","../img/tt/076tt.jpg","",""
"null","<div style=""font-size:60px;""> </div>","null","fixation","html-keyboard-response","111","536418","0.0-6.0-0.15","3378780","co34363","norming","","","","","","",""
"null","../img/tt/438tt.jpg","null","mooney1","image-keyboard-response","112","539421","0.0-6.0-1.15","3378780","co34363","norming","","","","","","",""
"4807","","","post_mooney1_questions","survey-likert","113","544230","0.0-6.0-2.15","3378780","co34363","norming","","","{""curiosity"":5,""confidence"":2}","[0,1]","../img/tt/438tt.jpg","",""
"2225","","","recognition","survey-text","114","546463","0.0-6.0-3.15","3378780","co34363","norming","","","{""guess"":""Crocodille""}","","../img/tt/438tt.jpg","",""
"null","../img/gs/438gs.jpg","null","reveal","image-keyboard-response","115","548465","0.0-6.0-4.15","3378780","co34363","norming","","","","","","",""
"null","../img/tt/438tt.jpg","null","mooney2","image-keyboard-response","116","550467","0.0-6.0-5.15","3378780","co34363","norming","","","","","","",""
"11116","","","post_reveal_questions","survey-likert","117","561586","0.0-6.0-6.15","3378780","co34363","norming","","","{""aha"":3}","[0]","../img/tt/438tt.jpg","",""
"null","<div style=""font-size:60px;""> </div>","null","fixation","html-keyboard-response","118","561789","0.0-6.0-0.16","3378780","co34363","norming","","","","","","",""
"null","../img/tt/1234tt.jpg","null","mooney1","image-keyboard-response","119","564791","0.0-6.0-1.16","3378780","co34363","norming","","","","","","",""
"8802","","","post_mooney1_questions","survey-likert","120","573595","0.0-6.0-2.16","3378780","co34363","norming","","","{""curiosity"":5,""confidence"":3}","[0,1]","../img/tt/1234tt.jpg","",""
"3340","","","recognition","survey-text","121","576943","0.0-6.0-3.16","3378780","co34363","norming","","","{""guess"":""sea sunset""}","","../img/tt/1234tt.jpg","",""
"null","../img/gs/1234gs.jpg","null","reveal","image-keyboard-response","122","578946","0.0-6.0-4.16","3378780","co34363","norming","","","","","","",""
"null","../img/tt/1234tt.jpg","null","mooney2","image-keyboard-response","123","580948","0.0-6.0-5.16","3378780","co34363","norming","","","","","","",""
"2242","","","post_reveal_questions","survey-likert","124","583192","0.0-6.0-6.16","3378780","co34363","norming","","","{""aha"":5}","[0]","../img/tt/1234tt.jpg","",""
"null","<div style=""font-size:60px;""> </div>","null","fixation","html-keyboard-response","125","583395","0.0-6.0-0.17","3378780","co34363","norming","","","","","","",""
"null","../img/tt/1217tt.jpg","null","mooney1","image-keyboard-response","126","586398","0.0-6.0-1.17","3378780","co34363","norming","","","","","","",""
"4353","","","post_mooney1_questions","survey-likert","127","590753","0.0-6.0-2.17","3378780","co34363","norming","","","{""curiosity"":6,""confidence"":1}","[0,1]","../img/tt/1217tt.jpg","",""
"8034","","","recognition","survey-text","128","598796","0.0-6.0-3.17","3378780","co34363","norming","","","{""guess"":""""}","","../img/tt/1217tt.jpg","",""
"null","../img/gs/1217gs.jpg","null","reveal","image-keyboard-response","129","600798","0.0-6.0-4.17","3378780","co34363","norming","","","","","","",""
"null","../img/tt/1217tt.jpg","null","mooney2","image-keyboard-response","130","602800","0.0-6.0-5.17","3378780","co34363","norming","","","","","","",""
"2641","","","post_reveal_questions","survey-likert","131","605442","0.0-6.0-6.17","3378780","co34363","norming","","","{""aha"":5}","[0]","../img/tt/1217tt.jpg","",""
"null","<div style=""font-size:60px;""> </div>","null","fixation","html-keyboard-response","132","605645","0.0-6.0-0.18","3378780","co34363","norming","","","","","","",""
"null","../img/tt/036tt.jpg","null","mooney1","image-keyboard-response","133","608648","0.0-6.0-1.18","3378780","co34363","norming","","","","","","",""
"5959","","","post_mooney1_questions","survey-likert","134","614610","0.0-6.0-2.18","3378780","co34363","norming","","","{""curiosity"":3,""confidence"":4}","[0,1]","../img/tt/036tt.jpg","",""
"5023","","","recognition","survey-text","135","619641","0.0-6.0-3.18","3378780","co34363","norming","","","{""guess"":""Lightning""}","","../img/tt/036tt.jpg","",""
"null","../img/gs/036gs.jpg","null","reveal","image-keyboard-response","136","621644","0.0-6.0-4.18","3378780","co34363","norming","","","","","","",""
"null","../img/tt/036tt.jpg","null","mooney2","image-keyboard-response","137","623646","0.0-6.0-5.18","3378780","co34363","norming","","","","","","",""
"3133","","","post_reveal_questions","survey-likert","138","626780","0.0-6.0-6.18","3378780","co34363","norming","","","{""aha"":1}","[0]","../img/tt/036tt.jpg","",""
"null","<div style=""font-size:60px;""> </div>","null","fixation","html-keyboard-response","139","626984","0.0-6.0-0.19","3378780","co34363","norming","","","","","","",""
"null","../img/tt/1250tt.jpg","null","mooney1","image-keyboard-response","140","629986","0.0-6.0-1.19","3378780","co34363","norming","","","","","","",""
"5908.000000000116","","","post_mooney1_questions","survey-likert","141","635897","0.0-6.0-2.19","3378780","co34363","norming","","","{""curiosity"":5,""confidence"":3}","[0,1]","../img/tt/1250tt.jpg","",""
"11469","","","recognition","survey-text","142","647374","0.0-6.0-3.19","3378780","co34363","norming","","","{""guess"":""Seal""}","","../img/tt/1250tt.jpg","",""
"null","../img/gs/1250gs.jpg","null","reveal","image-keyboard-response","143","649377","0.0-6.0-4.19","3378780","co34363","norming","","","","","","",""
"null","../img/tt/1250tt.jpg","null","mooney2","image-keyboard-response","144","651379","0.0-6.0-5.19","3378780","co34363","norming","","","","","","",""
"5165","","","post_reveal_questions","survey-likert","145","656545","0.0-6.0-6.19","3378780","co34363","norming","","","{""aha"":5}","[0]","../img/tt/1250tt.jpg","",""
"null","<div style=""font-size:60px;""> </div>","null","fixation","html-keyboard-response","146","656749","0.0-6.0-0.20","3378780","co34363","norming","","","","","","",""
"null","../img/tt/1224tt.jpg","null","mooney1","image-keyboard-response","147","659752","0.0-6.0-1.20","3378780","co34363","norming","","","","","","",""
"15894","","","post_mooney1_questions","survey-likert","148","675649","0.0-6.0-2.20","3378780","co34363","norming","","","{""curiosity"":5,""confidence"":2}","[0,1]","../img/tt/1224tt.jpg","",""
"1905","","","recognition","survey-text","149","677562","0.0-6.0-3.20","3378780","co34363","norming","","","{""guess"":""person""}","","../img/tt/1224tt.jpg","",""
"null","../img/gs/1224gs.jpg","null","reveal","image-keyboard-response","150","679563","0.0-6.0-4.20","3378780","co34363","norming","","","","","","",""
"null","../img/tt/1224tt.jpg","null","mooney2","image-keyboard-response","151","681564","0.0-6.0-5.20","3378780","co34363","norming","","","","","","",""
"1920","","","post_reveal_questions","survey-likert","152","683486","0.0-6.0-6.20","3378780","co34363","norming","","","{""aha"":6}","[0]","../img/tt/1224tt.jpg","",""
"null","<div style=""font-size:60px;""> </div>","null","fixation","html-keyboard-response","153","683689","0.0-6.0-0.21","3378780","co34363","norming","","","","","","",""
"null","../img/tt/1156tt.jpg","null","mooney1","image-keyboard-response","154","686692","0.0-6.0-1.21","3378780","co34363","norming","","","","","","",""
"8914","","","post_mooney1_questions","survey-likert","155","695607","0.0-6.0-2.21","3378780","co34363","norming","","","{""curiosity"":5,""confidence"":2}","[0,1]","../img/tt/1156tt.jpg","",""
"9045","","","recognition","survey-text","156","704660","0.0-6.0-3.21","3378780","co34363","norming","","","{""guess"":""lady in bikini""}","","../img/tt/1156tt.jpg","",""
"null","../img/gs/1156gs.jpg","null","reveal","image-keyboard-response","157","706663","0.0-6.0-4.21","3378780","co34363","norming","","","","","","",""
"null","../img/tt/1156tt.jpg","null","mooney2","image-keyboard-response","158","708665","0.0-6.0-5.21","3378780","co34363","norming","","","","","","",""
"2362","","","post_reveal_questions","survey-likert","159","711028","0.0-6.0-6.21","3378780","co34363","norming","","","{""aha"":1}","[0]","../img/tt/1156tt.jpg","",""
"null","<div style=""font-size:60px;""> </div>","null","fixation","html-keyboard-response","160","711232","0.0-6.0-0.22","3378780","co34363","norming","","","","","","",""
"null","../img/tt/1043tt.jpg","null","mooney1","image-keyboard-response","161","714234","0.0-6.0-1.22","3378780","co34363","norming","","","","","","",""
"3635.9999999998836","","","post_mooney1_questions","survey-likert","162","717872","0.0-6.0-2.22","3378780","co34363","norming","","","{""curiosity"":5,""confidence"":2}","[0,1]","../img/tt/1043tt.jpg","",""
"2887","","","recognition","survey-text","163","720769","0.0-6.0-3.22","3378780","co34363","norming","","","{""guess"":""Trumpet""}","","../img/tt/1043tt.jpg","",""
"null","../img/gs/1043gs.jpg","null","reveal","image-keyboard-response","164","722771","0.0-6.0-4.22","3378780","co34363","norming","","","","","","",""
"null","../img/tt/1043tt.jpg","null","mooney2","image-keyboard-response","165","724773","0.0-6.0-5.22","3378780","co34363","norming","","","","","","",""
"3841.9999999998836","","","post_reveal_questions","survey-likert","166","728616","0.0-6.0-6.22","3378780","co34363","norming","","","{""aha"":5}","[0]","../img/tt/1043tt.jpg","",""
"null","<div style=""font-size:60px;""> </div>","null","fixation","html-keyboard-response","167","728819","0.0-6.0-0.23","3378780","co34363","norming","","","","","","",""
"null","../img/tt/1241tt.jpg","null","mooney1","image-keyboard-response","168","731820","0.0-6.0-1.23","3378780","co34363","norming","","","","","","",""
"6476","","","post_mooney1_questions","survey-likert","169","738298","0.0-6.0-2.23","3378780","co34363","norming","","","{""curiosity"":5,""confidence"":3}","[0,1]","../img/tt/1241tt.jpg","",""
"4670","","","recognition","survey-text","170","742975","0.0-6.0-3.23","3378780","co34363","norming","","","{""guess"":""Bears""}","","../img/tt/1241tt.jpg","",""
"null","../img/gs/1241gs.jpg","null","reveal","image-keyboard-response","171","744977","0.0-6.0-4.23","3378780","co34363","norming","","","","","","",""
"null","../img/tt/1241tt.jpg","null","mooney2","image-keyboard-response","172","746980","0.0-6.0-5.23","3378780","co34363","norming","","","","","","",""
"7431","","","post_reveal_questions","survey-likert","173","754413","0.0-6.0-6.23","3378780","co34363","norming","","","{""aha"":4}","[0]","../img/tt/1241tt.jpg","",""
"null","<div style=""font-size:60px;""> </div>","null","fixation","html-keyboard-response","174","754616","0.0-6.0-0.24","3378780","co34363","norming","","","","","","",""
"null","../img/tt/1242tt.jpg","null","mooney1","image-keyboard-response","175","757618","0.0-6.0-1.24","3378780","co34363","norming","","","","","","",""
"12926","","","post_mooney1_questions","survey-likert","176","770547","0.0-6.0-2.24","3378780","co34363","norming","","","{""curiosity"":6,""confidence"":0}","[0,1]","../img/tt/1242tt.jpg","",""
"1352","","","recognition","survey-text","177","771908","0.0-6.0-3.24","3378780","co34363","norming","","","{""guess"":""""}","","../img/tt/1242tt.jpg","",""
"null","../img/gs/1242gs.jpg","null","reveal","image-keyboard-response","178","773910","0.0-6.0-4.24","3378780","co34363","norming","","","","","","",""
"null","../img/tt/1242tt.jpg","null","mooney2","image-keyboard-response","179","775912","0.0-6.0-5.24","3378780","co34363","norming","","","","","","",""
"2199.0000000001164","","","post_reveal_questions","survey-likert","180","778113","0.0-6.0-6.24","3378780","co34363","norming","","","{""aha"":6}","[0]","../img/tt/1242tt.jpg","",""
"null","<div style=""font-size:60px;""> </div>","null","fixation","html-keyboard-response","181","778316","0.0-6.0-0.25","3378780","co34363","norming","","","","","","",""
"null","../img/tt/1202tt.jpg","null","mooney1","image-keyboard-response","182","781319","0.0-6.0-1.25","3378780","co34363","norming","","","","","","",""
"11028.000000000116","","","post_mooney1_questions","survey-likert","183","792349","0.0-6.0-2.25","3378780","co34363","norming","","","{""curiosity"":6,""confidence"":1}","[0,1]","../img/tt/1202tt.jpg","",""
"3644","","","recognition","survey-text","184","796002","0.0-6.0-3.25","3378780","co34363","norming","","","{""guess"":""Man working""}","","../img/tt/1202tt.jpg","",""
"null","../img/gs/1202gs.jpg","null","reveal","image-keyboard-response","185","798004","0.0-6.0-4.25","3378780","co34363","norming","","","","","","",""
"null","../img/tt/1202tt.jpg","null","mooney2","image-keyboard-response","186","800007","0.0-6.0-5.25","3378780","co34363","norming","","","","","","",""
"7759.999999999884","","","post_reveal_questions","survey-likert","187","807767","0.0-6.0-6.25","3378780","co34363","norming","","","{""aha"":5}","[0]","../img/tt/1202tt.jpg","",""
"null","<div style=""font-size:60px;""> </div>","null","fixation","html-keyboard-response","188","807971","0.0-6.0-0.26","3378780","co34363","norming","","","","","","",""
"null","../img/tt/1044tt.jpg","null","mooney1","image-keyboard-response","189","810973","0.0-6.0-1.26","3378780","co34363","norming","","","","","","",""
"6895","","","post_mooney1_questions","survey-likert","190","817870","0.0-6.0-2.26","3378780","co34363","norming","","","{""curiosity"":5,""confidence"":1}","[0,1]","../img/tt/1044tt.jpg","",""
"1309","","","recognition","survey-text","191","819188","0.0-6.0-3.26","3378780","co34363","norming","","","{""guess"":""shoes""}","","../img/tt/1044tt.jpg","",""
"null","../img/gs/1044gs.jpg","null","reveal","image-keyboard-response","192","821191","0.0-6.0-4.26","3378780","co34363","norming","","","","","","",""
"null","../img/tt/1044tt.jpg","null","mooney2","image-keyboard-response","193","823193","0.0-6.0-5.26","3378780","co34363","norming","","","","","","",""
"2515","","","post_reveal_questions","survey-likert","194","825709","0.0-6.0-6.26","3378780","co34363","norming","","","{""aha"":6}","[0]","../img/tt/1044tt.jpg","",""
"null","<div style=""font-size:60px;""> </div>","null","fixation","html-keyboard-response","195","825913","0.0-6.0-0.27","3378780","co34363","norming","","","","","","",""
"null","../img/tt/140tt.jpg","null","mooney1","image-keyboard-response","196","828915","0.0-6.0-1.27","3378780","co34363","norming","","","","","","",""
"7446","","","post_mooney1_questions","survey-likert","197","836362","0.0-6.0-2.27","3378780","co34363","norming","","","{""curiosity"":5,""confidence"":1}","[0,1]","../img/tt/140tt.jpg","",""
"1631","","","recognition","survey-text","198","838002","0.0-6.0-3.27","3378780","co34363","norming","","","{""guess"":""Canary""}","","../img/tt/140tt.jpg","",""
"null","../img/gs/140gs.jpg","null","reveal","image-keyboard-response","199","840005","0.0-6.0-4.27","3378780","co34363","norming","","","","","","",""
"null","../img/tt/140tt.jpg","null","mooney2","image-keyboard-response","200","842007","0.0-6.0-5.27","3378780","co34363","norming","","","","","","",""
"2596.9999999998836","","","post_reveal_questions","survey-likert","201","844605","0.0-6.0-6.27","3378780","co34363","norming","","","{""aha"":5}","[0]","../img/tt/140tt.jpg","",""
"null","<div style=""font-size:60px;""> </div>","null","fixation","html-keyboard-response","202","844806","0.0-6.0-0.28","3378780","co34363","norming","","","","","","",""
"null","../img/tt/1146tt.jpg","null","mooney1","image-keyboard-response","203","847809","0.0-6.0-1.28","3378780","co34363","norming","","","","","","",""
"5438.000000000116","","","post_mooney1_questions","survey-likert","204","853249","0.0-6.0-2.28","3378780","co34363","norming","","","{""curiosity"":5,""confidence"":2}","[0,1]","../img/tt/1146tt.jpg","",""
"3697","","","recognition","survey-text","205","856953","0.0-6.0-3.28","3378780","co34363","norming","","","{""guess"":""Sitting man""}","","../img/tt/1146tt.jpg","",""
"null","../img/gs/1146gs.jpg","null","reveal","image-keyboard-response","206","858956","0.0-6.0-4.28","3378780","co34363","norming","","","","","","",""
"null","../img/tt/1146tt.jpg","null","mooney2","image-keyboard-response","207","860958","0.0-6.0-5.28","3378780","co34363","norming","","","","","","",""
"2558","","","post_reveal_questions","survey-likert","208","863518","0.0-6.0-6.28","3378780","co34363","norming","","","{""aha"":5}","[0]","../img/tt/1146tt.jpg","",""
"null","<div style=""font-size:60px;""> </div>","null","fixation","html-keyboard-response","209","863720","0.0-6.0-0.29","3378780","co34363","norming","","","","","","",""
"null","../img/tt/405tt.jpg","null","mooney1","image-keyboard-response","210","866722","0.0-6.0-1.29","3378780","co34363","norming","","","","","","",""
"4165","","","post_mooney1_questions","survey-likert","211","870889","0.0-6.0-2.29","3378780","co34363","norming","","","{""curiosity"":5,""confidence"":2}","[0,1]","../img/tt/405tt.jpg","",""
"2533","","","recognition","survey-text","212","873431","0.0-6.0-3.29","3378780","co34363","norming","","","{""guess"":""ice cream""}","","../img/tt/405tt.jpg","",""
"null","../img/gs/405gs.jpg","null","reveal","image-keyboard-response","213","875433","0.0-6.0-4.29","3378780","co34363","norming","","","","","","",""
"null","../img/tt/405tt.jpg","null","mooney2","image-keyboard-response","214","877436","0.0-6.0-5.29","3378780","co34363","norming","","","","","","",""
"7641","","","post_reveal_questions","survey-likert","215","885078","0.0-6.0-6.29","3378780","co34363","norming","","","{""aha"":6}","[0]","../img/tt/405tt.jpg","",""
"null","<div style=""font-size:60px;""> </div>","null","fixation","html-keyboard-response","216","885282","0.0-6.0-0.30","3378780","co34363","norming","","","","","","",""
"null","../img/tt/1279tt.jpg","null","mooney1","image-keyboard-response","217","888283","0.0-6.0-1.30","3378780","co34363","norming","","","","","","",""
"3838","","","post_mooney1_questions","survey-likert","218","892124","0.0-6.0-2.30","3378780","co34363","norming","","","{""curiosity"":5,""confidence"":1}","[0,1]","../img/tt/1279tt.jpg","",""
"1071","","","recognition","survey-text","219","893203","0.0-6.0-3.30","3378780","co34363","norming","","","{""guess"":""rhino""}","","../img/tt/1279tt.jpg","",""
"null","../img/gs/1279gs.jpg","null","reveal","image-keyboard-response","220","895204","0.0-6.0-4.30","3378780","co34363","norming","","","","","","",""
"null","../img/tt/1279tt.jpg","null","mooney2","image-keyboard-response","221","897206","0.0-6.0-5.30","3378780","co34363","norming","","","","","","",""
"6728.999999999884","","","post_reveal_questions","survey-likert","222","903937","0.0-6.0-6.30","3378780","co34363","norming","","","{""aha"":5}","[0]","../img/tt/1279tt.jpg","",""
"null","<div style=""font-size:60px;""> </div>","null","fixation","html-keyboard-response","223","904140","0.0-6.0-0.31","3378780","co34363","norming","","","","","","",""
"null","../img/tt/1101tt.jpg","null","mooney1","image-keyboard-response","224","907143","0.0-6.0-1.31","3378780","co34363","norming","","","","","","",""
"6695","","","post_mooney1_questions","survey-likert","225","913839","0.0-6.0-2.31","3378780","co34363","norming","","","{""curiosity"":4,""confidence"":3}","[0,1]","../img/tt/1101tt.jpg","",""
"1514","","","recognition","survey-text","226","915361","0.0-6.0-3.31","3378780","co34363","norming","","","{""guess"":""man""}","","../img/tt/1101tt.jpg","",""
"null","../img/gs/1101gs.jpg","null","reveal","image-keyboard-response","227","917364","0.0-6.0-4.31","3378780","co34363","norming","","","","","","",""
"null","../img/tt/1101tt.jpg","null","mooney2","image-keyboard-response","228","919365","0.0-6.0-5.31","3378780","co34363","norming","","","","","","",""
"4849.999999999884","","","post_reveal_questions","survey-likert","229","924217","0.0-6.0-6.31","3378780","co34363","norming","","","{""aha"":1}","[0]","../img/tt/1101tt.jpg","",""
"null","<div style=""font-size:60px;""> </div>","null","fixation","html-keyboard-response","230","924421","0.0-6.0-0.32","3378780","co34363","norming","","","","","","",""
"null","../img/tt/1086tt.jpg","null","mooney1","image-keyboard-response","231","927423","0.0-6.0-1.32","3378780","co34363","norming","","","","","","",""
"5129.000000000116","","","post_mooney1_questions","survey-likert","232","932555","0.0-6.0-2.32","3378780","co34363","norming","","","{""curiosity"":5,""confidence"":2}","[0,1]","../img/tt/1086tt.jpg","",""
"2014","","","recognition","survey-text","233","934577","0.0-6.0-3.32","3378780","co34363","norming","","","{""guess"":""cow""}","","../img/tt/1086tt.jpg","",""
"null","../img/gs/1086gs.jpg","null","reveal","image-keyboard-response","234","936580","0.0-6.0-4.32","3378780","co34363","norming","","","","","","",""
"null","../img/tt/1086tt.jpg","null","mooney2","image-keyboard-response","235","938582","0.0-6.0-5.32","3378780","co34363","norming","","","","","","",""
"4689.999999999884","","","post_reveal_questions","survey-likert","236","943274","0.0-6.0-6.32","3378780","co34363","norming","","","{""aha"":5}","[0]","../img/tt/1086tt.jpg","",""
"null","<div style=""font-size:60px;""> </div>","null","fixation","html-keyboard-response","237","943477","0.0-6.0-0.33","3378780","co34363","norming","","","","","","",""
"null","../img/tt/1363tt.jpg","null","mooney1","image-keyboard-response","238","946480","0.0-6.0-1.33","3378780","co34363","norming","","","","","","",""
"5251","","","post_mooney1_questions","survey-likert","239","951732","0.0-6.0-2.33","3378780","co34363","norming","","","{""curiosity"":5,""confidence"":2}","[0,1]","../img/tt/1363tt.jpg","",""
"12289","","","recognition","survey-text","240","964031","0.0-6.0-3.33","3378780","co34363","norming","","","{""guess"":""Pouring can""}","","../img/tt/1363tt.jpg","",""
"null","../img/gs/1363gs.jpg","null","reveal","image-keyboard-response","241","966034","0.0-6.0-4.33","3378780","co34363","norming","","","","","","",""
"null","../img/tt/1363tt.jpg","null","mooney2","image-keyboard-response","242","968036","0.0-6.0-5.33","3378780","co34363","norming","","","","","","",""
"2102","","","post_reveal_questions","survey-likert","243","970140","0.0-6.0-6.33","3378780","co34363","norming","","","{""aha"":0}","[0]","../img/tt/1363tt.jpg","",""
"null","<div style=""font-size:60px;""> </div>","null","fixation","html-keyboard-response","244","970344","0.0-6.0-0.34","3378780","co34363","norming","","","","","","",""
"null","../img/tt/442tt.jpg","null","mooney1","image-keyboard-response","245","973346","0.0-6.0-1.34","3378780","co34363","norming","","","","","","",""
"6039","","","post_mooney1_questions","survey-likert","246","979387","0.0-6.0-2.34","3378780","co34363","norming","","","{""curiosity"":6,""confidence"":2}","[0,1]","../img/tt/442tt.jpg","",""
"1159","","","recognition","survey-text","247","980555","0.0-6.0-3.34","3378780","co34363","norming","","","{""guess"":""owl""}","","../img/tt/442tt.jpg","",""
"null","../img/gs/442gs.jpg","null","reveal","image-keyboard-response","248","982557","0.0-6.0-4.34","3378780","co34363","norming","","","","","","",""
"null","../img/tt/442tt.jpg","null","mooney2","image-keyboard-response","249","984560","0.0-6.0-5.34","3378780","co34363","norming","","","","","","",""
"3716","","","post_reveal_questions","survey-likert","250","988277","0.0-6.0-6.34","3378780","co34363","norming","","","{""aha"":6}","[0]","../img/tt/442tt.jpg","",""
"null","<div style=""font-size:60px;""> </div>","null","fixation","html-keyboard-response","251","988480","0.0-6.0-0.35","3378780","co34363","norming","","","","","","",""
"null","../img/tt/1033tt.jpg","null","mooney1","image-keyboard-response","252","991483","0.0-6.0-1.35","3378780","co34363","norming","","","","","","",""
"7365.999999999884","","","post_mooney1_questions","survey-likert","253","998851","0.0-6.0-2.35","3378780","co34363","norming","","","{""curiosity"":6,""confidence"":1}","[0,1]","../img/tt/1033tt.jpg","",""
"2082","","","recognition","survey-text","254","1000942","0.0-6.0-3.35","3378780","co34363","norming","","","{""guess"":""Rugby""}","","../img/tt/1033tt.jpg","",""
"null","../img/gs/1033gs.jpg","null","reveal","image-keyboard-response","255","1002945","0.0-6.0-4.35","3378780","co34363","norming","","","","","","",""
"null","../img/tt/1033tt.jpg","null","mooney2","image-keyboard-response","256","1004947","0.0-6.0-5.35","3378780","co34363","norming","","","","","","",""
"6218","","","post_reveal_questions","survey-likert","257","1011167","0.0-6.0-6.35","3378780","co34363","norming","","","{""aha"":4}","[0]","../img/tt/1033tt.jpg","",""
"null","<div style=""font-size:60px;""> </div>","null","fixation","html-keyboard-response","258","1011370","0.0-6.0-0.36","3378780","co34363","norming","","","","","","",""
"null","../img/tt/081tt.jpg","null","mooney1","image-keyboard-response","259","1014373","0.0-6.0-1.36","3378780","co34363","norming","","","","","","",""
"4431.000000000116","","","post_mooney1_questions","survey-likert","260","1018805","0.0-6.0-2.36","3378780","co34363","norming","","","{""curiosity"":6,""confidence"":1}","[0,1]","../img/tt/081tt.jpg","",""
"1558","","","recognition","survey-text","261","1020371","0.0-6.0-3.36","3378780","co34363","norming","","","{""guess"":""Zebra""}","","../img/tt/081tt.jpg","",""
"null","../img/gs/081gs.jpg","null","reveal","image-keyboard-response","262","1022374","0.0-6.0-4.36","3378780","co34363","norming","","","","","","",""
"null","../img/tt/081tt.jpg","null","mooney2","image-keyboard-response","263","1024375","0.0-6.0-5.36","3378780","co34363","norming","","","","","","",""
"1807","","","post_reveal_questions","survey-likert","264","1026184","0.0-6.0-6.36","3378780","co34363","norming","","","{""aha"":6}","[0]","../img/tt/081tt.jpg","",""
"null","<div style=""font-size:60px;""> </div>","null","fixation","html-keyboard-response","265","1026387","0.0-6.0-0.37","3378780","co34363","norming","","","","","","",""
"null","../img/tt/124tt.jpg","null","mooney1","image-keyboard-response","266","1029389","0.0-6.0-1.37","3378780","co34363","norming","","","","","","",""
"3617.000000000233","","","post_mooney1_questions","survey-likert","267","1033007","0.0-6.0-2.37","3378780","co34363","norming","","","{""curiosity"":6,""confidence"":2}","[0,1]","../img/tt/124tt.jpg","",""
"1532.0000000002328","","","recognition","survey-text","268","1034547","0.0-6.0-3.37","3378780","co34363","norming","","","{""guess"":""Monkey""}","","../img/tt/124tt.jpg","",""
"null","../img/gs/124gs.jpg","null","reveal","image-keyboard-response","269","1036550","0.0-6.0-4.37","3378780","co34363","norming","","","","","","",""
"null","../img/tt/124tt.jpg","null","mooney2","image-keyboard-response","270","1038552","0.0-6.0-5.37","3378780","co34363","norming","","","","","","",""
"4699.000000000116","","","post_reveal_questions","survey-likert","271","1043252","0.0-6.0-6.37","3378780","co34363","norming","","","{""aha"":1}","[0]","../img/tt/124tt.jpg","",""
"null","<div style=""font-size:60px;""> </div>","null","fixation","html-keyboard-response","272","1043456","0.0-6.0-0.38","3378780","co34363","norming","","","","","","",""
"null","../img/tt/163tt.jpg","null","mooney1","image-keyboard-response","273","1046458","0.0-6.0-1.38","3378780","co34363","norming","","","","","","",""
"2933","","","post_mooney1_questions","survey-likert","274","1049393","0.0-6.0-2.38","3378780","co34363","norming","","","{""curiosity"":6,""confidence"":3}","[0,1]","../img/tt/163tt.jpg","",""
"1205.9999999997672","","","recognition","survey-text","275","1050608","0.0-6.0-3.38","3378780","co34363","norming","","","{""guess"":""Frog""}","","../img/tt/163tt.jpg","",""
"null","../img/gs/163gs.jpg","null","reveal","image-keyboard-response","276","1052611","0.0-6.0-4.38","3378780","co34363","norming","","","","","","",""
"null","../img/tt/163tt.jpg","null","mooney2","image-keyboard-response","277","1054612","0.0-6.0-5.38","3378780","co34363","norming","","","","","","",""
"3523","","","post_reveal_questions","survey-likert","278","1058137","0.0-6.0-6.38","3378780","co34363","norming","","","{""aha"":0}","[0]","../img/tt/163tt.jpg","",""
"null","<div style=""font-size:60px;""> </div>","null","fixation","html-keyboard-response","279","1058341","0.0-6.0-0.39","3378780","co34363","norming","","","","","","",""
"null","../img/tt/1366tt.jpg","null","mooney1","image-keyboard-response","280","1061343","0.0-6.0-1.39","3378780","co34363","norming","","","","","","",""
"7375.999999999767","","","post_mooney1_questions","survey-likert","281","1068721","0.0-6.0-2.39","3378780","co34363","norming","","","{""curiosity"":6,""confidence"":2}","[0,1]","../img/tt/1366tt.jpg","",""
"5811","","","recognition","survey-text","282","1074539","0.0-6.0-3.39","3378780","co34363","norming","","","{""guess"":""Food Plate""}","","../img/tt/1366tt.jpg","",""
"null","../img/gs/1366gs.jpg","null","reveal","image-keyboard-response","283","1076542","0.0-6.0-4.39","3378780","co34363","norming","","","","","","",""
"null","../img/tt/1366tt.jpg","null","mooney2","image-keyboard-response","284","1078544","0.0-6.0-5.39","3378780","co34363","norming","","","","","","",""
"1873","","","post_reveal_questions","survey-likert","285","1080419","0.0-6.0-6.39","3378780","co34363","norming","","","{""aha"":1}","[0]","../img/tt/1366tt.jpg","",""
"null","<div style=""font-size:60px;""> </div>","null","fixation","html-keyboard-response","286","1080623","0.0-6.0-0.40","3378780","co34363","norming","","","","","","",""
"null","../img/tt/1228tt.jpg","null","mooney1","image-keyboard-response","287","1083625","0.0-6.0-1.40","3378780","co34363","norming","","","","","","",""
"5711","","","post_mooney1_questions","survey-likert","288","1089338","0.0-6.0-2.40","3378780","co34363","norming","","","{""curiosity"":5,""confidence"":1}","[0,1]","../img/tt/1228tt.jpg","",""
"1012","","","recognition","survey-text","289","1090359","0.0-6.0-3.40","3378780","co34363","norming","","","{""guess"":""Eagle""}","","../img/tt/1228tt.jpg","",""
"null","../img/gs/1228gs.jpg","null","reveal","image-keyboard-response","290","1092362","0.0-6.0-4.40","3378780","co34363","norming","","","","","","",""
"null","../img/tt/1228tt.jpg","null","mooney2","image-keyboard-response","291","1094364","0.0-6.0-5.40","3378780","co34363","norming","","","","","","",""
"7047.000000000233","","","post_reveal_questions","survey-likert","292","1101413","0.0-6.0-6.40","3378780","co34363","norming","","","{""aha"":5}","[0]","../img/tt/1228tt.jpg","",""
"null","<div style=""font-size:60px;""> </div>","null","fixation","html-keyboard-response","293","1101616","0.0-6.0-0.41","3378780","co34363","norming","","","","","","",""
"null","../img/tt/1061tt.jpg","null","mooney1","image-keyboard-response","294","1104619","0.0-6.0-1.41","3378780","co34363","norming","","","","","","",""
"5765","","","post_mooney1_questions","survey-likert","295","1110386","0.0-6.0-2.41","3378780","co34363","norming","","","{""curiosity"":5,""confidence"":2}","[0,1]","../img/tt/1061tt.jpg","",""
"3646.999999999767","","","recognition","survey-text","296","1114042","0.0-6.0-3.41","3378780","co34363","norming","","","{""guess"":""Golf landscape""}","","../img/tt/1061tt.jpg","",""
"null","../img/gs/1061gs.jpg","null","reveal","image-keyboard-response","297","1116044","0.0-6.0-4.41","3378780","co34363","norming","","","","","","",""
"null","../img/tt/1061tt.jpg","null","mooney2","image-keyboard-response","298","1118046","0.0-6.0-5.41","3378780","co34363","norming","","","","","","",""
"1834.9999999997672","","","post_reveal_questions","survey-likert","299","1119883","0.0-6.0-6.41","3378780","co34363","norming","","","{""aha"":4}","[0]","../img/tt/1061tt.jpg","",""
"null","<div style=""font-size:60px;""> </div>","null","fixation","html-keyboard-response","300","1120087","0.0-6.0-0.42","3378780","co34363","norming","","","","","","",""
"null","../img/tt/053tt.jpg","null","mooney1","image-keyboard-response","301","1123089","0.0-6.0-1.42","3378780","co34363","norming","","","","","","",""
"2710","","","post_mooney1_questions","survey-likert","302","1125801","0.0-6.0-2.42","3378780","co34363","norming","","","{""curiosity"":5,""confidence"":3}","[0,1]","../img/tt/053tt.jpg","",""
"2676","","","recognition","survey-text","303","1128486","0.0-6.0-3.42","3378780","co34363","norming","","","{""guess"":""Waterfall""}","","../img/tt/053tt.jpg","",""
"null","../img/gs/053gs.jpg","null","reveal","image-keyboard-response","304","1130488","0.0-6.0-4.42","3378780","co34363","norming","","","","","","",""
"null","../img/tt/053tt.jpg","null","mooney2","image-keyboard-response","305","1132490","0.0-6.0-5.42","3378780","co34363","norming","","","","","","",""
"2856","","","post_reveal_questions","survey-likert","306","1135348","0.0-6.0-6.42","3378780","co34363","norming","","","{""aha"":3}","[0]","../img/tt/053tt.jpg","",""
"null","<div style=""font-size:60px;""> </div>","null","fixation","html-keyboard-response","307","1135551","0.0-6.0-0.43","3378780","co34363","norming","","","","","","",""
"null","../img/tt/318tt.jpg","null","mooney1","image-keyboard-response","308","1138553","0.0-6.0-1.43","3378780","co34363","norming","","","","","","",""
"4993","","","post_mooney1_questions","survey-likert","309","1143548","0.0-6.0-2.43","3378780","co34363","norming","","","{""curiosity"":5,""confidence"":1}","[0,1]","../img/tt/318tt.jpg","",""
"1387","","","recognition","survey-text","310","1144944","0.0-6.0-3.43","3378780","co34363","norming","","","{""guess"":""Cat""}","","../img/tt/318tt.jpg","",""
"null","../img/gs/318gs.jpg","null","reveal","image-keyboard-response","311","1146947","0.0-6.0-4.43","3378780","co34363","norming","","","","","","",""
"null","../img/tt/318tt.jpg","null","mooney2","image-keyboard-response","312","1148949","0.0-6.0-5.43","3378780","co34363","norming","","","","","","",""
"3321","","","post_reveal_questions","survey-likert","313","1152271","0.0-6.0-6.43","3378780","co34363","norming","","","{""aha"":6}","[0]","../img/tt/318tt.jpg","",""
"null","<div style=""font-size:60px;""> </div>","null","fixation","html-keyboard-response","314","1152475","0.0-6.0-0.44","3378780","co34363","norming","","","","","","",""
"null","../img/tt/1069tt.jpg","null","mooney1","image-keyboard-response","315","1155477","0.0-6.0-1.44","3378780","co34363","norming","","","","","","",""
"6042","","","post_mooney1_questions","survey-likert","316","1161522","0.0-6.0-2.44","3378780","co34363","norming","","","{""curiosity"":5,""confidence"":2}","[0,1]","../img/tt/1069tt.jpg","",""
"2003.9999999997672","","","recognition","survey-text","317","1163535","0.0-6.0-3.44","3378780","co34363","norming","","","{""guess"":""Farmanimals""}","","../img/tt/1069tt.jpg","",""
"null","../img/gs/1069gs.jpg","null","reveal","image-keyboard-response","318","1165537","0.0-6.0-4.44","3378780","co34363","norming","","","","","","",""
"null","../img/tt/1069tt.jpg","null","mooney2","image-keyboard-response","319","1167539","0.0-6.0-5.44","3378780","co34363","norming","","","","","","",""
"3739","","","post_reveal_questions","survey-likert","320","1171279","0.0-6.0-6.44","3378780","co34363","norming","","","{""aha"":4}","[0]","../img/tt/1069tt.jpg","",""
"null","<div style=""font-size:60px;""> </div>","null","fixation","html-keyboard-response","321","1171484","0.0-6.0-0.45","3378780","co34363","norming","","","","","","",""
"null","../img/tt/052tt.jpg","null","mooney1","image-keyboard-response","322","1174486","0.0-6.0-1.45","3378780","co34363","norming","","","","","","",""
"5912","","","post_mooney1_questions","survey-likert","323","1180400","0.0-6.0-2.45","3378780","co34363","norming","","","{""curiosity"":3,""confidence"":4}","[0,1]","../img/tt/052tt.jpg","",""
"1078","","","recognition","survey-text","324","1181486","0.0-6.0-3.45","3378780","co34363","norming","","","{""guess"":""Ring""}","","../img/tt/052tt.jpg","",""
"null","../img/gs/052gs.jpg","null","reveal","image-keyboard-response","325","1183489","0.0-6.0-4.45","3378780","co34363","norming","","","","","","",""
"null","../img/tt/052tt.jpg","null","mooney2","image-keyboard-response","326","1185491","0.0-6.0-5.45","3378780","co34363","norming","","","","","","",""
"2604.999999999767","","","post_reveal_questions","survey-likert","327","1188099","0.0-6.0-6.45","3378780","co34363","norming","","","{""aha"":0}","[0]","../img/tt/052tt.jpg","",""
"null","<div style=""font-size:60px;""> </div>","null","fixation","html-keyboard-response","328","1188302","0.0-6.0-0.46","3378780","co34363","norming","","","","","","",""
"null","../img/tt/1173tt.jpg","null","mooney1","image-keyboard-response","329","1191308","0.0-6.0-1.46","3378780","co34363","norming","","","","","","",""
"8321","","","post_mooney1_questions","survey-likert","330","1199638","0.0-6.0-2.46","3378780","co34363","norming","","","{""curiosity"":4,""confidence"":3}","[0,1]","../img/tt/1173tt.jpg","",""
"4088.000000000233","","","recognition","survey-text","331","1203737","0.0-6.0-3.46","3378780","co34363","norming","","","{""guess"":""Sportplayers""}","","../img/tt/1173tt.jpg","",""
"null","../img/gs/1173gs.jpg","null","reveal","image-keyboard-response","332","1205740","0.0-6.0-4.46","3378780","co34363","norming","","","","","","",""
"null","../img/tt/1173tt.jpg","null","mooney2","image-keyboard-response","333","1207743","0.0-6.0-5.46","3378780","co34363","norming","","","","","","",""
"5569","","","post_reveal_questions","survey-likert","334","1213317","0.0-6.0-6.46","3378780","co34363","norming","","","{""aha"":2}","[0]","../img/tt/1173tt.jpg","",""
"null","<div style=""font-size:60px;""> </div>","null","fixation","html-keyboard-response","335","1213520","0.0-6.0-0.47","3378780","co34363","norming","","","","","","",""
"null","../img/tt/1049tt.jpg","null","mooney1","image-keyboard-response","336","1216523","0.0-6.0-1.47","3378780","co34363","norming","","","","","","",""
"3783.000000000233","","","post_mooney1_questions","survey-likert","337","1220308","0.0-6.0-2.47","3378780","co34363","norming","","","{""curiosity"":5,""confidence"":1}","[0,1]","../img/tt/1049tt.jpg","",""
"1379","","","recognition","survey-text","338","1221696","0.0-6.0-3.47","3378780","co34363","norming","","","{""guess"":""Sheep""}","","../img/tt/1049tt.jpg","",""
"null","../img/gs/1049gs.jpg","null","reveal","image-keyboard-response","339","1223699","0.0-6.0-4.47","3378780","co34363","norming","","","","","","",""
"null","../img/tt/1049tt.jpg","null","mooney2","image-keyboard-response","340","1225700","0.0-6.0-5.47","3378780","co34363","norming","","","","","","",""
"3193","","","post_reveal_questions","survey-likert","341","1228895","0.0-6.0-6.47","3378780","co34363","norming","","","{""aha"":5}","[0]","../img/tt/1049tt.jpg","",""
"null","<div style=""font-size:60px;""> </div>","null","fixation","html-keyboard-response","342","1229098","0.0-6.0-0.48","3378780","co34363","norming","","","","","","",""
"null","../img/tt/105tt.jpg","null","mooney1","image-keyboard-response","343","1232100","0.0-6.0-1.48","3378780","co34363","norming","","","","","","",""
"4817","","","post_mooney1_questions","survey-likert","344","1236919","0.0-6.0-2.48","3378780","co34363","norming","","","{""curiosity"":2,""confidence"":4}","[0,1]","../img/tt/105tt.jpg","",""
"2861","","","recognition","survey-text","345","1239789","0.0-6.0-3.48","3378780","co34363","norming","","","{""guess"":""Paperclips""}","","../img/tt/105tt.jpg","",""
"null","../img/gs/105gs.jpg","null","reveal","image-keyboard-response","346","1241791","0.0-6.0-4.48","3378780","co34363","norming","","","","","","",""
"null","../img/tt/105tt.jpg","null","mooney2","image-keyboard-response","347","1243794","0.0-6.0-5.48","3378780","co34363","norming","","","","","","",""
"3904","","","post_reveal_questions","survey-likert","348","1247699","0.0-6.0-6.48","3378780","co34363","norming","","","{""aha"":1}","[0]","../img/tt/105tt.jpg","",""
"null","<div style=""font-size:60px;""> </div>","null","fixation","html-keyboard-response","349","1247903","0.0-6.0-0.49","3378780","co34363","norming","","","","","","",""
"null","../img/tt/1116tt.jpg","null","mooney1","image-keyboard-response","350","1250904","0.0-6.0-1.49","3378780","co34363","norming","","","","","","",""
"8095","","","post_mooney1_questions","survey-likert","351","1259001","0.0-6.0-2.49","3378780","co34363","norming","","","{""curiosity"":6,""confidence"":1}","[0,1]","../img/tt/1116tt.jpg","",""
"17125","","","recognition","survey-text","352","1276134","0.0-6.0-3.49","3378780","co34363","norming","","","{""guess"":""Landscape""}","","../img/tt/1116tt.jpg","",""
"null","../img/gs/1116gs.jpg","null","reveal","image-keyboard-response","353","1278136","0.0-6.0-4.49","3378780","co34363","norming","","","","","","",""
"null","../img/tt/1116tt.jpg","null","mooney2","image-keyboard-response","354","1280139","0.0-6.0-5.49","3378780","co34363","norming","","","","","","",""
"2498.999999999767","","","post_reveal_questions","survey-likert","355","1282639","0.0-6.0-6.49","3378780","co34363","norming","","","{""aha"":5}","[0]","../img/tt/1116tt.jpg","",""
"null","<div style=""font-size:60px;""> </div>","null","fixation","html-keyboard-response","356","1282843","0.0-6.0-0.50","3378780","co34363","norming","","","","","","",""
"null","../img/tt/1004tt.jpg","null","mooney1","image-keyboard-response","357","1285845","0.0-6.0-1.50","3378780","co34363","norming","","","","","","",""
"3944","","","post_mooney1_questions","survey-likert","358","1289791","0.0-6.0-2.50","3378780","co34363","norming","","","{""curiosity"":5,""confidence"":2}","[0,1]","../img/tt/1004tt.jpg","",""
"1266","","","recognition","survey-text","359","1291064","0.0-6.0-3.50","3378780","co34363","norming","","","{""guess"":""Cow""}","","../img/tt/1004tt.jpg","",""
"null","../img/gs/1004gs.jpg","null","reveal","image-keyboard-response","360","1293067","0.0-6.0-4.50","3378780","co34363","norming","","","","","","",""
"null","../img/tt/1004tt.jpg","null","mooney2","image-keyboard-response","361","1295069","0.0-6.0-5.50","3378780","co34363","norming","","","","","","",""
"4017","","","post_reveal_questions","survey-likert","362","1299088","0.0-6.0-6.50","3378780","co34363","norming","","","{""aha"":4}","[0]","../img/tt/1004tt.jpg","",""
"null","<div style=""font-size:60px;""> </div>","null","fixation","html-keyboard-response","363","1299291","0.0-6.0-0.51","3378780","co34363","norming","","","","","","",""
"null","../img/tt/1143tt.jpg","null","mooney1","image-keyboard-response","364","1302294","0.0-6.0-1.51","3378780","co34363","norming","","","","","","",""
"3484","","","post_mooney1_questions","survey-likert","365","1305780","0.0-6.0-2.51","3378780","co34363","norming","","","{""curiosity"":4,""confidence"":2}","[0,1]","../img/tt/1143tt.jpg","",""
"1136","","","recognition","survey-text","366","1306924","0.0-6.0-3.51","3378780","co34363","norming","","","{""guess"":""Gym""}","","../img/tt/1143tt.jpg","",""
"null","../img/gs/1143gs.jpg","null","reveal","image-keyboard-response","367","1308927","0.0-6.0-4.51","3378780","co34363","norming","","","","","","",""
"null","../img/tt/1143tt.jpg","null","mooney2","image-keyboard-response","368","1310929","0.0-6.0-5.51","3378780","co34363","norming","","","","","","",""
"2048.999999999767","","","post_reveal_questions","survey-likert","369","1312979","0.0-6.0-6.51","3378780","co34363","norming","","","{""aha"":2}","[0]","../img/tt/1143tt.jpg","",""
"null","<div style=""font-size:60px;""> </div>","null","fixation","html-keyboard-response","370","1313181","0.0-6.0-0.52","3378780","co34363","norming","","","","","","",""
"null","../img/tt/590tt.jpg","null","mooney1","image-keyboard-response","371","1316183","0.0-6.0-1.52","3378780","co34363","norming","","","","","","",""
"9555","","","post_mooney1_questions","survey-likert","372","1325741","0.0-6.0-2.52","3378780","co34363","norming","","","{""curiosity"":5,""confidence"":1}","[0,1]","../img/tt/590tt.jpg","",""
"1878","","","recognition","survey-text","373","1327627","0.0-6.0-3.52","3378780","co34363","norming","","","{""guess"":""Vases""}","","../img/tt/590tt.jpg","",""
"null","../img/gs/590gs.jpg","null","reveal","image-keyboard-response","374","1329630","0.0-6.0-4.52","3378780","co34363","norming","","","","","","",""
"null","../img/tt/590tt.jpg","null","mooney2","image-keyboard-response","375","1331632","0.0-6.0-5.52","3378780","co34363","norming","","","","","","",""
"3549","","","post_reveal_questions","survey-likert","376","1335183","0.0-6.0-6.52","3378780","co34363","norming","","","{""aha"":5}","[0]","../img/tt/590tt.jpg","",""
"null","<div style=""font-size:60px;""> </div>","null","fixation","html-keyboard-response","377","1335386","0.0-6.0-0.53","3378780","co34363","norming","","","","","","",""
"null","../img/tt/534tt.jpg","null","mooney1","image-keyboard-response","378","1338388","0.0-6.0-1.53","3378780","co34363","norming","","","","","","",""
"4395","","","post_mooney1_questions","survey-likert","379","1342785","0.0-6.0-2.53","3378780","co34363","norming","","","{""curiosity"":5,""confidence"":2}","[0,1]","../img/tt/534tt.jpg","",""
"2908","","","recognition","survey-text","380","1345698","0.0-6.0-3.53","3378780","co34363","norming","","","{""guess"":""Cactus""}","","../img/tt/534tt.jpg","",""
"null","../img/gs/534gs.jpg","null","reveal","image-keyboard-response","381","1347701","0.0-6.0-4.53","3378780","co34363","norming","","","","","","",""
"null","../img/tt/534tt.jpg","null","mooney2","image-keyboard-response","382","1349703","0.0-6.0-5.53","3378780","co34363","norming","","","","","","",""
"2797","","","post_reveal_questions","survey-likert","383","1352500","0.0-6.0-6.53","3378780","co34363","norming","","","{""aha"":1}","[0]","../img/tt/534tt.jpg","",""
"null","<div style=""font-size:60px;""> </div>","null","fixation","html-keyboard-response","384","1352704","0.0-6.0-0.54","3378780","co34363","norming","","","","","","",""
"null","../img/tt/1161tt.jpg","null","mooney1","image-keyboard-response","385","1355706","0.0-6.0-1.54","3378780","co34363","norming","","","","","","",""
"5583","","","post_mooney1_questions","survey-likert","386","1361291","0.0-6.0-2.54","3378780","co34363","norming","","","{""curiosity"":5,""confidence"":1}","[0,1]","../img/tt/1161tt.jpg","",""
"1594","","","recognition","survey-text","387","1362893","0.0-6.0-3.54","3378780","co34363","norming","","","{""guess"":""Tiger""}","","../img/tt/1161tt.jpg","",""
"null","../img/gs/1161gs.jpg","null","reveal","image-keyboard-response","388","1364895","0.0-6.0-4.54","3378780","co34363","norming","","","","","","",""
"null","../img/tt/1161tt.jpg","null","mooney2","image-keyboard-response","389","1366898","0.0-6.0-5.54","3378780","co34363","norming","","","","","","",""
"3422","","","post_reveal_questions","survey-likert","390","1370321","0.0-6.0-6.54","3378780","co34363","norming","","","{""aha"":5}","[0]","../img/tt/1161tt.jpg","",""
"null","<div style=""font-size:60px;""> </div>","null","fixation","html-keyboard-response","391","1370524","0.0-6.0-0.55","3378780","co34363","norming","","","","","","",""
"null","../img/tt/358tt.jpg","null","mooney1","image-keyboard-response","392","1373527","0.0-6.0-1.55","3378780","co34363","norming","","","","","","",""
"3515","","","post_mooney1_questions","survey-likert","393","1377043","0.0-6.0-2.55","3378780","co34363","norming","","","{""curiosity"":5,""confidence"":1}","[0,1]","../img/tt/358tt.jpg","",""
"2293.000000000233","","","recognition","survey-text","394","1379345","0.0-6.0-3.55","3378780","co34363","norming","","","{""guess"":""Cow""}","","../img/tt/358tt.jpg","",""
"null","../img/gs/358gs.jpg","null","reveal","image-keyboard-response","395","1381347","0.0-6.0-4.55","3378780","co34363","norming","","","","","","",""
"null","../img/tt/358tt.jpg","null","mooney2","image-keyboard-response","396","1383348","0.0-6.0-5.55","3378780","co34363","norming","","","","","","",""
"3188","","","post_reveal_questions","survey-likert","397","1386538","0.0-6.0-6.55","3378780","co34363","norming","","","{""aha"":4}","[0]","../img/tt/358tt.jpg","",""
"null","<div style=""font-size:60px;""> </div>","null","fixation","html-keyboard-response","398","1386741","0.0-6.0-0.56","3378780","co34363","norming","","","","","","",""
"null","../img/tt/1191tt.jpg","null","mooney1","image-keyboard-response","399","1389743","0.0-6.0-1.56","3378780","co34363","norming","","","","","","",""
"4627","","","post_mooney1_questions","survey-likert","400","1394372","0.0-6.0-2.56","3378780","co34363","norming","","","{""curiosity"":4,""confidence"":2}","[0,1]","../img/tt/1191tt.jpg","",""
"24321.000000000233","","","recognition","survey-text","401","1418701","0.0-6.0-3.56","3378780","co34363","norming","","","{""guess"":""Sportplayers""}","","../img/tt/1191tt.jpg","",""
"null","../img/gs/1191gs.jpg","null","reveal","image-keyboard-response","402","1420704","0.0-6.0-4.56","3378780","co34363","norming","","","","","","",""
"null","../img/tt/1191tt.jpg","null","mooney2","image-keyboard-response","403","1422706","0.0-6.0-5.56","3378780","co34363","norming","","","","","","",""
"4810","","","post_reveal_questions","survey-likert","404","1427517","0.0-6.0-6.56","3378780","co34363","norming","","","{""aha"":3}","[0]","../img/tt/1191tt.jpg","",""
"null","<div style=""font-size:60px;""> </div>","null","fixation","html-keyboard-response","405","1427720","0.0-6.0-0.57","3378780","co34363","norming","","","","","","",""
"null","../img/tt/1200tt.jpg","null","mooney1","image-keyboard-response","406","1430722","0.0-6.0-1.57","3378780","co34363","norming","","","","","","",""
"3568","","","post_mooney1_questions","survey-likert","407","1434292","0.0-6.0-2.57","3378780","co34363","norming","","","{""curiosity"":5,""confidence"":1}","[0,1]","../img/tt/1200tt.jpg","",""
"1805","","","recognition","survey-text","408","1436105","0.0-6.0-3.57","3378780","co34363","norming","","","{""guess"":""Bench""}","","../img/tt/1200tt.jpg","",""
"null","../img/gs/1200gs.jpg","null","reveal","image-keyboard-response","409","1438108","0.0-6.0-4.57","3378780","co34363","norming","","","","","","",""
"null","../img/tt/1200tt.jpg","null","mooney2","image-keyboard-response","410","1440110","0.0-6.0-5.57","3378780","co34363","norming","","","","","","",""
"64878","","","post_reveal_questions","survey-likert","411","1504992","0.0-6.0-6.57","3378780","co34363","norming","","","{""aha"":5}","[0]","../img/tt/1200tt.jpg","",""
"null","<div style=""font-size:60px;""> </div>","null","fixation","html-keyboard-response","412","1505195","0.0-6.0-0.58","3378780","co34363","norming","","","","","","",""
"null","../img/tt/1006tt.jpg","null","mooney1","image-keyboard-response","413","1508198","0.0-6.0-1.58","3378780","co34363","norming","","","","","","",""
"4216.000000000233","","","post_mooney1_questions","survey-likert","414","1512416","0.0-6.0-2.58","3378780","co34363","norming","","","{""curiosity"":5,""confidence"":1}","[0,1]","../img/tt/1006tt.jpg","",""
"1708","","","recognition","survey-text","415","1514132","0.0-6.0-3.58","3378780","co34363","norming","","","{""guess"":""Cow""}","","../img/tt/1006tt.jpg","",""
"null","../img/gs/1006gs.jpg","null","reveal","image-keyboard-response","416","1516134","0.0-6.0-4.58","3378780","co34363","norming","","","","","","",""
"null","../img/tt/1006tt.jpg","null","mooney2","image-keyboard-response","417","1518136","0.0-6.0-5.58","3378780","co34363","norming","","","","","","",""
"2621.999999999767","","","post_reveal_questions","survey-likert","418","1520760","0.0-6.0-6.58","3378780","co34363","norming","","","{""aha"":4}","[0]","../img/tt/1006tt.jpg","",""
"null","<div style=""font-size:60px;""> </div>","null","fixation","html-keyboard-response","419","1520963","0.0-6.0-0.59","3378780","co34363","norming","","","","","","",""
"null","../img/tt/184tt.jpg","null","mooney1","image-keyboard-response","420","1523966","0.0-6.0-1.59","3378780","co34363","norming","","","","","","",""
"4017.000000000233","","","post_mooney1_questions","survey-likert","421","1527984","0.0-6.0-2.59","3378780","co34363","norming","","","{""curiosity"":5,""confidence"":2}","[0,1]","../img/tt/184tt.jpg","",""
"1467","","","recognition","survey-text","422","1529459","0.0-6.0-3.59","3378780","co34363","norming","","","{""guess"":""Taco""}","","../img/tt/184tt.jpg","",""
"null","../img/gs/184gs.jpg","null","reveal","image-keyboard-response","423","1531461","0.0-6.0-4.59","3378780","co34363","norming","","","","","","",""
"null","../img/tt/184tt.jpg","null","mooney2","image-keyboard-response","424","1533463","0.0-6.0-5.59","3378780","co34363","norming","","","","","","",""
"9569.999999999767","","","post_reveal_questions","survey-likert","425","1543035","0.0-6.0-6.59","3378780","co34363","norming","","","{""aha"":4}","[0]","../img/tt/184tt.jpg","",""
"null","<div style=""font-size:60px;""> </div>","null","fixation","html-keyboard-response","426","1543238","0.0-6.0-0.60","3378780","co34363","norming","","","","","","",""
"null","../img/tt/418tt.jpg","null","mooney1","image-keyboard-response","427","1546241","0.0-6.0-1.60","3378780","co34363","norming","","","","","","",""
"3970","","","post_mooney1_questions","survey-likert","428","1550213","0.0-6.0-2.60","3378780","co34363","norming","","","{""curiosity"":5,""confidence"":2}","[0,1]","../img/tt/418tt.jpg","",""
"5894","","","recognition","survey-text","429","1556116","0.0-6.0-3.60","3378780","co34363","norming","","","{""guess"":""Footballs""}","","../img/tt/418tt.jpg","",""
"null","../img/gs/418gs.jpg","null","reveal","image-keyboard-response","430","1558119","0.0-6.0-4.60","3378780","co34363","norming","","","","","","",""
"null","../img/tt/418tt.jpg","null","mooney2","image-keyboard-response","431","1560120","0.0-6.0-5.60","3378780","co34363","norming","","","","","","",""
"9391.000000000233","","","post_reveal_questions","survey-likert","432","1569513","0.0-6.0-6.60","3378780","co34363","norming","","","{""aha"":5}","[0]","../img/tt/418tt.jpg","",""
"null","<div style=""font-size:60px;""> </div>","null","fixation","html-keyboard-response","433","1569716","0.0-6.0-0.61","3378780","co34363","norming","","","","","","",""
"null","../img/tt/319tt.jpg","null","mooney1","image-keyboard-response","434","1572719","0.0-6.0-1.61","3378780","co34363","norming","","","","","","",""
"7567","","","post_mooney1_questions","survey-likert","435","1580288","0.0-6.0-2.61","3378780","co34363","norming","","","{""curiosity"":5,""confidence"":1}","[0,1]","../img/tt/319tt.jpg","",""
"1592","","","recognition","survey-text","436","1581887","0.0-6.0-3.61","3378780","co34363","norming","","","{""guess"":""Goats""}","","../img/tt/319tt.jpg","",""
"null","../img/gs/319gs.jpg","null","reveal","image-keyboard-response","437","1583889","0.0-6.0-4.61","3378780","co34363","norming","","","","","","",""
"null","../img/tt/319tt.jpg","null","mooney2","image-keyboard-response","438","1585891","0.0-6.0-5.61","3378780","co34363","norming","","","","","","",""
"4358","","","post_reveal_questions","survey-likert","439","1590250","0.0-6.0-6.61","3378780","co34363","norming","","","{""aha"":4}","[0]","../img/tt/319tt.jpg","",""
"null","<div style=""font-size:60px;""> </div>","null","fixation","html-keyboard-response","440","1590454","0.0-6.0-0.62","3378780","co34363","norming","","","","","","",""
"null","../img/tt/1066tt.jpg","null","mooney1","image-keyboard-response","441","1593456","0.0-6.0-1.62","3378780","co34363","norming","","","","","","",""
"4520","","","post_mooney1_questions","survey-likert","442","1597978","0.0-6.0-2.62","3378780","co34363","norming","","","{""curiosity"":5,""confidence"":3}","[0,1]","../img/tt/1066tt.jpg","",""
"945.9999999997672","","","recognition","survey-text","443","1598932","0.0-6.0-3.62","3378780","co34363","norming","","","{""guess"":""Bus""}","","../img/tt/1066tt.jpg","",""
"null","../img/gs/1066gs.jpg","null","reveal","image-keyboard-response","444","1600935","0.0-6.0-4.62","3378780","co34363","norming","","","","","","",""
"null","../img/tt/1066tt.jpg","null","mooney2","image-keyboard-response","445","1602937","0.0-6.0-5.62","3378780","co34363","norming","","","","","","",""
"4495.999999999767","","","post_reveal_questions","survey-likert","446","1607434","0.0-6.0-6.62","3378780","co34363","norming","","","{""aha"":0}","[0]","../img/tt/1066tt.jpg","",""
"null","<div style=""font-size:60px;""> </div>","null","fixation","html-keyboard-response","447","1607638","0.0-6.0-0.63","3378780","co34363","norming","","","","","","",""
"null","../img/tt/078tt.jpg","null","mooney1","image-keyboard-response","448","1610640","0.0-6.0-1.63","3378780","co34363","norming","","","","","","",""
"4093","","","post_mooney1_questions","survey-likert","449","1614735","0.0-6.0-2.63","3378780","co34363","norming","","","{""curiosity"":6,""confidence"":0}","[0,1]","../img/tt/078tt.jpg","",""
"935","","","recognition","survey-text","450","1615678","0.0-6.0-3.63","3378780","co34363","norming","","","{""guess"":""""}","","../img/tt/078tt.jpg","",""
"null","../img/gs/078gs.jpg","null","reveal","image-keyboard-response","451","1617680","0.0-6.0-4.63","3378780","co34363","norming","","","","","","",""
"null","../img/tt/078tt.jpg","null","mooney2","image-keyboard-response","452","1619682","0.0-6.0-5.63","3378780","co34363","norming","","","","","","",""
"2448","","","post_reveal_questions","survey-likert","453","1622132","0.0-6.0-6.63","3378780","co34363","norming","","","{""aha"":6}","[0]","../img/tt/078tt.jpg","",""
"null","<div style=""font-size:60px;""> </div>","null","fixation","html-keyboard-response","454","1622336","0.0-6.0-0.64","3378780","co34363","norming","","","","","","",""
"null","../img/tt/112tt.jpg","null","mooney1","image-keyboard-response","455","1625338","0.0-6.0-1.64","3378780","co34363","norming","","","","","","",""
"6056","","","post_mooney1_questions","survey-likert","456","1631396","0.0-6.0-2.64","3378780","co34363","norming","","","{""curiosity"":5,""confidence"":2}","[0,1]","../img/tt/112tt.jpg","",""
"1176","","","recognition","survey-text","457","1632580","0.0-6.0-3.64","3378780","co34363","norming","","","{""guess"":""Phone""}","","../img/tt/112tt.jpg","",""
"null","../img/gs/112gs.jpg","null","reveal","image-keyboard-response","458","1634582","0.0-6.0-4.64","3378780","co34363","norming","","","","","","",""
"null","../img/tt/112tt.jpg","null","mooney2","image-keyboard-response","459","1636585","0.0-6.0-5.64","3378780","co34363","norming","","","","","","",""
"21631","","","post_reveal_questions","survey-likert","460","1658217","0.0-6.0-6.64","3378780","co34363","norming","","","{""aha"":5}","[0]","../img/tt/112tt.jpg","",""
"null","<div style=""font-size:60px;""> </div>","null","fixation","html-keyboard-response","461","1658420","0.0-6.0-0.65","3378780","co34363","norming","","","","","","",""
"null","../img/tt/098tt.jpg","null","mooney1","image-keyboard-response","462","1661423","0.0-6.0-1.65","3378780","co34363","norming","","","","","","",""
"7570","","","post_mooney1_questions","survey-likert","463","1668995","0.0-6.0-2.65","3378780","co34363","norming","","","{""curiosity"":5,""confidence"":1}","[0,1]","../img/tt/098tt.jpg","",""
"5655","","","recognition","survey-text","464","1674659","0.0-6.0-3.65","3378780","co34363","norming","","","{""guess"":""Food""}","","../img/tt/098tt.jpg","",""
"null","../img/gs/098gs.jpg","null","reveal","image-keyboard-response","465","1676661","0.0-6.0-4.65","3378780","co34363","norming","","","","","","",""
"null","../img/tt/098tt.jpg","null","mooney2","image-keyboard-response","466","1678663","0.0-6.0-5.65","3378780","co34363","norming","","","","","","",""
"1819","","","post_reveal_questions","survey-likert","467","1680483","0.0-6.0-6.65","3378780","co34363","norming","","","{""aha"":4}","[0]","../img/tt/098tt.jpg","",""
"null","<div style=""font-size:60px;""> </div>","null","fixation","html-keyboard-response","468","1680686","0.0-6.0-0.66","3378780","co34363","norming","","","","","","",""
"null","../img/tt/1040tt.jpg","null","mooney1","image-keyboard-response","469","1683689","0.0-6.0-1.66","3378780","co34363","norming","","","","","","",""
"3070.999999999767","","","post_mooney1_questions","survey-likert","470","1686762","0.0-6.0-2.66","3378780","co34363","norming","","","{""curiosity"":5,""confidence"":2}","[0,1]","../img/tt/1040tt.jpg","",""
"1667","","","recognition","survey-text","471","1688438","0.0-6.0-3.66","3378780","co34363","norming","","","{""guess"":""Bear""}","","../img/tt/1040tt.jpg","",""
"null","../img/gs/1040gs.jpg","null","reveal","image-keyboard-response","472","1690441","0.0-6.0-4.66","3378780","co34363","norming","","","","","","",""
"null","../img/tt/1040tt.jpg","null","mooney2","image-keyboard-response","473","1692443","0.0-6.0-5.66","3378780","co34363","norming","","","","","","",""
"2679.000000000233","","","post_reveal_questions","survey-likert","474","1695123","0.0-6.0-6.66","3378780","co34363","norming","","","{""aha"":6}","[0]","../img/tt/1040tt.jpg","",""
"null","<div style=""font-size:60px;""> </div>","null","fixation","html-keyboard-response","475","1695327","0.0-6.0-0.67","3378780","co34363","norming","","","","","","",""
"null","../img/tt/1130tt.jpg","null","mooney1","image-keyboard-response","476","1698329","0.0-6.0-1.67","3378780","co34363","norming","","","","","","",""
"3515","","","post_mooney1_questions","survey-likert","477","1701847","0.0-6.0-2.67","3378780","co34363","norming","","","{""curiosity"":5,""confidence"":3}","[0,1]","../img/tt/1130tt.jpg","",""
"15639.999999999767","","","recognition","survey-text","478","1717494","0.0-6.0-3.67","3378780","co34363","norming","","","{""guess"":""Throw ball""}","","../img/tt/1130tt.jpg","",""
"null","../img/gs/1130gs.jpg","null","reveal","image-keyboard-response","479","1719496","0.0-6.0-4.67","3378780","co34363","norming","","","","","","",""
"null","../img/tt/1130tt.jpg","null","mooney2","image-keyboard-response","480","1721498","0.0-6.0-5.67","3378780","co34363","norming","","","","","","",""
"2546","","","post_reveal_questions","survey-likert","481","1724046","0.0-6.0-6.67","3378780","co34363","norming","","","{""aha"":5}","[0]","../img/tt/1130tt.jpg","",""
"null","<div style=""font-size:60px;""> </div>","null","fixation","html-keyboard-response","482","1724249","0.0-6.0-0.68","3378780","co34363","norming","","","","","","",""
"null","../img/tt/1237tt.jpg","null","mooney1","image-keyboard-response","483","1727251","0.0-6.0-1.68","3378780","co34363","norming","","","","","","",""
"3330","","","post_mooney1_questions","survey-likert","484","1730584","0.0-6.0-2.68","3378780","co34363","norming","","","{""curiosity"":5,""confidence"":4}","[0,1]","../img/tt/1237tt.jpg","",""
"989","","","recognition","survey-text","485","1731581","0.0-6.0-3.68","3378780","co34363","norming","","","{""guess"":""Duck""}","","../img/tt/1237tt.jpg","",""
"null","../img/gs/1237gs.jpg","null","reveal","image-keyboard-response","486","1733583","0.0-6.0-4.68","3378780","co34363","norming","","","","","","",""
"null","../img/tt/1237tt.jpg","null","mooney2","image-keyboard-response","487","1735586","0.0-6.0-5.68","3378780","co34363","norming","","","","","","",""
"1897","","","post_reveal_questions","survey-likert","488","1737484","0.0-6.0-6.68","3378780","co34363","norming","","","{""aha"":1}","[0]","../img/tt/1237tt.jpg","",""
"null","<div style=""font-size:60px;""> </div>","null","fixation","html-keyboard-response","489","1737687","0.0-6.0-0.69","3378780","co34363","norming","","","","","","",""
"null","../img/tt/1072tt.jpg","null","mooney1","image-keyboard-response","490","1740689","0.0-6.0-1.69","3378780","co34363","norming","","","","","","",""
"4609","","","post_mooney1_questions","survey-likert","491","1745300","0.0-6.0-2.69","3378780","co34363","norming","","","{""curiosity"":5,""confidence"":1}","[0,1]","../img/tt/1072tt.jpg","",""
"1782","","","recognition","survey-text","492","1747090","0.0-6.0-3.69","3378780","co34363","norming","","","{""guess"":""Machines""}","","../img/tt/1072tt.jpg","",""
"null","../img/gs/1072gs.jpg","null","reveal","image-keyboard-response","493","1749093","0.0-6.0-4.69","3378780","co34363","norming","","","","","","",""
"null","../img/tt/1072tt.jpg","null","mooney2","image-keyboard-response","494","1751096","0.0-6.0-5.69","3378780","co34363","norming","","","","","","",""
"4056.000000000233","","","post_reveal_questions","survey-likert","495","1755154","0.0-6.0-6.69","3378780","co34363","norming","","","{""aha"":6}","[0]","../img/tt/1072tt.jpg","",""
"null","<div style=""font-size:60px;""> </div>","null","fixation","html-keyboard-response","496","1755359","0.0-6.0-0.70","3378780","co34363","norming","","","","","","",""
"null","../img/tt/1290tt.jpg","null","mooney1","image-keyboard-response","497","1758362","0.0-6.0-1.70","3378780","co34363","norming","","","","","","",""
"5109.000000000233","","","post_mooney1_questions","survey-likert","498","1763473","0.0-6.0-2.70","3378780","co34363","norming","","","{""curiosity"":3,""confidence"":4}","[0,1]","../img/tt/1290tt.jpg","",""
"3323","","","recognition","survey-text","499","1766803","0.0-6.0-3.70","3378780","co34363","norming","","","{""guess"":""Ski elevator""}","","../img/tt/1290tt.jpg","",""
"null","../img/gs/1290gs.jpg","null","reveal","image-keyboard-response","500","1768806","0.0-6.0-4.70","3378780","co34363","norming","","","","","","",""
"null","../img/tt/1290tt.jpg","null","mooney2","image-keyboard-response","501","1770808","0.0-6.0-5.70","3378780","co34363","norming","","","","","","",""
"2169","","","post_reveal_questions","survey-likert","502","1772979","0.0-6.0-6.70","3378780","co34363","norming","","","{""aha"":1}","[0]","../img/tt/1290tt.jpg","",""
"null","<div style=""font-size:60px;""> </div>","null","fixation","html-keyboard-response","503","1773182","0.0-6.0-0.71","3378780","co34363","norming","","","","","","",""
"null","../img/tt/1175tt.jpg","null","mooney1","image-keyboard-response","504","1776184","0.0-6.0-1.71","3378780","co34363","norming","","","","","","",""
"3435","","","post_mooney1_questions","survey-likert","505","1779621","0.0-6.0-2.71","3378780","co34363","norming","","","{""curiosity"":5,""confidence"":2}","[0,1]","../img/tt/1175tt.jpg","",""
"5326","","","recognition","survey-text","506","1784956","0.0-6.0-3.71","3378780","co34363","norming","","","{""guess"":""Dancing people""}","","../img/tt/1175tt.jpg","",""
"null","../img/gs/1175gs.jpg","null","reveal","image-keyboard-response","507","1786959","0.0-6.0-4.71","3378780","co34363","norming","","","","","","",""
"null","../img/tt/1175tt.jpg","null","mooney2","image-keyboard-response","508","1788961","0.0-6.0-5.71","3378780","co34363","norming","","","","","","",""
"3102.999999999767","","","post_reveal_questions","survey-likert","509","1792065","0.0-6.0-6.71","3378780","co34363","norming","","","{""aha"":5}","[0]","../img/tt/1175tt.jpg","",""
"null","<div style=""font-size:60px;""> </div>","null","fixation","html-keyboard-response","510","1792268","0.0-6.0-0.72","3378780","co34363","norming","","","","","","",""
"null","../img/tt/032tt.jpg","null","mooney1","image-keyboard-response","511","1795271","0.0-6.0-1.72","3378780","co34363","norming","","","","","","",""
"4523","","","post_mooney1_questions","survey-likert","512","1799795","0.0-6.0-2.72","3378780","co34363","norming","","","{""curiosity"":4,""confidence"":2}","[0,1]","../img/tt/032tt.jpg","",""
"1713","","","recognition","survey-text","513","1801516","0.0-6.0-3.72","3378780","co34363","norming","","","{""guess"":""Reptile""}","","../img/tt/032tt.jpg","",""
"null","../img/gs/032gs.jpg","null","reveal","image-keyboard-response","514","1803519","0.0-6.0-4.72","3378780","co34363","norming","","","","","","",""
"null","../img/tt/032tt.jpg","null","mooney2","image-keyboard-response","515","1805521","0.0-6.0-5.72","3378780","co34363","norming","","","","","","",""
"7111.999999999767","","","post_reveal_questions","survey-likert","516","1812634","0.0-6.0-6.72","3378780","co34363","norming","","","{""aha"":6}","[0]","../img/tt/032tt.jpg","",""
"null","<div style=""font-size:60px;""> </div>","null","fixation","html-keyboard-response","517","1812837","0.0-6.0-0.73","3378780","co34363","norming","","","","","","",""
"null","../img/tt/1002tt.jpg","null","mooney1","image-keyboard-response","518","1815839","0.0-6.0-1.73","3378780","co34363","norming","","","","","","",""
"4003","","","post_mooney1_questions","survey-likert","519","1819844","0.0-6.0-2.73","3378780","co34363","norming","","","{""curiosity"":5,""confidence"":0}","[0,1]","../img/tt/1002tt.jpg","",""
"1071","","","recognition","survey-text","520","1820924","0.0-6.0-3.73","3378780","co34363","norming","","","{""guess"":""""}","","../img/tt/1002tt.jpg","",""
"null","../img/gs/1002gs.jpg","null","reveal","image-keyboard-response","521","1822925","0.0-6.0-4.73","3378780","co34363","norming","","","","","","",""
"null","../img/tt/1002tt.jpg","null","mooney2","image-keyboard-response","522","1824928","0.0-6.0-5.73","3378780","co34363","norming","","","","","","",""
"4377","","","post_reveal_questions","survey-likert","523","1829306","0.0-6.0-6.73","3378780","co34363","norming","","","{""aha"":6}","[0]","../img/tt/1002tt.jpg","",""
"null","<div style=""font-size:60px;""> </div>","null","fixation","html-keyboard-response","524","1829509","0.0-6.0-0.74","3378780","co34363","norming","","","","","","",""
"null","../img/tt/1260tt.jpg","null","mooney1","image-keyboard-response","525","1832512","0.0-6.0-1.74","3378780","co34363","norming","","","","","","",""
"3667","","","post_mooney1_questions","survey-likert","526","1836180","0.0-6.0-2.74","3378780","co34363","norming","","","{""curiosity"":5,""confidence"":1}","[0,1]","../img/tt/1260tt.jpg","",""
"1419","","","recognition","survey-text","527","1837608","0.0-6.0-3.74","3378780","co34363","norming","","","{""guess"":""Tiger""}","","../img/tt/1260tt.jpg","",""
"null","../img/gs/1260gs.jpg","null","reveal","image-keyboard-response","528","1839611","0.0-6.0-4.74","3378780","co34363","norming","","","","","","",""
"null","../img/tt/1260tt.jpg","null","mooney2","image-keyboard-response","529","1841613","0.0-6.0-5.74","3378780","co34363","norming","","","","","","",""
"3413","","","post_reveal_questions","survey-likert","530","1845028","0.0-6.0-6.74","3378780","co34363","norming","","","{""aha"":6}","[0]","../img/tt/1260tt.jpg","",""
"null","<div style=""font-size:60px;""> </div>","null","fixation","html-keyboard-response","531","1845231","0.0-6.0-0.75","3378780","co34363","norming","","","","","","",""
"null","../img/tt/049tt.jpg","null","mooney1","image-keyboard-response","532","1848233","0.0-6.0-1.75","3378780","co34363","norming","","","","","","",""
"13417","","","post_mooney1_questions","survey-likert","533","1861652","0.0-6.0-2.75","3378780","co34363","norming","","","{""curiosity"":6,""confidence"":1}","[0,1]","../img/tt/049tt.jpg","",""
"6141.000000000233","","","recognition","survey-text","534","1867802","0.0-6.0-3.75","3378780","co34363","norming","","","{""guess"":""Sleeping animal""}","","../img/tt/049tt.jpg","",""
"null","../img/gs/049gs.jpg","null","reveal","image-keyboard-response","535","1869804","0.0-6.0-4.75","3378780","co34363","norming","","","","","","",""
"null","../img/tt/049tt.jpg","null","mooney2","image-keyboard-response","536","1871807","0.0-6.0-5.75","3378780","co34363","norming","","","","","","",""
"2680","","","post_reveal_questions","survey-likert","537","1874488","0.0-6.0-6.75","3378780","co34363","norming","","","{""aha"":6}","[0]","../img/tt/049tt.jpg","",""
"null","<div style=""font-size:60px;""> </div>","null","fixation","html-keyboard-response","538","1874691","0.0-6.0-0.76","3378780","co34363","norming","","","","","","",""
"null","../img/tt/1078tt.jpg","null","mooney1","image-keyboard-response","539","1877694","0.0-6.0-1.76","3378780","co34363","norming","","","","","","",""
"4217.999999999767","","","post_mooney1_questions","survey-likert","540","1881914","0.0-6.0-2.76","3378780","co34363","norming","","","{""curiosity"":5,""confidence"":2}","[0,1]","../img/tt/1078tt.jpg","",""
"1901","","","recognition","survey-text","541","1883822","0.0-6.0-3.76","3378780","co34363","norming","","","{""guess"":""Crowd""}","","../img/tt/1078tt.jpg","",""
"null","../img/gs/1078gs.jpg","null","reveal","image-keyboard-response","542","1885825","0.0-6.0-4.76","3378780","co34363","norming","","","","","","",""
"null","../img/tt/1078tt.jpg","null","mooney2","image-keyboard-response","543","1887827","0.0-6.0-5.76","3378780","co34363","norming","","","","","","",""
"4511.000000000233","","","post_reveal_questions","survey-likert","544","1892340","0.0-6.0-6.76","3378780","co34363","norming","","","{""aha"":5}","[0]","../img/tt/1078tt.jpg","",""
"null","<div style=""font-size:60px;""> </div>","null","fixation","html-keyboard-response","545","1892543","0.0-6.0-0.77","3378780","co34363","norming","","","","","","",""
"null","../img/tt/1211tt.jpg","null","mooney1","image-keyboard-response","546","1895545","0.0-6.0-1.77","3378780","co34363","norming","","","","","","",""
"2834","","","post_mooney1_questions","survey-likert","547","1898381","0.0-6.0-2.77","3378780","co34363","norming","","","{""curiosity"":5,""confidence"":2}","[0,1]","../img/tt/1211tt.jpg","",""
"1078.9999999997672","","","recognition","survey-text","548","1899467","0.0-6.0-3.77","3378780","co34363","norming","","","{""guess"":""Pool""}","","../img/tt/1211tt.jpg","",""
"null","../img/gs/1211gs.jpg","null","reveal","image-keyboard-response","549","1901470","0.0-6.0-4.77","3378780","co34363","norming","","","","","","",""
"null","../img/tt/1211tt.jpg","null","mooney2","image-keyboard-response","550","1903472","0.0-6.0-5.77","3378780","co34363","norming","","","","","","",""
"5967","","","post_reveal_questions","survey-likert","551","1909441","0.0-6.0-6.77","3378780","co34363","norming","","","{""aha"":6}","[0]","../img/tt/1211tt.jpg","",""
"null","<div style=""font-size:60px;""> </div>","null","fixation","html-keyboard-response","552","1909643","0.0-6.0-0.78","3378780","co34363","norming","","","","","","",""
"null","../img/tt/031tt.jpg","null","mooney1","image-keyboard-response","553","1912646","0.0-6.0-1.78","3378780","co34363","norming","","","","","","",""
"4288","","","post_mooney1_questions","survey-likert","554","1916935","0.0-6.0-2.78","3378780","co34363","norming","","","{""curiosity"":6,""confidence"":0}","[0,1]","../img/tt/031tt.jpg","",""
"1153","","","recognition","survey-text","555","1918096","0.0-6.0-3.78","3378780","co34363","norming","","","{""guess"":""""}","","../img/tt/031tt.jpg","",""
"null","../img/gs/031gs.jpg","null","reveal","image-keyboard-response","556","1920099","0.0-6.0-4.78","3378780","co34363","norming","","","","","","",""
"null","../img/tt/031tt.jpg","null","mooney2","image-keyboard-response","557","1922101","0.0-6.0-5.78","3378780","co34363","norming","","","","","","",""
"13485.999999999767","","","post_reveal_questions","survey-likert","558","1935588","0.0-6.0-6.78","3378780","co34363","norming","","","{""aha"":6}","[0]","../img/tt/031tt.jpg","",""
"null","<div style=""font-size:60px;""> </div>","null","fixation","html-keyboard-response","559","1935791","0.0-6.0-0.79","3378780","co34363","norming","","","","","","",""
"null","../img/tt/1186tt.jpg","null","mooney1","image-keyboard-response","560","1938794","0.0-6.0-1.79","3378780","co34363","norming","","","","","","",""
"4791","","","post_mooney1_questions","survey-likert","561","1943587","0.0-6.0-2.79","3378780","co34363","norming","","","{""curiosity"":4,""confidence"":3}","[0,1]","../img/tt/1186tt.jpg","",""
"2144","","","recognition","survey-text","562","1945737","0.0-6.0-3.79","3378780","co34363","norming","","","{""guess"":""Skater""}","","../img/tt/1186tt.jpg","",""
"null","../img/gs/1186gs.jpg","null","reveal","image-keyboard-response","563","1947740","0.0-6.0-4.79","3378780","co34363","norming","","","","","","",""
"null","../img/tt/1186tt.jpg","null","mooney2","image-keyboard-response","564","1949742","0.0-6.0-5.79","3378780","co34363","norming","","","","","","",""
"7434","","","post_reveal_questions","survey-likert","565","1957178","0.0-6.0-6.79","3378780","co34363","norming","","","{""aha"":1}","[0]","../img/tt/1186tt.jpg","",""
