"rt","stimulus","key_press","test_part","trial_type","trial_index","time_elapsed","internal_node_id","totalTime","subject","experiment_name","button_pressed","success","responses","question_order","currentStim","old","correct"
"10441","Welcome to the experiment. This is an online experiment so please don't close the tab/window until we say goodbye.  Press any key to begin.","32","instructions","html-keyboard-response","0","10464","0.0-0.0","2618745","co34003","norming","","","","","","",""
"28354","<div style='word-wrap: break-word; width: 900px'><h3>Please consider this information carefully before deciding whether to participate in this research</h3><ul style='text-align: left; font-size: .8em;'><li><b>Purpose of the research</b>: To examine how people process images.</li><li><b>What you will do in this research</b>:  Stimuli (images) will be presented on the computer and you will be asked different questions about them.</li><li><b>Time required</b>: Participation will take between 45 and 60 minutes to complete.</li><li><b>Risks</b>:  There are no anticipated risks associated with participating in this study. The effects of participating should be comparable to those you would experience from viewing a computer monitor for 30 minutes and using a mouse or keyboard.</li><li><b>Benefits</b>:  This study provides no benefits to you individually except for the credit. The study provides important information about the nature of perception and learning.</li><li><b>Confidentiality</b>:  Your participation in this study will remain confidential. No personally identifiable information will be associated with your data. Your de-identified data may be shared with other researchers and used in future projects.</li><li><b>Participation and withdrawal</b>:  Your participation in this study is completely voluntary and you may refuse to participate or you may choose to withdraw at any time without penalty.</li><li><b>How to contact the researchers</b>: If you have questions or concerns about your participation or payment, or want to request a summary of research findings, please contact Sander Van de Cruys (KU Leuven), at sander.vandecruys@kuleuven.be.</li></ul><p>The nature and purpose of this research have been sufficiently explained and I agree to participate in this study.  I understand that I am free to withdraw at any time without incurring any penalty.</p><p>Please consent by clicking the button below to continue. Otherwise, please exit the study at this time.</p></div>","","instructions","html-button-response","1","38822","0.0-1.0","2618745","co34003","norming","0","","","","","",""
"","","","instructions","fullscreen","2","41815","0.0-2.0","2618745","co34003","norming","","true","","","","",""
"30477","","","sona","survey-html-form","3","72294","0.0-3.0","2618745","co34003","norming","","","[{""name"":""sonaid"",""value"":""34003""},{""name"":""debrief"",""value"":""yes""},{""name"":""datajoin"",""value"":""yes""}]","","","",""
"54373","<div style='word-wrap: break-word; width: 900px'><h3>Instructions</h3><p>This experiment will have 3 parts. In the first part you will see a series of distorted images like the one below on the left. As you can see in the righthand image, the distorted images are derived from actual photographs. In what follows, you will <strong>briefly</strong> be presented with <strong>only</strong> the distorted image.</p> <div style='float: left; margin-right: 20px;'><img src='../img/018tt.jpg' height='250' width='250'></img></div><div style='float: right; margin-left: 20px;'><img src='../img/018gs.jpg' height='250' width='250'></img></div><p>Subsequently you will be asked a few questions about the image: One question on how <strong>curious</strong> you are about the solution and one on how <strong>confident</strong> you are that you know the solution.</p>Next, we ask you to make a guess on what is in the image. Note that it is OK to name just the <strong>basic level category</strong>. For example when you see a parrot in the image, 'parrot' will obviously be a correct answer but also correct is 'bird'. However, 'animal' will <strong>not</strong> be counted as a correct response. For the example above, 'rose' would be correct or 'flower', but not 'plant'. When soccer players are depicted, 'soccer', 'football', 'soccer players' will be correct, but not 'humans', 'outdoors', or 'sports'. You do not need to describe the image in full, just name the main object in it <strong>in one or two words</strong>. All images depict objects from one of the following broad level categories: animals, inanimate objects, plants, sports, vehicles, and food. Recognizing means knowing <strong>more</strong> than these broad labels for a given image. But we always encourage you to <strong>make a guess</strong> if you can. Note that you are allowed to use <strong>Dutch and English</strong> in your answers, whatever comes easiest for you.</p><p>Press any key to continue.</p></div>","32","instructions","html-keyboard-response","4","126669","0.0-4.0","2618745","co34003","norming","","","","","","",""
"16375","<div style='word-wrap: break-word; width: 900px'><h3>Instructions</h3> <p>Next, the solution image will be revealed to you and you'll be asked to indicate how strong your <strong>aha-experience</strong> was after seeing the solution. This describes the positive feeling of the 'click' you sometimes experience, when the pieces of the 'puzzle' fall together and you suddenly have 'insight' in the image.</p><img src='aha.jpg' height='188' width='250'></img><p>Note that there are no right or wrong answers. We are interested in what <strong>you</strong> see in the image and how <strong>you</strong> feel about it.</p><p>Press any key to start the experiment.</p></div>","32","instructions","html-keyboard-response","5","143045","0.0-5.0","2618745","co34003","norming","","","","","","",""
"null","<div style=""font-size:60px;""> </div>","null","fixation","html-keyboard-response","6","143247","0.0-6.0-0.0","2618745","co34003","norming","","","","","","",""
"null","../img/tt/1087tt.jpg","null","mooney1","image-keyboard-response","7","146250","0.0-6.0-1.0","2618745","co34003","norming","","","","","","",""
"12543","","","post_mooney1_questions","survey-likert","8","158802","0.0-6.0-2.0","2618745","co34003","norming","","","{""curiosity"":6,""confidence"":2}","[0,1]","../img/tt/1087tt.jpg","",""
"4801","","","recognition","survey-text","9","163611","0.0-6.0-3.0","2618745","co34003","norming","","","{""guess"":""sheep""}","","../img/tt/1087tt.jpg","",""
"null","../img/gs/1087gs.jpg","null","reveal","image-keyboard-response","10","165613","0.0-6.0-4.0","2618745","co34003","norming","","","","","","",""
"null","../img/tt/1087tt.jpg","null","mooney2","image-keyboard-response","11","167616","0.0-6.0-5.0","2618745","co34003","norming","","","","","","",""
"6962.000000000029","","","post_reveal_questions","survey-likert","12","174579","0.0-6.0-6.0","2618745","co34003","norming","","","{""aha"":2}","[0]","../img/tt/1087tt.jpg","",""
"null","<div style=""font-size:60px;""> </div>","null","fixation","html-keyboard-response","13","174782","0.0-6.0-0.1","2618745","co34003","norming","","","","","","",""
"null","../img/tt/1239tt.jpg","null","mooney1","image-keyboard-response","14","177785","0.0-6.0-1.1","2618745","co34003","norming","","","","","","",""
"4719","","","post_mooney1_questions","survey-likert","15","182505","0.0-6.0-2.1","2618745","co34003","norming","","","{""curiosity"":6,""confidence"":0}","[0,1]","../img/tt/1239tt.jpg","",""
"5636","","","recognition","survey-text","16","188148","0.0-6.0-3.1","2618745","co34003","norming","","","{""guess"":""""}","","../img/tt/1239tt.jpg","",""
"null","../img/gs/1239gs.jpg","null","reveal","image-keyboard-response","17","190150","0.0-6.0-4.1","2618745","co34003","norming","","","","","","",""
"null","../img/tt/1239tt.jpg","null","mooney2","image-keyboard-response","18","192152","0.0-6.0-5.1","2618745","co34003","norming","","","","","","",""
"5959","","","post_reveal_questions","survey-likert","19","198113","0.0-6.0-6.1","2618745","co34003","norming","","","{""aha"":5}","[0]","../img/tt/1239tt.jpg","",""
"null","<div style=""font-size:60px;""> </div>","null","fixation","html-keyboard-response","20","198315","0.0-6.0-0.2","2618745","co34003","norming","","","","","","",""
"null","../img/tt/598tt.jpg","null","mooney1","image-keyboard-response","21","201318","0.0-6.0-1.2","2618745","co34003","norming","","","","","","",""
"6470","","","post_mooney1_questions","survey-likert","22","207790","0.0-6.0-2.2","2618745","co34003","norming","","","{""curiosity"":5,""confidence"":0}","[0,1]","../img/tt/598tt.jpg","",""
"841","","","recognition","survey-text","23","208636","0.0-6.0-3.2","2618745","co34003","norming","","","{""guess"":""""}","","../img/tt/598tt.jpg","",""
"null","../img/gs/598gs.jpg","null","reveal","image-keyboard-response","24","210638","0.0-6.0-4.2","2618745","co34003","norming","","","","","","",""
"null","../img/tt/598tt.jpg","null","mooney2","image-keyboard-response","25","212640","0.0-6.0-5.2","2618745","co34003","norming","","","","","","",""
"2720","","","post_reveal_questions","survey-likert","26","215362","0.0-6.0-6.2","2618745","co34003","norming","","","{""aha"":5}","[0]","../img/tt/598tt.jpg","",""
"null","<div style=""font-size:60px;""> </div>","null","fixation","html-keyboard-response","27","215564","0.0-6.0-0.3","2618745","co34003","norming","","","","","","",""
"null","../img/tt/1353tt.jpg","null","mooney1","image-keyboard-response","28","218566","0.0-6.0-1.3","2618745","co34003","norming","","","","","","",""
"6840.000000000029","","","post_mooney1_questions","survey-likert","29","225416","0.0-6.0-2.3","2618745","co34003","norming","","","{""curiosity"":4,""confidence"":3}","[0,1]","../img/tt/1353tt.jpg","",""
"5397.999999999971","","","recognition","survey-text","30","230830","0.0-6.0-3.3","2618745","co34003","norming","","","{""guess"":""paprika""}","","../img/tt/1353tt.jpg","",""
"null","../img/gs/1353gs.jpg","null","reveal","image-keyboard-response","31","232835","0.0-6.0-4.3","2618745","co34003","norming","","","","","","",""
"null","../img/tt/1353tt.jpg","null","mooney2","image-keyboard-response","32","234841","0.0-6.0-5.3","2618745","co34003","norming","","","","","","",""
"2879","","","post_reveal_questions","survey-likert","33","237724","0.0-6.0-6.3","2618745","co34003","norming","","","{""aha"":3}","[0]","../img/tt/1353tt.jpg","",""
"null","<div style=""font-size:60px;""> </div>","null","fixation","html-keyboard-response","34","237926","0.0-6.0-0.4","2618745","co34003","norming","","","","","","",""
"null","../img/tt/279tt.jpg","null","mooney1","image-keyboard-response","35","240932","0.0-6.0-1.4","2618745","co34003","norming","","","","","","",""
"4485","","","post_mooney1_questions","survey-likert","36","245422","0.0-6.0-2.4","2618745","co34003","norming","","","{""curiosity"":5,""confidence"":0}","[0,1]","../img/tt/279tt.jpg","",""
"1654","","","recognition","survey-text","37","247083","0.0-6.0-3.4","2618745","co34003","norming","","","{""guess"":""""}","","../img/tt/279tt.jpg","",""
"null","../img/gs/279gs.jpg","null","reveal","image-keyboard-response","38","249086","0.0-6.0-4.4","2618745","co34003","norming","","","","","","",""
"null","../img/tt/279tt.jpg","null","mooney2","image-keyboard-response","39","251090","0.0-6.0-5.4","2618745","co34003","norming","","","","","","",""
"1874.000000000029","","","post_reveal_questions","survey-likert","40","252966","0.0-6.0-6.4","2618745","co34003","norming","","","{""aha"":4}","[0]","../img/tt/279tt.jpg","",""
"null","<div style=""font-size:60px;""> </div>","null","fixation","html-keyboard-response","41","253168","0.0-6.0-0.5","2618745","co34003","norming","","","","","","",""
"null","../img/tt/1154tt.jpg","null","mooney1","image-keyboard-response","42","256172","0.0-6.0-1.5","2618745","co34003","norming","","","","","","",""
"3921","","","post_mooney1_questions","survey-likert","43","260096","0.0-6.0-2.5","2618745","co34003","norming","","","{""curiosity"":5,""confidence"":1}","[0,1]","../img/tt/1154tt.jpg","",""
"2970","","","recognition","survey-text","44","263072","0.0-6.0-3.5","2618745","co34003","norming","","","{""guess"":""train""}","","../img/tt/1154tt.jpg","",""
"null","../img/gs/1154gs.jpg","null","reveal","image-keyboard-response","45","265075","0.0-6.0-4.5","2618745","co34003","norming","","","","","","",""
"null","../img/tt/1154tt.jpg","null","mooney2","image-keyboard-response","46","267078","0.0-6.0-5.5","2618745","co34003","norming","","","","","","",""
"4295.000000000058","","","post_reveal_questions","survey-likert","47","271375","0.0-6.0-6.5","2618745","co34003","norming","","","{""aha"":6}","[0]","../img/tt/1154tt.jpg","",""
"null","<div style=""font-size:60px;""> </div>","null","fixation","html-keyboard-response","48","271578","0.0-6.0-0.6","2618745","co34003","norming","","","","","","",""
"null","../img/tt/534tt.jpg","null","mooney1","image-keyboard-response","49","274579","0.0-6.0-1.6","2618745","co34003","norming","","","","","","",""
"11248","","","post_mooney1_questions","survey-likert","50","285831","0.0-6.0-2.6","2618745","co34003","norming","","","{""curiosity"":2,""confidence"":5}","[0,1]","../img/tt/534tt.jpg","",""
"3834","","","recognition","survey-text","51","289670","0.0-6.0-3.6","2618745","co34003","norming","","","{""guess"":""cactus""}","","../img/tt/534tt.jpg","",""
"null","../img/gs/534gs.jpg","null","reveal","image-keyboard-response","52","291671","0.0-6.0-4.6","2618745","co34003","norming","","","","","","",""
"null","../img/tt/534tt.jpg","null","mooney2","image-keyboard-response","53","293672","0.0-6.0-5.6","2618745","co34003","norming","","","","","","",""
"3346","","","post_reveal_questions","survey-likert","54","297019","0.0-6.0-6.6","2618745","co34003","norming","","","{""aha"":0}","[0]","../img/tt/534tt.jpg","",""
"null","<div style=""font-size:60px;""> </div>","null","fixation","html-keyboard-response","55","297221","0.0-6.0-0.7","2618745","co34003","norming","","","","","","",""
"null","../img/tt/1196tt.jpg","null","mooney1","image-keyboard-response","56","300224","0.0-6.0-1.7","2618745","co34003","norming","","","","","","",""
"3764","","","post_mooney1_questions","survey-likert","57","303990","0.0-6.0-2.7","2618745","co34003","norming","","","{""curiosity"":5,""confidence"":0}","[0,1]","../img/tt/1196tt.jpg","",""
"759","","","recognition","survey-text","58","304755","0.0-6.0-3.7","2618745","co34003","norming","","","{""guess"":""""}","","../img/tt/1196tt.jpg","",""
"null","../img/gs/1196gs.jpg","null","reveal","image-keyboard-response","59","306757","0.0-6.0-4.7","2618745","co34003","norming","","","","","","",""
"null","../img/tt/1196tt.jpg","null","mooney2","image-keyboard-response","60","308759","0.0-6.0-5.7","2618745","co34003","norming","","","","","","",""
"5923","","","post_reveal_questions","survey-likert","61","314684","0.0-6.0-6.7","2618745","co34003","norming","","","{""aha"":5}","[0]","../img/tt/1196tt.jpg","",""
"null","<div style=""font-size:60px;""> </div>","null","fixation","html-keyboard-response","62","314886","0.0-6.0-0.8","2618745","co34003","norming","","","","","","",""
"null","../img/tt/584tt.jpg","null","mooney1","image-keyboard-response","63","317888","0.0-6.0-1.8","2618745","co34003","norming","","","","","","",""
"5328.000000000058","","","post_mooney1_questions","survey-likert","64","323217","0.0-6.0-2.8","2618745","co34003","norming","","","{""curiosity"":4,""confidence"":1}","[0,1]","../img/tt/584tt.jpg","",""
"3325","","","recognition","survey-text","65","326548","0.0-6.0-3.8","2618745","co34003","norming","","","{""guess"":""fruit""}","","../img/tt/584tt.jpg","",""
"null","../img/gs/584gs.jpg","null","reveal","image-keyboard-response","66","328550","0.0-6.0-4.8","2618745","co34003","norming","","","","","","",""
"null","../img/tt/584tt.jpg","null","mooney2","image-keyboard-response","67","330552","0.0-6.0-5.8","2618745","co34003","norming","","","","","","",""
"6318","","","post_reveal_questions","survey-likert","68","336872","0.0-6.0-6.8","2618745","co34003","norming","","","{""aha"":5}","[0]","../img/tt/584tt.jpg","",""
"null","<div style=""font-size:60px;""> </div>","null","fixation","html-keyboard-response","69","337074","0.0-6.0-0.9","2618745","co34003","norming","","","","","","",""
"null","../img/tt/1148tt.jpg","null","mooney1","image-keyboard-response","70","340077","0.0-6.0-1.9","2618745","co34003","norming","","","","","","",""
"5949.000000000058","","","post_mooney1_questions","survey-likert","71","346027","0.0-6.0-2.9","2618745","co34003","norming","","","{""curiosity"":3,""confidence"":3}","[0,1]","../img/tt/1148tt.jpg","",""
"4048.000000000058","","","recognition","survey-text","72","350081","0.0-6.0-3.9","2618745","co34003","norming","","","{""guess"":""woman""}","","../img/tt/1148tt.jpg","",""
"null","../img/gs/1148gs.jpg","null","reveal","image-keyboard-response","73","352082","0.0-6.0-4.9","2618745","co34003","norming","","","","","","",""
"null","../img/tt/1148tt.jpg","null","mooney2","image-keyboard-response","74","354084","0.0-6.0-5.9","2618745","co34003","norming","","","","","","",""
"2444","","","post_reveal_questions","survey-likert","75","356529","0.0-6.0-6.9","2618745","co34003","norming","","","{""aha"":5}","[0]","../img/tt/1148tt.jpg","",""
"null","<div style=""font-size:60px;""> </div>","null","fixation","html-keyboard-response","76","356732","0.0-6.0-0.10","2618745","co34003","norming","","","","","","",""
"null","../img/tt/1283tt.jpg","null","mooney1","image-keyboard-response","77","359734","0.0-6.0-1.10","2618745","co34003","norming","","","","","","",""
"4675","","","post_mooney1_questions","survey-likert","78","364410","0.0-6.0-2.10","2618745","co34003","norming","","","{""curiosity"":3,""confidence"":4}","[0,1]","../img/tt/1283tt.jpg","",""
"5274.999999999942","","","recognition","survey-text","79","369691","0.0-6.0-3.10","2618745","co34003","norming","","","{""guess"":""animal""}","","../img/tt/1283tt.jpg","",""
"null","../img/gs/1283gs.jpg","null","reveal","image-keyboard-response","80","371692","0.0-6.0-4.10","2618745","co34003","norming","","","","","","",""
"null","../img/tt/1283tt.jpg","null","mooney2","image-keyboard-response","81","373694","0.0-6.0-5.10","2618745","co34003","norming","","","","","","",""
"6135","","","post_reveal_questions","survey-likert","82","379831","0.0-6.0-6.10","2618745","co34003","norming","","","{""aha"":3}","[0]","../img/tt/1283tt.jpg","",""
"null","<div style=""font-size:60px;""> </div>","null","fixation","html-keyboard-response","83","380034","0.0-6.0-0.11","2618745","co34003","norming","","","","","","",""
"null","../img/tt/1175tt.jpg","null","mooney1","image-keyboard-response","84","383036","0.0-6.0-1.11","2618745","co34003","norming","","","","","","",""
"3939","","","post_mooney1_questions","survey-likert","85","386977","0.0-6.0-2.11","2618745","co34003","norming","","","{""curiosity"":5,""confidence"":0}","[0,1]","../img/tt/1175tt.jpg","",""
"1132","","","recognition","survey-text","86","388114","0.0-6.0-3.11","2618745","co34003","norming","","","{""guess"":""""}","","../img/tt/1175tt.jpg","",""
"null","../img/gs/1175gs.jpg","null","reveal","image-keyboard-response","87","390116","0.0-6.0-4.11","2618745","co34003","norming","","","","","","",""
"null","../img/tt/1175tt.jpg","null","mooney2","image-keyboard-response","88","392119","0.0-6.0-5.11","2618745","co34003","norming","","","","","","",""
"2368.000000000058","","","post_reveal_questions","survey-likert","89","394489","0.0-6.0-6.11","2618745","co34003","norming","","","{""aha"":5}","[0]","../img/tt/1175tt.jpg","",""
"null","<div style=""font-size:60px;""> </div>","null","fixation","html-keyboard-response","90","394691","0.0-6.0-0.12","2618745","co34003","norming","","","","","","",""
"null","../img/tt/1048tt.jpg","null","mooney1","image-keyboard-response","91","397694","0.0-6.0-1.12","2618745","co34003","norming","","","","","","",""
"4351","","","post_mooney1_questions","survey-likert","92","402047","0.0-6.0-2.12","2618745","co34003","norming","","","{""curiosity"":4,""confidence"":2}","[0,1]","../img/tt/1048tt.jpg","",""
"4787","","","recognition","survey-text","93","406838","0.0-6.0-3.12","2618745","co34003","norming","","","{""guess"":""animal""}","","../img/tt/1048tt.jpg","",""
"null","../img/gs/1048gs.jpg","null","reveal","image-keyboard-response","94","408839","0.0-6.0-4.12","2618745","co34003","norming","","","","","","",""
"null","../img/tt/1048tt.jpg","null","mooney2","image-keyboard-response","95","410842","0.0-6.0-5.12","2618745","co34003","norming","","","","","","",""
"4631","","","post_reveal_questions","survey-likert","96","415474","0.0-6.0-6.12","2618745","co34003","norming","","","{""aha"":5}","[0]","../img/tt/1048tt.jpg","",""
"null","<div style=""font-size:60px;""> </div>","null","fixation","html-keyboard-response","97","415676","0.0-6.0-0.13","2618745","co34003","norming","","","","","","",""
"null","../img/tt/032tt.jpg","null","mooney1","image-keyboard-response","98","418678","0.0-6.0-1.13","2618745","co34003","norming","","","","","","",""
"4189.000000000058","","","post_mooney1_questions","survey-likert","99","422869","0.0-6.0-2.13","2618745","co34003","norming","","","{""curiosity"":5,""confidence"":1}","[0,1]","../img/tt/032tt.jpg","",""
"4114","","","recognition","survey-text","100","426988","0.0-6.0-3.13","2618745","co34003","norming","","","{""guess"":""cowboy""}","","../img/tt/032tt.jpg","",""
"null","../img/gs/032gs.jpg","null","reveal","image-keyboard-response","101","428991","0.0-6.0-4.13","2618745","co34003","norming","","","","","","",""
"null","../img/tt/032tt.jpg","null","mooney2","image-keyboard-response","102","430994","0.0-6.0-5.13","2618745","co34003","norming","","","","","","",""
"13074.999999999942","","","post_reveal_questions","survey-likert","103","444070","0.0-6.0-6.13","2618745","co34003","norming","","","{""aha"":5}","[0]","../img/tt/032tt.jpg","",""
"null","<div style=""font-size:60px;""> </div>","null","fixation","html-keyboard-response","104","444273","0.0-6.0-0.14","2618745","co34003","norming","","","","","","",""
"null","../img/tt/603tt.jpg","null","mooney1","image-keyboard-response","105","447276","0.0-6.0-1.14","2618745","co34003","norming","","","","","","",""
"3831.000000000058","","","post_mooney1_questions","survey-likert","106","451108","0.0-6.0-2.14","2618745","co34003","norming","","","{""curiosity"":2,""confidence"":4}","[0,1]","../img/tt/603tt.jpg","",""
"1409","","","recognition","survey-text","107","452523","0.0-6.0-3.14","2618745","co34003","norming","","","{""guess"":""cat""}","","../img/tt/603tt.jpg","",""
"null","../img/gs/603gs.jpg","null","reveal","image-keyboard-response","108","454526","0.0-6.0-4.14","2618745","co34003","norming","","","","","","",""
"null","../img/tt/603tt.jpg","null","mooney2","image-keyboard-response","109","456528","0.0-6.0-5.14","2618745","co34003","norming","","","","","","",""
"4252.000000000058","","","post_reveal_questions","survey-likert","110","460781","0.0-6.0-6.14","2618745","co34003","norming","","","{""aha"":0}","[0]","../img/tt/603tt.jpg","",""
"null","<div style=""font-size:60px;""> </div>","null","fixation","html-keyboard-response","111","460983","0.0-6.0-0.15","2618745","co34003","norming","","","","","","",""
"null","../img/tt/008tt.jpg","null","mooney1","image-keyboard-response","112","463986","0.0-6.0-1.15","2618745","co34003","norming","","","","","","",""
"6090","","","post_mooney1_questions","survey-likert","113","470078","0.0-6.0-2.15","2618745","co34003","norming","","","{""curiosity"":3,""confidence"":3}","[0,1]","../img/tt/008tt.jpg","",""
"7601","","","recognition","survey-text","114","477684","0.0-6.0-3.15","2618745","co34003","norming","","","{""guess"":""boog""}","","../img/tt/008tt.jpg","",""
"null","../img/gs/008gs.jpg","null","reveal","image-keyboard-response","115","479687","0.0-6.0-4.15","2618745","co34003","norming","","","","","","",""
"null","../img/tt/008tt.jpg","null","mooney2","image-keyboard-response","116","481688","0.0-6.0-5.15","2618745","co34003","norming","","","","","","",""
"1996","","","post_reveal_questions","survey-likert","117","483685","0.0-6.0-6.15","2618745","co34003","norming","","","{""aha"":4}","[0]","../img/tt/008tt.jpg","",""
"null","<div style=""font-size:60px;""> </div>","null","fixation","html-keyboard-response","118","483887","0.0-6.0-0.16","2618745","co34003","norming","","","","","","",""
"null","../img/tt/056tt.jpg","null","mooney1","image-keyboard-response","119","486890","0.0-6.0-1.16","2618745","co34003","norming","","","","","","",""
"6823","","","post_mooney1_questions","survey-likert","120","493714","0.0-6.0-2.16","2618745","co34003","norming","","","{""curiosity"":4,""confidence"":2}","[0,1]","../img/tt/056tt.jpg","",""
"2221","","","recognition","survey-text","121","495940","0.0-6.0-3.16","2618745","co34003","norming","","","{""guess"":""sport""}","","../img/tt/056tt.jpg","",""
"null","../img/gs/056gs.jpg","null","reveal","image-keyboard-response","122","497942","0.0-6.0-4.16","2618745","co34003","norming","","","","","","",""
"null","../img/tt/056tt.jpg","null","mooney2","image-keyboard-response","123","499945","0.0-6.0-5.16","2618745","co34003","norming","","","","","","",""
"2111.000000000058","","","post_reveal_questions","survey-likert","124","502056","0.0-6.0-6.16","2618745","co34003","norming","","","{""aha"":5}","[0]","../img/tt/056tt.jpg","",""
"null","<div style=""font-size:60px;""> </div>","null","fixation","html-keyboard-response","125","502259","0.0-6.0-0.17","2618745","co34003","norming","","","","","","",""
"null","../img/tt/1250tt.jpg","null","mooney1","image-keyboard-response","126","505262","0.0-6.0-1.17","2618745","co34003","norming","","","","","","",""
"4188","","","post_mooney1_questions","survey-likert","127","509452","0.0-6.0-2.17","2618745","co34003","norming","","","{""curiosity"":3,""confidence"":3}","[0,1]","../img/tt/1250tt.jpg","",""
"2193","","","recognition","survey-text","128","511650","0.0-6.0-3.17","2618745","co34003","norming","","","{""guess"":""animal""}","","../img/tt/1250tt.jpg","",""
"null","../img/gs/1250gs.jpg","null","reveal","image-keyboard-response","129","513651","0.0-6.0-4.17","2618745","co34003","norming","","","","","","",""
"null","../img/tt/1250tt.jpg","null","mooney2","image-keyboard-response","130","515654","0.0-6.0-5.17","2618745","co34003","norming","","","","","","",""
"2910.999999999942","","","post_reveal_questions","survey-likert","131","518565","0.0-6.0-6.17","2618745","co34003","norming","","","{""aha"":1}","[0]","../img/tt/1250tt.jpg","",""
"null","<div style=""font-size:60px;""> </div>","null","fixation","html-keyboard-response","132","518768","0.0-6.0-0.18","2618745","co34003","norming","","","","","","",""
"null","../img/tt/019tt.jpg","null","mooney1","image-keyboard-response","133","521771","0.0-6.0-1.18","2618745","co34003","norming","","","","","","",""
"3997","","","post_mooney1_questions","survey-likert","134","525769","0.0-6.0-2.18","2618745","co34003","norming","","","{""curiosity"":2,""confidence"":4}","[0,1]","../img/tt/019tt.jpg","",""
"3739","","","recognition","survey-text","135","529514","0.0-6.0-3.18","2618745","co34003","norming","","","{""guess"":""voetbalschoenen""}","","../img/tt/019tt.jpg","",""
"null","../img/gs/019gs.jpg","null","reveal","image-keyboard-response","136","531516","0.0-6.0-4.18","2618745","co34003","norming","","","","","","",""
"null","../img/tt/019tt.jpg","null","mooney2","image-keyboard-response","137","533518","0.0-6.0-5.18","2618745","co34003","norming","","","","","","",""
"2052","","","post_reveal_questions","survey-likert","138","535572","0.0-6.0-6.18","2618745","co34003","norming","","","{""aha"":6}","[0]","../img/tt/019tt.jpg","",""
"null","<div style=""font-size:60px;""> </div>","null","fixation","html-keyboard-response","139","535774","0.0-6.0-0.19","2618745","co34003","norming","","","","","","",""
"null","../img/tt/1190tt.jpg","null","mooney1","image-keyboard-response","140","538777","0.0-6.0-1.19","2618745","co34003","norming","","","","","","",""
"4558","","","post_mooney1_questions","survey-likert","141","543337","0.0-6.0-2.19","2618745","co34003","norming","","","{""curiosity"":4,""confidence"":2}","[0,1]","../img/tt/1190tt.jpg","",""
"2451","","","recognition","survey-text","142","545792","0.0-6.0-3.19","2618745","co34003","norming","","","{""guess"":""mijnwerker""}","","../img/tt/1190tt.jpg","",""
"null","../img/gs/1190gs.jpg","null","reveal","image-keyboard-response","143","547795","0.0-6.0-4.19","2618745","co34003","norming","","","","","","",""
"null","../img/tt/1190tt.jpg","null","mooney2","image-keyboard-response","144","549796","0.0-6.0-5.19","2618745","co34003","norming","","","","","","",""
"7487.000000000116","","","post_reveal_questions","survey-likert","145","557285","0.0-6.0-6.19","2618745","co34003","norming","","","{""aha"":4}","[0]","../img/tt/1190tt.jpg","",""
"null","<div style=""font-size:60px;""> </div>","null","fixation","html-keyboard-response","146","557489","0.0-6.0-0.20","2618745","co34003","norming","","","","","","",""
"null","../img/tt/1143tt.jpg","null","mooney1","image-keyboard-response","147","560491","0.0-6.0-1.20","2618745","co34003","norming","","","","","","",""
"8488.999999999884","","","post_mooney1_questions","survey-likert","148","568981","0.0-6.0-2.20","2618745","co34003","norming","","","{""curiosity"":5,""confidence"":2}","[0,1]","../img/tt/1143tt.jpg","",""
"6113","","","recognition","survey-text","149","575099","0.0-6.0-3.20","2618745","co34003","norming","","","{""guess"":""restaurant""}","","../img/tt/1143tt.jpg","",""
"null","../img/gs/1143gs.jpg","null","reveal","image-keyboard-response","150","577102","0.0-6.0-4.20","2618745","co34003","norming","","","","","","",""
"null","../img/tt/1143tt.jpg","null","mooney2","image-keyboard-response","151","579104","0.0-6.0-5.20","2618745","co34003","norming","","","","","","",""
"3294","","","post_reveal_questions","survey-likert","152","582400","0.0-6.0-6.20","2618745","co34003","norming","","","{""aha"":6}","[0]","../img/tt/1143tt.jpg","",""
"null","<div style=""font-size:60px;""> </div>","null","fixation","html-keyboard-response","153","582603","0.0-6.0-0.21","2618745","co34003","norming","","","","","","",""
"null","../img/tt/1027tt.jpg","null","mooney1","image-keyboard-response","154","585605","0.0-6.0-1.21","2618745","co34003","norming","","","","","","",""
"3865","","","post_mooney1_questions","survey-likert","155","589472","0.0-6.0-2.21","2618745","co34003","norming","","","{""curiosity"":4,""confidence"":2}","[0,1]","../img/tt/1027tt.jpg","",""
"1822","","","recognition","survey-text","156","591300","0.0-6.0-3.21","2618745","co34003","norming","","","{""guess"":""animals""}","","../img/tt/1027tt.jpg","",""
"null","../img/gs/1027gs.jpg","null","reveal","image-keyboard-response","157","593302","0.0-6.0-4.21","2618745","co34003","norming","","","","","","",""
"null","../img/tt/1027tt.jpg","null","mooney2","image-keyboard-response","158","595304","0.0-6.0-5.21","2618745","co34003","norming","","","","","","",""
"3983","","","post_reveal_questions","survey-likert","159","599288","0.0-6.0-6.21","2618745","co34003","norming","","","{""aha"":3}","[0]","../img/tt/1027tt.jpg","",""
"null","<div style=""font-size:60px;""> </div>","null","fixation","html-keyboard-response","160","599491","0.0-6.0-0.22","2618745","co34003","norming","","","","","","",""
"null","../img/tt/184tt.jpg","null","mooney1","image-keyboard-response","161","602499","0.0-6.0-1.22","2618745","co34003","norming","","","","","","",""
"3497","","","post_mooney1_questions","survey-likert","162","605997","0.0-6.0-2.22","2618745","co34003","norming","","","{""curiosity"":5,""confidence"":1}","[0,1]","../img/tt/184tt.jpg","",""
"2119","","","recognition","survey-text","163","608122","0.0-6.0-3.22","2618745","co34003","norming","","","{""guess"":""indiaan""}","","../img/tt/184tt.jpg","",""
"null","../img/gs/184gs.jpg","null","reveal","image-keyboard-response","164","610123","0.0-6.0-4.22","2618745","co34003","norming","","","","","","",""
"null","../img/tt/184tt.jpg","null","mooney2","image-keyboard-response","165","612125","0.0-6.0-5.22","2618745","co34003","norming","","","","","","",""
"1603","","","post_reveal_questions","survey-likert","166","613728","0.0-6.0-6.22","2618745","co34003","norming","","","{""aha"":6}","[0]","../img/tt/184tt.jpg","",""
"null","<div style=""font-size:60px;""> </div>","null","fixation","html-keyboard-response","167","613931","0.0-6.0-0.23","2618745","co34003","norming","","","","","","",""
"null","../img/tt/001tt.jpg","null","mooney1","image-keyboard-response","168","616933","0.0-6.0-1.23","2618745","co34003","norming","","","","","","",""
"3675.0000000001164","","","post_mooney1_questions","survey-likert","169","620609","0.0-6.0-2.23","2618745","co34003","norming","","","{""curiosity"":5,""confidence"":1}","[0,1]","../img/tt/001tt.jpg","",""
"2349.9999999998836","","","recognition","survey-text","170","622964","0.0-6.0-3.23","2618745","co34003","norming","","","{""guess"":""vogel""}","","../img/tt/001tt.jpg","",""
"null","../img/gs/001gs.jpg","null","reveal","image-keyboard-response","171","624966","0.0-6.0-4.23","2618745","co34003","norming","","","","","","",""
"null","../img/tt/001tt.jpg","null","mooney2","image-keyboard-response","172","626969","0.0-6.0-5.23","2618745","co34003","norming","","","","","","",""
"3342","","","post_reveal_questions","survey-likert","173","630312","0.0-6.0-6.23","2618745","co34003","norming","","","{""aha"":4}","[0]","../img/tt/001tt.jpg","",""
"null","<div style=""font-size:60px;""> </div>","null","fixation","html-keyboard-response","174","630515","0.0-6.0-0.24","2618745","co34003","norming","","","","","","",""
"null","../img/tt/1161tt.jpg","null","mooney1","image-keyboard-response","175","633517","0.0-6.0-1.24","2618745","co34003","norming","","","","","","",""
"3043.9999999998836","","","post_mooney1_questions","survey-likert","176","636562","0.0-6.0-2.24","2618745","co34003","norming","","","{""curiosity"":4,""confidence"":2}","[0,1]","../img/tt/1161tt.jpg","",""
"3501","","","recognition","survey-text","177","640068","0.0-6.0-3.24","2618745","co34003","norming","","","{""guess"":""bergklimmen""}","","../img/tt/1161tt.jpg","",""
"null","../img/gs/1161gs.jpg","null","reveal","image-keyboard-response","178","642069","0.0-6.0-4.24","2618745","co34003","norming","","","","","","",""
"null","../img/tt/1161tt.jpg","null","mooney2","image-keyboard-response","179","644070","0.0-6.0-5.24","2618745","co34003","norming","","","","","","",""
"4015.0000000001164","","","post_reveal_questions","survey-likert","180","648086","0.0-6.0-6.24","2618745","co34003","norming","","","{""aha"":3}","[0]","../img/tt/1161tt.jpg","",""
"null","<div style=""font-size:60px;""> </div>","null","fixation","html-keyboard-response","181","648289","0.0-6.0-0.25","2618745","co34003","norming","","","","","","",""
"null","../img/tt/306tt.jpg","null","mooney1","image-keyboard-response","182","651292","0.0-6.0-1.25","2618745","co34003","norming","","","","","","",""
"3558","","","post_mooney1_questions","survey-likert","183","654852","0.0-6.0-2.25","2618745","co34003","norming","","","{""curiosity"":4,""confidence"":2}","[0,1]","../img/tt/306tt.jpg","",""
"5081","","","recognition","survey-text","184","659938","0.0-6.0-3.25","2618745","co34003","norming","","","{""guess"":""schaatsen""}","","../img/tt/306tt.jpg","",""
"null","../img/gs/306gs.jpg","null","reveal","image-keyboard-response","185","661940","0.0-6.0-4.25","2618745","co34003","norming","","","","","","",""
"null","../img/tt/306tt.jpg","null","mooney2","image-keyboard-response","186","663942","0.0-6.0-5.25","2618745","co34003","norming","","","","","","",""
"2056","","","post_reveal_questions","survey-likert","187","665999","0.0-6.0-6.25","2618745","co34003","norming","","","{""aha"":6}","[0]","../img/tt/306tt.jpg","",""
"null","<div style=""font-size:60px;""> </div>","null","fixation","html-keyboard-response","188","666202","0.0-6.0-0.26","2618745","co34003","norming","","","","","","",""
"null","../img/tt/522tt.jpg","null","mooney1","image-keyboard-response","189","669204","0.0-6.0-1.26","2618745","co34003","norming","","","","","","",""
"3690","","","post_mooney1_questions","survey-likert","190","672896","0.0-6.0-2.26","2618745","co34003","norming","","","{""curiosity"":5,""confidence"":1}","[0,1]","../img/tt/522tt.jpg","",""
"3742","","","recognition","survey-text","191","676643","0.0-6.0-3.26","2618745","co34003","norming","","","{""guess"":""astronaut""}","","../img/tt/522tt.jpg","",""
"null","../img/gs/522gs.jpg","null","reveal","image-keyboard-response","192","678645","0.0-6.0-4.26","2618745","co34003","norming","","","","","","",""
"null","../img/tt/522tt.jpg","null","mooney2","image-keyboard-response","193","680648","0.0-6.0-5.26","2618745","co34003","norming","","","","","","",""
"1964","","","post_reveal_questions","survey-likert","194","682613","0.0-6.0-6.26","2618745","co34003","norming","","","{""aha"":6}","[0]","../img/tt/522tt.jpg","",""
"null","<div style=""font-size:60px;""> </div>","null","fixation","html-keyboard-response","195","682816","0.0-6.0-0.27","2618745","co34003","norming","","","","","","",""
"null","../img/tt/1247tt.jpg","null","mooney1","image-keyboard-response","196","685818","0.0-6.0-1.27","2618745","co34003","norming","","","","","","",""
"3606","","","post_mooney1_questions","survey-likert","197","689426","0.0-6.0-2.27","2618745","co34003","norming","","","{""curiosity"":5,""confidence"":2}","[0,1]","../img/tt/1247tt.jpg","",""
"1500","","","recognition","survey-text","198","690931","0.0-6.0-3.27","2618745","co34003","norming","","","{""guess"":""animal""}","","../img/tt/1247tt.jpg","",""
"null","../img/gs/1247gs.jpg","null","reveal","image-keyboard-response","199","692934","0.0-6.0-4.27","2618745","co34003","norming","","","","","","",""
"null","../img/tt/1247tt.jpg","null","mooney2","image-keyboard-response","200","694935","0.0-6.0-5.27","2618745","co34003","norming","","","","","","",""
"3691","","","post_reveal_questions","survey-likert","201","698627","0.0-6.0-6.27","2618745","co34003","norming","","","{""aha"":3}","[0]","../img/tt/1247tt.jpg","",""
"null","<div style=""font-size:60px;""> </div>","null","fixation","html-keyboard-response","202","698829","0.0-6.0-0.28","2618745","co34003","norming","","","","","","",""
"null","../img/tt/1151tt.jpg","null","mooney1","image-keyboard-response","203","701832","0.0-6.0-1.28","2618745","co34003","norming","","","","","","",""
"4358","","","post_mooney1_questions","survey-likert","204","706191","0.0-6.0-2.28","2618745","co34003","norming","","","{""curiosity"":6,""confidence"":0}","[0,1]","../img/tt/1151tt.jpg","",""
"809","","","recognition","survey-text","205","707005","0.0-6.0-3.28","2618745","co34003","norming","","","{""guess"":""""}","","../img/tt/1151tt.jpg","",""
"null","../img/gs/1151gs.jpg","null","reveal","image-keyboard-response","206","709006","0.0-6.0-4.28","2618745","co34003","norming","","","","","","",""
"null","../img/tt/1151tt.jpg","null","mooney2","image-keyboard-response","207","711007","0.0-6.0-5.28","2618745","co34003","norming","","","","","","",""
"2476","","","post_reveal_questions","survey-likert","208","713484","0.0-6.0-6.28","2618745","co34003","norming","","","{""aha"":6}","[0]","../img/tt/1151tt.jpg","",""
"null","<div style=""font-size:60px;""> </div>","null","fixation","html-keyboard-response","209","713686","0.0-6.0-0.29","2618745","co34003","norming","","","","","","",""
"null","../img/tt/1102tt.jpg","null","mooney1","image-keyboard-response","210","716687","0.0-6.0-1.29","2618745","co34003","norming","","","","","","",""
"4210","","","post_mooney1_questions","survey-likert","211","720898","0.0-6.0-2.29","2618745","co34003","norming","","","{""curiosity"":4,""confidence"":2}","[0,1]","../img/tt/1102tt.jpg","",""
"2326","","","recognition","survey-text","212","723230","0.0-6.0-3.29","2618745","co34003","norming","","","{""guess"":""palmboom""}","","../img/tt/1102tt.jpg","",""
"null","../img/gs/1102gs.jpg","null","reveal","image-keyboard-response","213","725232","0.0-6.0-4.29","2618745","co34003","norming","","","","","","",""
"null","../img/tt/1102tt.jpg","null","mooney2","image-keyboard-response","214","727234","0.0-6.0-5.29","2618745","co34003","norming","","","","","","",""
"3037","","","post_reveal_questions","survey-likert","215","730273","0.0-6.0-6.29","2618745","co34003","norming","","","{""aha"":5}","[0]","../img/tt/1102tt.jpg","",""
"null","<div style=""font-size:60px;""> </div>","null","fixation","html-keyboard-response","216","730474","0.0-6.0-0.30","2618745","co34003","norming","","","","","","",""
"null","../img/tt/1116tt.jpg","null","mooney1","image-keyboard-response","217","733475","0.0-6.0-1.30","2618745","co34003","norming","","","","","","",""
"4910","","","post_mooney1_questions","survey-likert","218","738386","0.0-6.0-2.30","2618745","co34003","norming","","","{""curiosity"":5,""confidence"":1}","[0,1]","../img/tt/1116tt.jpg","",""
"1394.9999999998836","","","recognition","survey-text","219","739787","0.0-6.0-3.30","2618745","co34003","norming","","","{""guess"":""tent""}","","../img/tt/1116tt.jpg","",""
"null","../img/gs/1116gs.jpg","null","reveal","image-keyboard-response","220","741788","0.0-6.0-4.30","2618745","co34003","norming","","","","","","",""
"null","../img/tt/1116tt.jpg","null","mooney2","image-keyboard-response","221","743790","0.0-6.0-5.30","2618745","co34003","norming","","","","","","",""
"3064.9999999998836","","","post_reveal_questions","survey-likert","222","746855","0.0-6.0-6.30","2618745","co34003","norming","","","{""aha"":5}","[0]","../img/tt/1116tt.jpg","",""
"null","<div style=""font-size:60px;""> </div>","null","fixation","html-keyboard-response","223","747057","0.0-6.0-0.31","2618745","co34003","norming","","","","","","",""
"null","../img/tt/1043tt.jpg","null","mooney1","image-keyboard-response","224","750059","0.0-6.0-1.31","2618745","co34003","norming","","","","","","",""
"3496.9999999998836","","","post_mooney1_questions","survey-likert","225","753557","0.0-6.0-2.31","2618745","co34003","norming","","","{""curiosity"":4,""confidence"":2}","[0,1]","../img/tt/1043tt.jpg","",""
"2343","","","recognition","survey-text","226","755905","0.0-6.0-3.31","2618745","co34003","norming","","","{""guess"":""dier""}","","../img/tt/1043tt.jpg","",""
"null","../img/gs/1043gs.jpg","null","reveal","image-keyboard-response","227","757906","0.0-6.0-4.31","2618745","co34003","norming","","","","","","",""
"null","../img/tt/1043tt.jpg","null","mooney2","image-keyboard-response","228","759907","0.0-6.0-5.31","2618745","co34003","norming","","","","","","",""
"2872","","","post_reveal_questions","survey-likert","229","762780","0.0-6.0-6.31","2618745","co34003","norming","","","{""aha"":5}","[0]","../img/tt/1043tt.jpg","",""
"null","<div style=""font-size:60px;""> </div>","null","fixation","html-keyboard-response","230","762982","0.0-6.0-0.32","2618745","co34003","norming","","","","","","",""
"null","../img/tt/078tt.jpg","null","mooney1","image-keyboard-response","231","765983","0.0-6.0-1.32","2618745","co34003","norming","","","","","","",""
"4038.0000000001164","","","post_mooney1_questions","survey-likert","232","770022","0.0-6.0-2.32","2618745","co34003","norming","","","{""curiosity"":2,""confidence"":5}","[0,1]","../img/tt/078tt.jpg","",""
"1795","","","recognition","survey-text","233","771823","0.0-6.0-3.32","2618745","co34003","norming","","","{""guess"":""druiven""}","","../img/tt/078tt.jpg","",""
"null","../img/gs/078gs.jpg","null","reveal","image-keyboard-response","234","773824","0.0-6.0-4.32","2618745","co34003","norming","","","","","","",""
"null","../img/tt/078tt.jpg","null","mooney2","image-keyboard-response","235","775826","0.0-6.0-5.32","2618745","co34003","norming","","","","","","",""
"2018.0000000001164","","","post_reveal_questions","survey-likert","236","777844","0.0-6.0-6.32","2618745","co34003","norming","","","{""aha"":0}","[0]","../img/tt/078tt.jpg","",""
"null","<div style=""font-size:60px;""> </div>","null","fixation","html-keyboard-response","237","778046","0.0-6.0-0.33","2618745","co34003","norming","","","","","","",""
"null","../img/tt/1181tt.jpg","null","mooney1","image-keyboard-response","238","781048","0.0-6.0-1.33","2618745","co34003","norming","","","","","","",""
"6637.000000000116","","","post_mooney1_questions","survey-likert","239","787686","0.0-6.0-2.33","2618745","co34003","norming","","","{""curiosity"":4,""confidence"":2}","[0,1]","../img/tt/1181tt.jpg","",""
"3801.9999999998836","","","recognition","survey-text","240","791493","0.0-6.0-3.33","2618745","co34003","norming","","","{""guess"":""dj""}","","../img/tt/1181tt.jpg","",""
"null","../img/gs/1181gs.jpg","null","reveal","image-keyboard-response","241","793494","0.0-6.0-4.33","2618745","co34003","norming","","","","","","",""
"null","../img/tt/1181tt.jpg","null","mooney2","image-keyboard-response","242","795496","0.0-6.0-5.33","2618745","co34003","norming","","","","","","",""
"24467","","","post_reveal_questions","survey-likert","243","819964","0.0-6.0-6.33","2618745","co34003","norming","","","{""aha"":5}","[0]","../img/tt/1181tt.jpg","",""
"null","<div style=""font-size:60px;""> </div>","null","fixation","html-keyboard-response","244","820166","0.0-6.0-0.34","2618745","co34003","norming","","","","","","",""
"null","../img/tt/1123tt.jpg","null","mooney1","image-keyboard-response","245","823169","0.0-6.0-1.34","2618745","co34003","norming","","","","","","",""
"6524","","","post_mooney1_questions","survey-likert","246","829695","0.0-6.0-2.34","2618745","co34003","norming","","","{""curiosity"":3,""confidence"":4}","[0,1]","../img/tt/1123tt.jpg","",""
"1966","","","recognition","survey-text","247","831667","0.0-6.0-3.34","2618745","co34003","norming","","","{""guess"":""balsport""}","","../img/tt/1123tt.jpg","",""
"null","../img/gs/1123gs.jpg","null","reveal","image-keyboard-response","248","833668","0.0-6.0-4.34","2618745","co34003","norming","","","","","","",""
"null","../img/tt/1123tt.jpg","null","mooney2","image-keyboard-response","249","835669","0.0-6.0-5.34","2618745","co34003","norming","","","","","","",""
"2944","","","post_reveal_questions","survey-likert","250","838615","0.0-6.0-6.34","2618745","co34003","norming","","","{""aha"":3}","[0]","../img/tt/1123tt.jpg","",""
"null","<div style=""font-size:60px;""> </div>","null","fixation","html-keyboard-response","251","838817","0.0-6.0-0.35","2618745","co34003","norming","","","","","","",""
"null","../img/tt/1200tt.jpg","null","mooney1","image-keyboard-response","252","841818","0.0-6.0-1.35","2618745","co34003","norming","","","","","","",""
"3932","","","post_mooney1_questions","survey-likert","253","845751","0.0-6.0-2.35","2618745","co34003","norming","","","{""curiosity"":2,""confidence"":5}","[0,1]","../img/tt/1200tt.jpg","",""
"1781.0000000001164","","","recognition","survey-text","254","847539","0.0-6.0-3.35","2618745","co34003","norming","","","{""guess"":""raften""}","","../img/tt/1200tt.jpg","",""
"null","../img/gs/1200gs.jpg","null","reveal","image-keyboard-response","255","849542","0.0-6.0-4.35","2618745","co34003","norming","","","","","","",""
"null","../img/tt/1200tt.jpg","null","mooney2","image-keyboard-response","256","851544","0.0-6.0-5.35","2618745","co34003","norming","","","","","","",""
"5201","","","post_reveal_questions","survey-likert","257","856747","0.0-6.0-6.35","2618745","co34003","norming","","","{""aha"":3}","[0]","../img/tt/1200tt.jpg","",""
"null","<div style=""font-size:60px;""> </div>","null","fixation","html-keyboard-response","258","856949","0.0-6.0-0.36","2618745","co34003","norming","","","","","","",""
"null","../img/tt/296tt.jpg","null","mooney1","image-keyboard-response","259","859952","0.0-6.0-1.36","2618745","co34003","norming","","","","","","",""
"3713","","","post_mooney1_questions","survey-likert","260","863666","0.0-6.0-2.36","2618745","co34003","norming","","","{""curiosity"":3,""confidence"":3}","[0,1]","../img/tt/296tt.jpg","",""
"3050","","","recognition","survey-text","261","866721","0.0-6.0-3.36","2618745","co34003","norming","","","{""guess"":""ziekenhuisbed""}","","../img/tt/296tt.jpg","",""
"null","../img/gs/296gs.jpg","null","reveal","image-keyboard-response","262","868723","0.0-6.0-4.36","2618745","co34003","norming","","","","","","",""
"null","../img/tt/296tt.jpg","null","mooney2","image-keyboard-response","263","870726","0.0-6.0-5.36","2618745","co34003","norming","","","","","","",""
"2441","","","post_reveal_questions","survey-likert","264","873167","0.0-6.0-6.36","2618745","co34003","norming","","","{""aha"":1}","[0]","../img/tt/296tt.jpg","",""
"null","<div style=""font-size:60px;""> </div>","null","fixation","html-keyboard-response","265","873370","0.0-6.0-0.37","2618745","co34003","norming","","","","","","",""
"null","../img/tt/1188tt.jpg","null","mooney1","image-keyboard-response","266","876373","0.0-6.0-1.37","2618745","co34003","norming","","","","","","",""
"3486","","","post_mooney1_questions","survey-likert","267","879860","0.0-6.0-2.37","2618745","co34003","norming","","","{""curiosity"":5,""confidence"":1}","[0,1]","../img/tt/1188tt.jpg","",""
"3277","","","recognition","survey-text","268","883142","0.0-6.0-3.37","2618745","co34003","norming","","","{""guess"":""""}","","../img/tt/1188tt.jpg","",""
"null","../img/gs/1188gs.jpg","null","reveal","image-keyboard-response","269","885144","0.0-6.0-4.37","2618745","co34003","norming","","","","","","",""
"null","../img/tt/1188tt.jpg","null","mooney2","image-keyboard-response","270","887146","0.0-6.0-5.37","2618745","co34003","norming","","","","","","",""
"2507","","","post_reveal_questions","survey-likert","271","889654","0.0-6.0-6.37","2618745","co34003","norming","","","{""aha"":5}","[0]","../img/tt/1188tt.jpg","",""
"null","<div style=""font-size:60px;""> </div>","null","fixation","html-keyboard-response","272","889856","0.0-6.0-0.38","2618745","co34003","norming","","","","","","",""
"null","../img/tt/1127tt.jpg","null","mooney1","image-keyboard-response","273","892859","0.0-6.0-1.38","2618745","co34003","norming","","","","","","",""
"4706","","","post_mooney1_questions","survey-likert","274","897567","0.0-6.0-2.38","2618745","co34003","norming","","","{""curiosity"":2,""confidence"":4}","[0,1]","../img/tt/1127tt.jpg","",""
"4628.000000000116","","","recognition","survey-text","275","902199","0.0-6.0-3.38","2618745","co34003","norming","","","{""guess"":""judo/karate""}","","../img/tt/1127tt.jpg","",""
"null","../img/gs/1127gs.jpg","null","reveal","image-keyboard-response","276","904201","0.0-6.0-4.38","2618745","co34003","norming","","","","","","",""
"null","../img/tt/1127tt.jpg","null","mooney2","image-keyboard-response","277","906203","0.0-6.0-5.38","2618745","co34003","norming","","","","","","",""
"4331.000000000116","","","post_reveal_questions","survey-likert","278","910536","0.0-6.0-6.38","2618745","co34003","norming","","","{""aha"":4}","[0]","../img/tt/1127tt.jpg","",""
"null","<div style=""font-size:60px;""> </div>","null","fixation","html-keyboard-response","279","910739","0.0-6.0-0.39","2618745","co34003","norming","","","","","","",""
"null","../img/tt/1279tt.jpg","null","mooney1","image-keyboard-response","280","913741","0.0-6.0-1.39","2618745","co34003","norming","","","","","","",""
"2872.9999999998836","","","post_mooney1_questions","survey-likert","281","916616","0.0-6.0-2.39","2618745","co34003","norming","","","{""curiosity"":4,""confidence"":2}","[0,1]","../img/tt/1279tt.jpg","",""
"1147.0000000001164","","","recognition","survey-text","282","917767","0.0-6.0-3.39","2618745","co34003","norming","","","{""guess"":""dansen""}","","../img/tt/1279tt.jpg","",""
"null","../img/gs/1279gs.jpg","null","reveal","image-keyboard-response","283","919769","0.0-6.0-4.39","2618745","co34003","norming","","","","","","",""
"null","../img/tt/1279tt.jpg","null","mooney2","image-keyboard-response","284","921771","0.0-6.0-5.39","2618745","co34003","norming","","","","","","",""
"2138.0000000001164","","","post_reveal_questions","survey-likert","285","923911","0.0-6.0-6.39","2618745","co34003","norming","","","{""aha"":5}","[0]","../img/tt/1279tt.jpg","",""
"null","<div style=""font-size:60px;""> </div>","null","fixation","html-keyboard-response","286","924114","0.0-6.0-0.40","2618745","co34003","norming","","","","","","",""
"null","../img/tt/135tt.jpg","null","mooney1","image-keyboard-response","287","927116","0.0-6.0-1.40","2618745","co34003","norming","","","","","","",""
"3736.9999999998836","","","post_mooney1_questions","survey-likert","288","930856","0.0-6.0-2.40","2618745","co34003","norming","","","{""curiosity"":5,""confidence"":0}","[0,1]","../img/tt/135tt.jpg","",""
"1066","","","recognition","survey-text","289","931928","0.0-6.0-3.40","2618745","co34003","norming","","","{""guess"":""""}","","../img/tt/135tt.jpg","",""
"null","../img/gs/135gs.jpg","null","reveal","image-keyboard-response","290","933930","0.0-6.0-4.40","2618745","co34003","norming","","","","","","",""
"null","../img/tt/135tt.jpg","null","mooney2","image-keyboard-response","291","935933","0.0-6.0-5.40","2618745","co34003","norming","","","","","","",""
"1893","","","post_reveal_questions","survey-likert","292","937828","0.0-6.0-6.40","2618745","co34003","norming","","","{""aha"":6}","[0]","../img/tt/135tt.jpg","",""
"null","<div style=""font-size:60px;""> </div>","null","fixation","html-keyboard-response","293","938029","0.0-6.0-0.41","2618745","co34003","norming","","","","","","",""
"null","../img/tt/307tt.jpg","null","mooney1","image-keyboard-response","294","941031","0.0-6.0-1.41","2618745","co34003","norming","","","","","","",""
"3216.0000000001164","","","post_mooney1_questions","survey-likert","295","944248","0.0-6.0-2.41","2618745","co34003","norming","","","{""curiosity"":5,""confidence"":1}","[0,1]","../img/tt/307tt.jpg","",""
"1641","","","recognition","survey-text","296","945894","0.0-6.0-3.41","2618745","co34003","norming","","","{""guess"":""dier""}","","../img/tt/307tt.jpg","",""
"null","../img/gs/307gs.jpg","null","reveal","image-keyboard-response","297","947897","0.0-6.0-4.41","2618745","co34003","norming","","","","","","",""
"null","../img/tt/307tt.jpg","null","mooney2","image-keyboard-response","298","949899","0.0-6.0-5.41","2618745","co34003","norming","","","","","","",""
"2552","","","post_reveal_questions","survey-likert","299","952452","0.0-6.0-6.41","2618745","co34003","norming","","","{""aha"":5}","[0]","../img/tt/307tt.jpg","",""
"null","<div style=""font-size:60px;""> </div>","null","fixation","html-keyboard-response","300","952655","0.0-6.0-0.42","2618745","co34003","norming","","","","","","",""
"null","../img/tt/007tt.jpg","null","mooney1","image-keyboard-response","301","955657","0.0-6.0-1.42","2618745","co34003","norming","","","","","","",""
"3935","","","post_mooney1_questions","survey-likert","302","959594","0.0-6.0-2.42","2618745","co34003","norming","","","{""curiosity"":4,""confidence"":3}","[0,1]","../img/tt/007tt.jpg","",""
"1371.0000000001164","","","recognition","survey-text","303","960970","0.0-6.0-3.42","2618745","co34003","norming","","","{""guess"":""kikker""}","","../img/tt/007tt.jpg","",""
"null","../img/gs/007gs.jpg","null","reveal","image-keyboard-response","304","962973","0.0-6.0-4.42","2618745","co34003","norming","","","","","","",""
"null","../img/tt/007tt.jpg","null","mooney2","image-keyboard-response","305","964975","0.0-6.0-5.42","2618745","co34003","norming","","","","","","",""
"1813","","","post_reveal_questions","survey-likert","306","966789","0.0-6.0-6.42","2618745","co34003","norming","","","{""aha"":2}","[0]","../img/tt/007tt.jpg","",""
"null","<div style=""font-size:60px;""> </div>","null","fixation","html-keyboard-response","307","966992","0.0-6.0-0.43","2618745","co34003","norming","","","","","","",""
"null","../img/tt/1243tt.jpg","null","mooney1","image-keyboard-response","308","969995","0.0-6.0-1.43","2618745","co34003","norming","","","","","","",""
"7015","","","post_mooney1_questions","survey-likert","309","977011","0.0-6.0-2.43","2618745","co34003","norming","","","{""curiosity"":3,""confidence"":4}","[0,1]","../img/tt/1243tt.jpg","",""
"4126","","","recognition","survey-text","310","981142","0.0-6.0-3.43","2618745","co34003","norming","","","{""guess"":""katachtige""}","","../img/tt/1243tt.jpg","",""
"null","../img/gs/1243gs.jpg","null","reveal","image-keyboard-response","311","983145","0.0-6.0-4.43","2618745","co34003","norming","","","","","","",""
"null","../img/tt/1243tt.jpg","null","mooney2","image-keyboard-response","312","985146","0.0-6.0-5.43","2618745","co34003","norming","","","","","","",""
"2953.0000000001164","","","post_reveal_questions","survey-likert","313","988101","0.0-6.0-6.43","2618745","co34003","norming","","","{""aha"":4}","[0]","../img/tt/1243tt.jpg","",""
"null","<div style=""font-size:60px;""> </div>","null","fixation","html-keyboard-response","314","988304","0.0-6.0-0.44","2618745","co34003","norming","","","","","","",""
"null","../img/tt/517tt.jpg","null","mooney1","image-keyboard-response","315","991306","0.0-6.0-1.44","2618745","co34003","norming","","","","","","",""
"5209","","","post_mooney1_questions","survey-likert","316","996516","0.0-6.0-2.44","2618745","co34003","norming","","","{""curiosity"":3,""confidence"":3}","[0,1]","../img/tt/517tt.jpg","",""
"1834","","","recognition","survey-text","317","998355","0.0-6.0-3.44","2618745","co34003","norming","","","{""guess"":""dier""}","","../img/tt/517tt.jpg","",""
"null","../img/gs/517gs.jpg","null","reveal","image-keyboard-response","318","1000358","0.0-6.0-4.44","2618745","co34003","norming","","","","","","",""
"null","../img/tt/517tt.jpg","null","mooney2","image-keyboard-response","319","1002360","0.0-6.0-5.44","2618745","co34003","norming","","","","","","",""
"1859","","","post_reveal_questions","survey-likert","320","1004220","0.0-6.0-6.44","2618745","co34003","norming","","","{""aha"":4}","[0]","../img/tt/517tt.jpg","",""
"null","<div style=""font-size:60px;""> </div>","null","fixation","html-keyboard-response","321","1004423","0.0-6.0-0.45","2618745","co34003","norming","","","","","","",""
"null","../img/tt/1237tt.jpg","null","mooney1","image-keyboard-response","322","1007425","0.0-6.0-1.45","2618745","co34003","norming","","","","","","",""
"3940","","","post_mooney1_questions","survey-likert","323","1011366","0.0-6.0-2.45","2618745","co34003","norming","","","{""curiosity"":5,""confidence"":1}","[0,1]","../img/tt/1237tt.jpg","",""
"1197.9999999998836","","","recognition","survey-text","324","1012568","0.0-6.0-3.45","2618745","co34003","norming","","","{""guess"":""""}","","../img/tt/1237tt.jpg","",""
"null","../img/gs/1237gs.jpg","null","reveal","image-keyboard-response","325","1014571","0.0-6.0-4.45","2618745","co34003","norming","","","","","","",""
"null","../img/tt/1237tt.jpg","null","mooney2","image-keyboard-response","326","1016573","0.0-6.0-5.45","2618745","co34003","norming","","","","","","",""
"1781","","","post_reveal_questions","survey-likert","327","1018356","0.0-6.0-6.45","2618745","co34003","norming","","","{""aha"":5}","[0]","../img/tt/1237tt.jpg","",""
"null","<div style=""font-size:60px;""> </div>","null","fixation","html-keyboard-response","328","1018558","0.0-6.0-0.46","2618745","co34003","norming","","","","","","",""
"null","../img/tt/081tt.jpg","null","mooney1","image-keyboard-response","329","1021559","0.0-6.0-1.46","2618745","co34003","norming","","","","","","",""
"3523.9999999998836","","","post_mooney1_questions","survey-likert","330","1025084","0.0-6.0-2.46","2618745","co34003","norming","","","{""curiosity"":4,""confidence"":2}","[0,1]","../img/tt/081tt.jpg","",""
"854.0000000001164","","","recognition","survey-text","331","1025942","0.0-6.0-3.46","2618745","co34003","norming","","","{""guess"":""dier""}","","../img/tt/081tt.jpg","",""
"null","../img/gs/081gs.jpg","null","reveal","image-keyboard-response","332","1027944","0.0-6.0-4.46","2618745","co34003","norming","","","","","","",""
"null","../img/tt/081tt.jpg","null","mooney2","image-keyboard-response","333","1029946","0.0-6.0-5.46","2618745","co34003","norming","","","","","","",""
"2000","","","post_reveal_questions","survey-likert","334","1031948","0.0-6.0-6.46","2618745","co34003","norming","","","{""aha"":4}","[0]","../img/tt/081tt.jpg","",""
"null","<div style=""font-size:60px;""> </div>","null","fixation","html-keyboard-response","335","1032150","0.0-6.0-0.47","2618745","co34003","norming","","","","","","",""
"null","../img/tt/378tt.jpg","null","mooney1","image-keyboard-response","336","1035152","0.0-6.0-1.47","2618745","co34003","norming","","","","","","",""
"3190.999999999767","","","post_mooney1_questions","survey-likert","337","1038345","0.0-6.0-2.47","2618745","co34003","norming","","","{""curiosity"":4,""confidence"":1}","[0,1]","../img/tt/378tt.jpg","",""
"2787","","","recognition","survey-text","338","1041136","0.0-6.0-3.47","2618745","co34003","norming","","","{""guess"":""paddenstoel""}","","../img/tt/378tt.jpg","",""
"null","../img/gs/378gs.jpg","null","reveal","image-keyboard-response","339","1043138","0.0-6.0-4.47","2618745","co34003","norming","","","","","","",""
"null","../img/tt/378tt.jpg","null","mooney2","image-keyboard-response","340","1045141","0.0-6.0-5.47","2618745","co34003","norming","","","","","","",""
"2837","","","post_reveal_questions","survey-likert","341","1047979","0.0-6.0-6.47","2618745","co34003","norming","","","{""aha"":6}","[0]","../img/tt/378tt.jpg","",""
"null","<div style=""font-size:60px;""> </div>","null","fixation","html-keyboard-response","342","1048181","0.0-6.0-0.48","2618745","co34003","norming","","","","","","",""
"null","../img/tt/1236tt.jpg","null","mooney1","image-keyboard-response","343","1051183","0.0-6.0-1.48","2618745","co34003","norming","","","","","","",""
"3435","","","post_mooney1_questions","survey-likert","344","1054620","0.0-6.0-2.48","2618745","co34003","norming","","","{""curiosity"":4,""confidence"":2}","[0,1]","../img/tt/1236tt.jpg","",""
"814.9999999997672","","","recognition","survey-text","345","1055439","0.0-6.0-3.48","2618745","co34003","norming","","","{""guess"":""dier""}","","../img/tt/1236tt.jpg","",""
"null","../img/gs/1236gs.jpg","null","reveal","image-keyboard-response","346","1057441","0.0-6.0-4.48","2618745","co34003","norming","","","","","","",""
"null","../img/tt/1236tt.jpg","null","mooney2","image-keyboard-response","347","1059443","0.0-6.0-5.48","2618745","co34003","norming","","","","","","",""
"2045","","","post_reveal_questions","survey-likert","348","1061489","0.0-6.0-6.48","2618745","co34003","norming","","","{""aha"":4}","[0]","../img/tt/1236tt.jpg","",""
"null","<div style=""font-size:60px;""> </div>","null","fixation","html-keyboard-response","349","1061691","0.0-6.0-0.49","2618745","co34003","norming","","","","","","",""
"null","../img/tt/358tt.jpg","null","mooney1","image-keyboard-response","350","1064693","0.0-6.0-1.49","2618745","co34003","norming","","","","","","",""
"3476","","","post_mooney1_questions","survey-likert","351","1068170","0.0-6.0-2.49","2618745","co34003","norming","","","{""curiosity"":3,""confidence"":3}","[0,1]","../img/tt/358tt.jpg","",""
"3771","","","recognition","survey-text","352","1071947","0.0-6.0-3.49","2618745","co34003","norming","","","{""guess"":""rotsklimmen""}","","../img/tt/358tt.jpg","",""
"null","../img/gs/358gs.jpg","null","reveal","image-keyboard-response","353","1073949","0.0-6.0-4.49","2618745","co34003","norming","","","","","","",""
"null","../img/tt/358tt.jpg","null","mooney2","image-keyboard-response","354","1075951","0.0-6.0-5.49","2618745","co34003","norming","","","","","","",""
"3312","","","post_reveal_questions","survey-likert","355","1079265","0.0-6.0-6.49","2618745","co34003","norming","","","{""aha"":5}","[0]","../img/tt/358tt.jpg","",""
"null","<div style=""font-size:60px;""> </div>","null","fixation","html-keyboard-response","356","1079468","0.0-6.0-0.50","2618745","co34003","norming","","","","","","",""
"null","../img/tt/599tt.jpg","null","mooney1","image-keyboard-response","357","1082470","0.0-6.0-1.50","2618745","co34003","norming","","","","","","",""
"3773","","","post_mooney1_questions","survey-likert","358","1086245","0.0-6.0-2.50","2618745","co34003","norming","","","{""curiosity"":4,""confidence"":2}","[0,1]","../img/tt/599tt.jpg","",""
"1237.9999999997672","","","recognition","survey-text","359","1087488","0.0-6.0-3.50","2618745","co34003","norming","","","{""guess"":""vogel""}","","../img/tt/599tt.jpg","",""
"null","../img/gs/599gs.jpg","null","reveal","image-keyboard-response","360","1089490","0.0-6.0-4.50","2618745","co34003","norming","","","","","","",""
"null","../img/tt/599tt.jpg","null","mooney2","image-keyboard-response","361","1091493","0.0-6.0-5.50","2618745","co34003","norming","","","","","","",""
"2201","","","post_reveal_questions","survey-likert","362","1093695","0.0-6.0-6.50","2618745","co34003","norming","","","{""aha"":2}","[0]","../img/tt/599tt.jpg","",""
"null","<div style=""font-size:60px;""> </div>","null","fixation","html-keyboard-response","363","1093898","0.0-6.0-0.51","2618745","co34003","norming","","","","","","",""
"null","../img/tt/1276tt.jpg","null","mooney1","image-keyboard-response","364","1096900","0.0-6.0-1.51","2618745","co34003","norming","","","","","","",""
"5613","","","post_mooney1_questions","survey-likert","365","1102514","0.0-6.0-2.51","2618745","co34003","norming","","","{""curiosity"":4,""confidence"":3}","[0,1]","../img/tt/1276tt.jpg","",""
"2199","","","recognition","survey-text","366","1104725","0.0-6.0-3.51","2618745","co34003","norming","","","{""guess"":""vogel""}","","../img/tt/1276tt.jpg","",""
"null","../img/gs/1276gs.jpg","null","reveal","image-keyboard-response","367","1106727","0.0-6.0-4.51","2618745","co34003","norming","","","","","","",""
"null","../img/tt/1276tt.jpg","null","mooney2","image-keyboard-response","368","1108730","0.0-6.0-5.51","2618745","co34003","norming","","","","","","",""
"4207","","","post_reveal_questions","survey-likert","369","1112938","0.0-6.0-6.51","2618745","co34003","norming","","","{""aha"":4}","[0]","../img/tt/1276tt.jpg","",""
"null","<div style=""font-size:60px;""> </div>","null","fixation","html-keyboard-response","370","1113141","0.0-6.0-0.52","2618745","co34003","norming","","","","","","",""
"null","../img/tt/1046tt.jpg","null","mooney1","image-keyboard-response","371","1116143","0.0-6.0-1.52","2618745","co34003","norming","","","","","","",""
"4249","","","post_mooney1_questions","survey-likert","372","1120394","0.0-6.0-2.52","2618745","co34003","norming","","","{""curiosity"":4,""confidence"":1}","[0,1]","../img/tt/1046tt.jpg","",""
"1709","","","recognition","survey-text","373","1122108","0.0-6.0-3.52","2618745","co34003","norming","","","{""guess"":""pizza""}","","../img/tt/1046tt.jpg","",""
"null","../img/gs/1046gs.jpg","null","reveal","image-keyboard-response","374","1124111","0.0-6.0-4.52","2618745","co34003","norming","","","","","","",""
"null","../img/tt/1046tt.jpg","null","mooney2","image-keyboard-response","375","1126114","0.0-6.0-5.52","2618745","co34003","norming","","","","","","",""
"3171","","","post_reveal_questions","survey-likert","376","1129286","0.0-6.0-6.52","2618745","co34003","norming","","","{""aha"":1}","[0]","../img/tt/1046tt.jpg","",""
"null","<div style=""font-size:60px;""> </div>","null","fixation","html-keyboard-response","377","1129488","0.0-6.0-0.53","2618745","co34003","norming","","","","","","",""
"null","../img/tt/020tt.jpg","null","mooney1","image-keyboard-response","378","1132491","0.0-6.0-1.53","2618745","co34003","norming","","","","","","",""
"4084.999999999767","","","post_mooney1_questions","survey-likert","379","1136578","0.0-6.0-2.53","2618745","co34003","norming","","","{""curiosity"":5,""confidence"":0}","[0,1]","../img/tt/020tt.jpg","",""
"2061","","","recognition","survey-text","380","1138643","0.0-6.0-3.53","2618745","co34003","norming","","","{""guess"":""""}","","../img/tt/020tt.jpg","",""
"null","../img/gs/020gs.jpg","null","reveal","image-keyboard-response","381","1140645","0.0-6.0-4.53","2618745","co34003","norming","","","","","","",""
"null","../img/tt/020tt.jpg","null","mooney2","image-keyboard-response","382","1142648","0.0-6.0-5.53","2618745","co34003","norming","","","","","","",""
"3339","","","post_reveal_questions","survey-likert","383","1145989","0.0-6.0-6.53","2618745","co34003","norming","","","{""aha"":4}","[0]","../img/tt/020tt.jpg","",""
"null","<div style=""font-size:60px;""> </div>","null","fixation","html-keyboard-response","384","1146191","0.0-6.0-0.54","2618745","co34003","norming","","","","","","",""
"null","../img/tt/468tt.jpg","null","mooney1","image-keyboard-response","385","1149194","0.0-6.0-1.54","2618745","co34003","norming","","","","","","",""
"3616","","","post_mooney1_questions","survey-likert","386","1152812","0.0-6.0-2.54","2618745","co34003","norming","","","{""curiosity"":6,""confidence"":0}","[0,1]","../img/tt/468tt.jpg","",""
"931","","","recognition","survey-text","387","1153749","0.0-6.0-3.54","2618745","co34003","norming","","","{""guess"":""""}","","../img/tt/468tt.jpg","",""
"null","../img/gs/468gs.jpg","null","reveal","image-keyboard-response","388","1155751","0.0-6.0-4.54","2618745","co34003","norming","","","","","","",""
"null","../img/tt/468tt.jpg","null","mooney2","image-keyboard-response","389","1157754","0.0-6.0-5.54","2618745","co34003","norming","","","","","","",""
"3485","","","post_reveal_questions","survey-likert","390","1161240","0.0-6.0-6.54","2618745","co34003","norming","","","{""aha"":4}","[0]","../img/tt/468tt.jpg","",""
"null","<div style=""font-size:60px;""> </div>","null","fixation","html-keyboard-response","391","1161443","0.0-6.0-0.55","2618745","co34003","norming","","","","","","",""
"null","../img/tt/1189tt.jpg","null","mooney1","image-keyboard-response","392","1164446","0.0-6.0-1.55","2618745","co34003","norming","","","","","","",""
"3392.000000000233","","","post_mooney1_questions","survey-likert","393","1167839","0.0-6.0-2.55","2618745","co34003","norming","","","{""curiosity"":4,""confidence"":1}","[0,1]","../img/tt/1189tt.jpg","",""
"2495.000000000233","","","recognition","survey-text","394","1170340","0.0-6.0-3.55","2618745","co34003","norming","","","{""guess"":""vogel""}","","../img/tt/1189tt.jpg","",""
"null","../img/gs/1189gs.jpg","null","reveal","image-keyboard-response","395","1172342","0.0-6.0-4.55","2618745","co34003","norming","","","","","","",""
"null","../img/tt/1189tt.jpg","null","mooney2","image-keyboard-response","396","1174345","0.0-6.0-5.55","2618745","co34003","norming","","","","","","",""
"3639","","","post_reveal_questions","survey-likert","397","1177984","0.0-6.0-6.55","2618745","co34003","norming","","","{""aha"":4}","[0]","../img/tt/1189tt.jpg","",""
"null","<div style=""font-size:60px;""> </div>","null","fixation","html-keyboard-response","398","1178187","0.0-6.0-0.56","2618745","co34003","norming","","","","","","",""
"null","../img/tt/1205tt.jpg","null","mooney1","image-keyboard-response","399","1181190","0.0-6.0-1.56","2618745","co34003","norming","","","","","","",""
"3922","","","post_mooney1_questions","survey-likert","400","1185113","0.0-6.0-2.56","2618745","co34003","norming","","","{""curiosity"":4,""confidence"":2}","[0,1]","../img/tt/1205tt.jpg","",""
"3527","","","recognition","survey-text","401","1188645","0.0-6.0-3.56","2618745","co34003","norming","","","{""guess"":""basketbal""}","","../img/tt/1205tt.jpg","",""
"null","../img/gs/1205gs.jpg","null","reveal","image-keyboard-response","402","1190647","0.0-6.0-4.56","2618745","co34003","norming","","","","","","",""
"null","../img/tt/1205tt.jpg","null","mooney2","image-keyboard-response","403","1192650","0.0-6.0-5.56","2618745","co34003","norming","","","","","","",""
"3156","","","post_reveal_questions","survey-likert","404","1195808","0.0-6.0-6.56","2618745","co34003","norming","","","{""aha"":4}","[0]","../img/tt/1205tt.jpg","",""
"null","<div style=""font-size:60px;""> </div>","null","fixation","html-keyboard-response","405","1196010","0.0-6.0-0.57","2618745","co34003","norming","","","","","","",""
"null","../img/tt/1224tt.jpg","null","mooney1","image-keyboard-response","406","1199013","0.0-6.0-1.57","2618745","co34003","norming","","","","","","",""
"4577","","","post_mooney1_questions","survey-likert","407","1203591","0.0-6.0-2.57","2618745","co34003","norming","","","{""curiosity"":3,""confidence"":3}","[0,1]","../img/tt/1224tt.jpg","",""
"2064","","","recognition","survey-text","408","1205662","0.0-6.0-3.57","2618745","co34003","norming","","","{""guess"":""boksen""}","","../img/tt/1224tt.jpg","",""
"null","../img/gs/1224gs.jpg","null","reveal","image-keyboard-response","409","1207664","0.0-6.0-4.57","2618745","co34003","norming","","","","","","",""
"null","../img/tt/1224tt.jpg","null","mooney2","image-keyboard-response","410","1209666","0.0-6.0-5.57","2618745","co34003","norming","","","","","","",""
"2189.999999999767","","","post_reveal_questions","survey-likert","411","1211858","0.0-6.0-6.57","2618745","co34003","norming","","","{""aha"":5}","[0]","../img/tt/1224tt.jpg","",""
"null","<div style=""font-size:60px;""> </div>","null","fixation","html-keyboard-response","412","1212061","0.0-6.0-0.58","2618745","co34003","norming","","","","","","",""
"null","../img/tt/1255tt.jpg","null","mooney1","image-keyboard-response","413","1215063","0.0-6.0-1.58","2618745","co34003","norming","","","","","","",""
"5693","","","post_mooney1_questions","survey-likert","414","1220758","0.0-6.0-2.58","2618745","co34003","norming","","","{""curiosity"":4,""confidence"":1}","[0,1]","../img/tt/1255tt.jpg","",""
"1202","","","recognition","survey-text","415","1221965","0.0-6.0-3.58","2618745","co34003","norming","","","{""guess"":""vogel""}","","../img/tt/1255tt.jpg","",""
"null","../img/gs/1255gs.jpg","null","reveal","image-keyboard-response","416","1223968","0.0-6.0-4.58","2618745","co34003","norming","","","","","","",""
"null","../img/tt/1255tt.jpg","null","mooney2","image-keyboard-response","417","1225970","0.0-6.0-5.58","2618745","co34003","norming","","","","","","",""
"1900","","","post_reveal_questions","survey-likert","418","1227871","0.0-6.0-6.58","2618745","co34003","norming","","","{""aha"":5}","[0]","../img/tt/1255tt.jpg","",""
"null","<div style=""font-size:60px;""> </div>","null","fixation","html-keyboard-response","419","1228074","0.0-6.0-0.59","2618745","co34003","norming","","","","","","",""
"null","../img/tt/1235tt.jpg","null","mooney1","image-keyboard-response","420","1231076","0.0-6.0-1.59","2618745","co34003","norming","","","","","","",""
"3819","","","post_mooney1_questions","survey-likert","421","1234897","0.0-6.0-2.59","2618745","co34003","norming","","","{""curiosity"":4,""confidence"":3}","[0,1]","../img/tt/1235tt.jpg","",""
"1813","","","recognition","survey-text","422","1236714","0.0-6.0-3.59","2618745","co34003","norming","","","{""guess"":""ezel""}","","../img/tt/1235tt.jpg","",""
"null","../img/gs/1235gs.jpg","null","reveal","image-keyboard-response","423","1238717","0.0-6.0-4.59","2618745","co34003","norming","","","","","","",""
"null","../img/tt/1235tt.jpg","null","mooney2","image-keyboard-response","424","1240719","0.0-6.0-5.59","2618745","co34003","norming","","","","","","",""
"2902","","","post_reveal_questions","survey-likert","425","1243623","0.0-6.0-6.59","2618745","co34003","norming","","","{""aha"":6}","[0]","../img/tt/1235tt.jpg","",""
"null","<div style=""font-size:60px;""> </div>","null","fixation","html-keyboard-response","426","1243826","0.0-6.0-0.60","2618745","co34003","norming","","","","","","",""
"null","../img/tt/300tt.jpg","null","mooney1","image-keyboard-response","427","1246827","0.0-6.0-1.60","2618745","co34003","norming","","","","","","",""
"4606","","","post_mooney1_questions","survey-likert","428","1251434","0.0-6.0-2.60","2618745","co34003","norming","","","{""curiosity"":3,""confidence"":4}","[0,1]","../img/tt/300tt.jpg","",""
"2929","","","recognition","survey-text","429","1254368","0.0-6.0-3.60","2618745","co34003","norming","","","{""guess"":""dansers""}","","../img/tt/300tt.jpg","",""
"null","../img/gs/300gs.jpg","null","reveal","image-keyboard-response","430","1256371","0.0-6.0-4.60","2618745","co34003","norming","","","","","","",""
"null","../img/tt/300tt.jpg","null","mooney2","image-keyboard-response","431","1258372","0.0-6.0-5.60","2618745","co34003","norming","","","","","","",""
"2267.000000000233","","","post_reveal_questions","survey-likert","432","1260640","0.0-6.0-6.60","2618745","co34003","norming","","","{""aha"":6}","[0]","../img/tt/300tt.jpg","",""
"null","<div style=""font-size:60px;""> </div>","null","fixation","html-keyboard-response","433","1260842","0.0-6.0-0.61","2618745","co34003","norming","","","","","","",""
"null","../img/tt/1307tt.jpg","null","mooney1","image-keyboard-response","434","1263843","0.0-6.0-1.61","2618745","co34003","norming","","","","","","",""
"3949.000000000233","","","post_mooney1_questions","survey-likert","435","1267795","0.0-6.0-2.61","2618745","co34003","norming","","","{""curiosity"":6,""confidence"":0}","[0,1]","../img/tt/1307tt.jpg","",""
"1092","","","recognition","survey-text","436","1268891","0.0-6.0-3.61","2618745","co34003","norming","","","{""guess"":""""}","","../img/tt/1307tt.jpg","",""
"null","../img/gs/1307gs.jpg","null","reveal","image-keyboard-response","437","1270894","0.0-6.0-4.61","2618745","co34003","norming","","","","","","",""
"null","../img/tt/1307tt.jpg","null","mooney2","image-keyboard-response","438","1272896","0.0-6.0-5.61","2618745","co34003","norming","","","","","","",""
"1612","","","post_reveal_questions","survey-likert","439","1274510","0.0-6.0-6.61","2618745","co34003","norming","","","{""aha"":4}","[0]","../img/tt/1307tt.jpg","",""
"null","<div style=""font-size:60px;""> </div>","null","fixation","html-keyboard-response","440","1274712","0.0-6.0-0.62","2618745","co34003","norming","","","","","","",""
"null","../img/tt/040tt.jpg","null","mooney1","image-keyboard-response","441","1277715","0.0-6.0-1.62","2618745","co34003","norming","","","","","","",""
"3315","","","post_mooney1_questions","survey-likert","442","1281031","0.0-6.0-2.62","2618745","co34003","norming","","","{""curiosity"":5,""confidence"":1}","[0,1]","../img/tt/040tt.jpg","",""
"678","","","recognition","survey-text","443","1281714","0.0-6.0-3.62","2618745","co34003","norming","","","{""guess"":""dier""}","","../img/tt/040tt.jpg","",""
"null","../img/gs/040gs.jpg","null","reveal","image-keyboard-response","444","1283716","0.0-6.0-4.62","2618745","co34003","norming","","","","","","",""
"null","../img/tt/040tt.jpg","null","mooney2","image-keyboard-response","445","1285719","0.0-6.0-5.62","2618745","co34003","norming","","","","","","",""
"2815.000000000233","","","post_reveal_questions","survey-likert","446","1288535","0.0-6.0-6.62","2618745","co34003","norming","","","{""aha"":3}","[0]","../img/tt/040tt.jpg","",""
"null","<div style=""font-size:60px;""> </div>","null","fixation","html-keyboard-response","447","1288737","0.0-6.0-0.63","2618745","co34003","norming","","","","","","",""
"null","../img/tt/329tt.jpg","null","mooney1","image-keyboard-response","448","1291740","0.0-6.0-1.63","2618745","co34003","norming","","","","","","",""
"4571","","","post_mooney1_questions","survey-likert","449","1296312","0.0-6.0-2.63","2618745","co34003","norming","","","{""curiosity"":5,""confidence"":1}","[0,1]","../img/tt/329tt.jpg","",""
"1024","","","recognition","survey-text","450","1297341","0.0-6.0-3.63","2618745","co34003","norming","","","{""guess"":""trap""}","","../img/tt/329tt.jpg","",""
"null","../img/gs/329gs.jpg","null","reveal","image-keyboard-response","451","1299343","0.0-6.0-4.63","2618745","co34003","norming","","","","","","",""
"null","../img/tt/329tt.jpg","null","mooney2","image-keyboard-response","452","1301346","0.0-6.0-5.63","2618745","co34003","norming","","","","","","",""
"1659.0000000002328","","","post_reveal_questions","survey-likert","453","1303007","0.0-6.0-6.63","2618745","co34003","norming","","","{""aha"":4}","[0]","../img/tt/329tt.jpg","",""
"null","<div style=""font-size:60px;""> </div>","null","fixation","html-keyboard-response","454","1303209","0.0-6.0-0.64","2618745","co34003","norming","","","","","","",""
"null","../img/tt/436tt.jpg","null","mooney1","image-keyboard-response","455","1306212","0.0-6.0-1.64","2618745","co34003","norming","","","","","","",""
"3224","","","post_mooney1_questions","survey-likert","456","1309437","0.0-6.0-2.64","2618745","co34003","norming","","","{""curiosity"":3,""confidence"":2}","[0,1]","../img/tt/436tt.jpg","",""
"3476","","","recognition","survey-text","457","1312919","0.0-6.0-3.64","2618745","co34003","norming","","","{""guess"":""reptiel""}","","../img/tt/436tt.jpg","",""
"null","../img/gs/436gs.jpg","null","reveal","image-keyboard-response","458","1314921","0.0-6.0-4.64","2618745","co34003","norming","","","","","","",""
"null","../img/tt/436tt.jpg","null","mooney2","image-keyboard-response","459","1316923","0.0-6.0-5.64","2618745","co34003","norming","","","","","","",""
"1620","","","post_reveal_questions","survey-likert","460","1318545","0.0-6.0-6.64","2618745","co34003","norming","","","{""aha"":2}","[0]","../img/tt/436tt.jpg","",""
"null","<div style=""font-size:60px;""> </div>","null","fixation","html-keyboard-response","461","1318748","0.0-6.0-0.65","2618745","co34003","norming","","","","","","",""
"null","../img/tt/1024tt.jpg","null","mooney1","image-keyboard-response","462","1321751","0.0-6.0-1.65","2618745","co34003","norming","","","","","","",""
"3370","","","post_mooney1_questions","survey-likert","463","1325122","0.0-6.0-2.65","2618745","co34003","norming","","","{""curiosity"":4,""confidence"":3}","[0,1]","../img/tt/1024tt.jpg","",""
"1189","","","recognition","survey-text","464","1326317","0.0-6.0-3.65","2618745","co34003","norming","","","{""guess"":""dier""}","","../img/tt/1024tt.jpg","",""
"null","../img/gs/1024gs.jpg","null","reveal","image-keyboard-response","465","1328319","0.0-6.0-4.65","2618745","co34003","norming","","","","","","",""
"null","../img/tt/1024tt.jpg","null","mooney2","image-keyboard-response","466","1330320","0.0-6.0-5.65","2618745","co34003","norming","","","","","","",""
"2711","","","post_reveal_questions","survey-likert","467","1333029","0.0-6.0-6.65","2618745","co34003","norming","","","{""aha"":4}","[0]","../img/tt/1024tt.jpg","",""
"null","<div style=""font-size:60px;""> </div>","null","fixation","html-keyboard-response","468","1333231","0.0-6.0-0.66","2618745","co34003","norming","","","","","","",""
"null","../img/tt/053tt.jpg","null","mooney1","image-keyboard-response","469","1336231","0.0-6.0-1.66","2618745","co34003","norming","","","","","","",""
"5252","","","post_mooney1_questions","survey-likert","470","1341481","0.0-6.0-2.66","2618745","co34003","norming","","","{""curiosity"":2,""confidence"":4}","[0,1]","../img/tt/053tt.jpg","",""
"1647","","","recognition","survey-text","471","1343131","0.0-6.0-3.66","2618745","co34003","norming","","","{""guess"":""surfen""}","","../img/tt/053tt.jpg","",""
"null","../img/gs/053gs.jpg","null","reveal","image-keyboard-response","472","1345133","0.0-6.0-4.66","2618745","co34003","norming","","","","","","",""
"null","../img/tt/053tt.jpg","null","mooney2","image-keyboard-response","473","1347135","0.0-6.0-5.66","2618745","co34003","norming","","","","","","",""
"1913","","","post_reveal_questions","survey-likert","474","1349048","0.0-6.0-6.66","2618745","co34003","norming","","","{""aha"":4}","[0]","../img/tt/053tt.jpg","",""
"null","<div style=""font-size:60px;""> </div>","null","fixation","html-keyboard-response","475","1349249","0.0-6.0-0.67","2618745","co34003","norming","","","","","","",""
"null","../img/tt/044tt.jpg","null","mooney1","image-keyboard-response","476","1352251","0.0-6.0-1.67","2618745","co34003","norming","","","","","","",""
"4058","","","post_mooney1_questions","survey-likert","477","1356309","0.0-6.0-2.67","2618745","co34003","norming","","","{""curiosity"":2,""confidence"":4}","[0,1]","../img/tt/044tt.jpg","",""
"2621.000000000233","","","recognition","survey-text","478","1358933","0.0-6.0-3.67","2618745","co34003","norming","","","{""guess"":""laptop""}","","../img/tt/044tt.jpg","",""
"null","../img/gs/044gs.jpg","null","reveal","image-keyboard-response","479","1360935","0.0-6.0-4.67","2618745","co34003","norming","","","","","","",""
"null","../img/tt/044tt.jpg","null","mooney2","image-keyboard-response","480","1362937","0.0-6.0-5.67","2618745","co34003","norming","","","","","","",""
"2925","","","post_reveal_questions","survey-likert","481","1365864","0.0-6.0-6.67","2618745","co34003","norming","","","{""aha"":6}","[0]","../img/tt/044tt.jpg","",""
"null","<div style=""font-size:60px;""> </div>","null","fixation","html-keyboard-response","482","1366066","0.0-6.0-0.68","2618745","co34003","norming","","","","","","",""
"null","../img/tt/435tt.jpg","null","mooney1","image-keyboard-response","483","1369069","0.0-6.0-1.68","2618745","co34003","norming","","","","","","",""
"3535.000000000233","","","post_mooney1_questions","survey-likert","484","1372605","0.0-6.0-2.68","2618745","co34003","norming","","","{""curiosity"":6,""confidence"":0}","[0,1]","../img/tt/435tt.jpg","",""
"1173","","","recognition","survey-text","485","1373783","0.0-6.0-3.68","2618745","co34003","norming","","","{""guess"":""""}","","../img/tt/435tt.jpg","",""
"null","../img/gs/435gs.jpg","null","reveal","image-keyboard-response","486","1375785","0.0-6.0-4.68","2618745","co34003","norming","","","","","","",""
"null","../img/tt/435tt.jpg","null","mooney2","image-keyboard-response","487","1377788","0.0-6.0-5.68","2618745","co34003","norming","","","","","","",""
"2918","","","post_reveal_questions","survey-likert","488","1380706","0.0-6.0-6.68","2618745","co34003","norming","","","{""aha"":5}","[0]","../img/tt/435tt.jpg","",""
"null","<div style=""font-size:60px;""> </div>","null","fixation","html-keyboard-response","489","1380909","0.0-6.0-0.69","2618745","co34003","norming","","","","","","",""
"null","../img/tt/1101tt.jpg","null","mooney1","image-keyboard-response","490","1383911","0.0-6.0-1.69","2618745","co34003","norming","","","","","","",""
"4353","","","post_mooney1_questions","survey-likert","491","1388266","0.0-6.0-2.69","2618745","co34003","norming","","","{""curiosity"":5,""confidence"":2}","[0,1]","../img/tt/1101tt.jpg","",""
"1121","","","recognition","survey-text","492","1389391","0.0-6.0-3.69","2618745","co34003","norming","","","{""guess"":""sport""}","","../img/tt/1101tt.jpg","",""
"null","../img/gs/1101gs.jpg","null","reveal","image-keyboard-response","493","1391393","0.0-6.0-4.69","2618745","co34003","norming","","","","","","",""
"null","../img/tt/1101tt.jpg","null","mooney2","image-keyboard-response","494","1393394","0.0-6.0-5.69","2618745","co34003","norming","","","","","","",""
"2556","","","post_reveal_questions","survey-likert","495","1395951","0.0-6.0-6.69","2618745","co34003","norming","","","{""aha"":5}","[0]","../img/tt/1101tt.jpg","",""
"null","<div style=""font-size:60px;""> </div>","null","fixation","html-keyboard-response","496","1396154","0.0-6.0-0.70","2618745","co34003","norming","","","","","","",""
"null","../img/tt/1069tt.jpg","null","mooney1","image-keyboard-response","497","1399156","0.0-6.0-1.70","2618745","co34003","norming","","","","","","",""
"5949","","","post_mooney1_questions","survey-likert","498","1405107","0.0-6.0-2.70","2618745","co34003","norming","","","{""curiosity"":4,""confidence"":1}","[0,1]","../img/tt/1069tt.jpg","",""
"1524","","","recognition","survey-text","499","1406636","0.0-6.0-3.70","2618745","co34003","norming","","","{""guess"":""fietsen""}","","../img/tt/1069tt.jpg","",""
"null","../img/gs/1069gs.jpg","null","reveal","image-keyboard-response","500","1408638","0.0-6.0-4.70","2618745","co34003","norming","","","","","","",""
"null","../img/tt/1069tt.jpg","null","mooney2","image-keyboard-response","501","1410640","0.0-6.0-5.70","2618745","co34003","norming","","","","","","",""
"2281","","","post_reveal_questions","survey-likert","502","1412922","0.0-6.0-6.70","2618745","co34003","norming","","","{""aha"":4}","[0]","../img/tt/1069tt.jpg","",""
"null","<div style=""font-size:60px;""> </div>","null","fixation","html-keyboard-response","503","1413124","0.0-6.0-0.71","2618745","co34003","norming","","","","","","",""
"null","../img/tt/1268tt.jpg","null","mooney1","image-keyboard-response","504","1416127","0.0-6.0-1.71","2618745","co34003","norming","","","","","","",""
"3451","","","post_mooney1_questions","survey-likert","505","1419580","0.0-6.0-2.71","2618745","co34003","norming","","","{""curiosity"":6,""confidence"":0}","[0,1]","../img/tt/1268tt.jpg","",""
"2197.999999999767","","","recognition","survey-text","506","1421782","0.0-6.0-3.71","2618745","co34003","norming","","","{""guess"":""""}","","../img/tt/1268tt.jpg","",""
"null","../img/gs/1268gs.jpg","null","reveal","image-keyboard-response","507","1423784","0.0-6.0-4.71","2618745","co34003","norming","","","","","","",""
"null","../img/tt/1268tt.jpg","null","mooney2","image-keyboard-response","508","1425787","0.0-6.0-5.71","2618745","co34003","norming","","","","","","",""
"4805","","","post_reveal_questions","survey-likert","509","1430593","0.0-6.0-6.71","2618745","co34003","norming","","","{""aha"":5}","[0]","../img/tt/1268tt.jpg","",""
"null","<div style=""font-size:60px;""> </div>","null","fixation","html-keyboard-response","510","1430794","0.0-6.0-0.72","2618745","co34003","norming","","","","","","",""
"null","../img/tt/1211tt.jpg","null","mooney1","image-keyboard-response","511","1433797","0.0-6.0-1.72","2618745","co34003","norming","","","","","","",""
"3346","","","post_mooney1_questions","survey-likert","512","1437145","0.0-6.0-2.72","2618745","co34003","norming","","","{""curiosity"":2,""confidence"":4}","[0,1]","../img/tt/1211tt.jpg","",""
"1435","","","recognition","survey-text","513","1438585","0.0-6.0-3.72","2618745","co34003","norming","","","{""guess"":""golf""}","","../img/tt/1211tt.jpg","",""
"null","../img/gs/1211gs.jpg","null","reveal","image-keyboard-response","514","1440588","0.0-6.0-4.72","2618745","co34003","norming","","","","","","",""
"null","../img/tt/1211tt.jpg","null","mooney2","image-keyboard-response","515","1442590","0.0-6.0-5.72","2618745","co34003","norming","","","","","","",""
"3219","","","post_reveal_questions","survey-likert","516","1445811","0.0-6.0-6.72","2618745","co34003","norming","","","{""aha"":2}","[0]","../img/tt/1211tt.jpg","",""
"null","<div style=""font-size:60px;""> </div>","null","fixation","html-keyboard-response","517","1446014","0.0-6.0-0.73","2618745","co34003","norming","","","","","","",""
"null","../img/tt/477tt.jpg","null","mooney1","image-keyboard-response","518","1449015","0.0-6.0-1.73","2618745","co34003","norming","","","","","","",""
"3848","","","post_mooney1_questions","survey-likert","519","1452864","0.0-6.0-2.73","2618745","co34003","norming","","","{""curiosity"":6,""confidence"":0}","[0,1]","../img/tt/477tt.jpg","",""
"1036","","","recognition","survey-text","520","1453905","0.0-6.0-3.73","2618745","co34003","norming","","","{""guess"":""""}","","../img/tt/477tt.jpg","",""
"null","../img/gs/477gs.jpg","null","reveal","image-keyboard-response","521","1455906","0.0-6.0-4.73","2618745","co34003","norming","","","","","","",""
"null","../img/tt/477tt.jpg","null","mooney2","image-keyboard-response","522","1457908","0.0-6.0-5.73","2618745","co34003","norming","","","","","","",""
"1657.0000000002328","","","post_reveal_questions","survey-likert","523","1459566","0.0-6.0-6.73","2618745","co34003","norming","","","{""aha"":6}","[0]","../img/tt/477tt.jpg","",""
"null","<div style=""font-size:60px;""> </div>","null","fixation","html-keyboard-response","524","1459768","0.0-6.0-0.74","2618745","co34003","norming","","","","","","",""
"null","../img/tt/064tt.jpg","null","mooney1","image-keyboard-response","525","1462771","0.0-6.0-1.74","2618745","co34003","norming","","","","","","",""
"4260","","","post_mooney1_questions","survey-likert","526","1467032","0.0-6.0-2.74","2618745","co34003","norming","","","{""curiosity"":1,""confidence"":6}","[0,1]","../img/tt/064tt.jpg","",""
"2850","","","recognition","survey-text","527","1469887","0.0-6.0-3.74","2618745","co34003","norming","","","{""guess"":""schildpad""}","","../img/tt/064tt.jpg","",""
"null","../img/gs/064gs.jpg","null","reveal","image-keyboard-response","528","1471889","0.0-6.0-4.74","2618745","co34003","norming","","","","","","",""
"null","../img/tt/064tt.jpg","null","mooney2","image-keyboard-response","529","1473891","0.0-6.0-5.74","2618745","co34003","norming","","","","","","",""
"1725","","","post_reveal_questions","survey-likert","530","1475617","0.0-6.0-6.74","2618745","co34003","norming","","","{""aha"":0}","[0]","../img/tt/064tt.jpg","",""
"null","<div style=""font-size:60px;""> </div>","null","fixation","html-keyboard-response","531","1475819","0.0-6.0-0.75","2618745","co34003","norming","","","","","","",""
"null","../img/tt/094tt.jpg","null","mooney1","image-keyboard-response","532","1478822","0.0-6.0-1.75","2618745","co34003","norming","","","","","","",""
"3523","","","post_mooney1_questions","survey-likert","533","1482346","0.0-6.0-2.75","2618745","co34003","norming","","","{""curiosity"":6,""confidence"":0}","[0,1]","../img/tt/094tt.jpg","",""
"956.0000000002328","","","recognition","survey-text","534","1483306","0.0-6.0-3.75","2618745","co34003","norming","","","{""guess"":""""}","","../img/tt/094tt.jpg","",""
"null","../img/gs/094gs.jpg","null","reveal","image-keyboard-response","535","1485308","0.0-6.0-4.75","2618745","co34003","norming","","","","","","",""
"null","../img/tt/094tt.jpg","null","mooney2","image-keyboard-response","536","1487311","0.0-6.0-5.75","2618745","co34003","norming","","","","","","",""
"4292.000000000233","","","post_reveal_questions","survey-likert","537","1491604","0.0-6.0-6.75","2618745","co34003","norming","","","{""aha"":2}","[0]","../img/tt/094tt.jpg","",""
"null","<div style=""font-size:60px;""> </div>","null","fixation","html-keyboard-response","538","1491807","0.0-6.0-0.76","2618745","co34003","norming","","","","","","",""
"null","../img/tt/111tt.jpg","null","mooney1","image-keyboard-response","539","1494810","0.0-6.0-1.76","2618745","co34003","norming","","","","","","",""
"3699","","","post_mooney1_questions","survey-likert","540","1498510","0.0-6.0-2.76","2618745","co34003","norming","","","{""curiosity"":6,""confidence"":0}","[0,1]","../img/tt/111tt.jpg","",""
"2713","","","recognition","survey-text","541","1501228","0.0-6.0-3.76","2618745","co34003","norming","","","{""guess"":"" ""}","","../img/tt/111tt.jpg","",""
"null","../img/gs/111gs.jpg","null","reveal","image-keyboard-response","542","1503231","0.0-6.0-4.76","2618745","co34003","norming","","","","","","",""
"null","../img/tt/111tt.jpg","null","mooney2","image-keyboard-response","543","1505233","0.0-6.0-5.76","2618745","co34003","norming","","","","","","",""
"1499","","","post_reveal_questions","survey-likert","544","1506733","0.0-6.0-6.76","2618745","co34003","norming","","","{""aha"":5}","[0]","../img/tt/111tt.jpg","",""
"null","<div style=""font-size:60px;""> </div>","null","fixation","html-keyboard-response","545","1506935","0.0-6.0-0.77","2618745","co34003","norming","","","","","","",""
"null","../img/tt/076tt.jpg","null","mooney1","image-keyboard-response","546","1509937","0.0-6.0-1.77","2618745","co34003","norming","","","","","","",""
"4580.000000000233","","","post_mooney1_questions","survey-likert","547","1514518","0.0-6.0-2.77","2618745","co34003","norming","","","{""curiosity"":5,""confidence"":1}","[0,1]","../img/tt/076tt.jpg","",""
"3403","","","recognition","survey-text","548","1517926","0.0-6.0-3.77","2618745","co34003","norming","","","{""guess"":""rollerblades""}","","../img/tt/076tt.jpg","",""
"null","../img/gs/076gs.jpg","null","reveal","image-keyboard-response","549","1519929","0.0-6.0-4.77","2618745","co34003","norming","","","","","","",""
"null","../img/tt/076tt.jpg","null","mooney2","image-keyboard-response","550","1521931","0.0-6.0-5.77","2618745","co34003","norming","","","","","","",""
"1635.9999999997672","","","post_reveal_questions","survey-likert","551","1523574","0.0-6.0-6.77","2618745","co34003","norming","","","{""aha"":3}","[0]","../img/tt/076tt.jpg","",""
"null","<div style=""font-size:60px;""> </div>","null","fixation","html-keyboard-response","552","1523777","0.0-6.0-0.78","2618745","co34003","norming","","","","","","",""
"null","../img/tt/1033tt.jpg","null","mooney1","image-keyboard-response","553","1526780","0.0-6.0-1.78","2618745","co34003","norming","","","","","","",""
"3727","","","post_mooney1_questions","survey-likert","554","1530509","0.0-6.0-2.78","2618745","co34003","norming","","","{""curiosity"":4,""confidence"":2}","[0,1]","../img/tt/1033tt.jpg","",""
"1662","","","recognition","survey-text","555","1532175","0.0-6.0-3.78","2618745","co34003","norming","","","{""guess"":""hockey""}","","../img/tt/1033tt.jpg","",""
"null","../img/gs/1033gs.jpg","null","reveal","image-keyboard-response","556","1534177","0.0-6.0-4.78","2618745","co34003","norming","","","","","","",""
"null","../img/tt/1033tt.jpg","null","mooney2","image-keyboard-response","557","1536179","0.0-6.0-5.78","2618745","co34003","norming","","","","","","",""
"22180","","","post_reveal_questions","survey-likert","558","1558361","0.0-6.0-6.78","2618745","co34003","norming","","","{""aha"":4}","[0]","../img/tt/1033tt.jpg","",""
"null","<div style=""font-size:60px;""> </div>","null","fixation","html-keyboard-response","559","1558562","0.0-6.0-0.79","2618745","co34003","norming","","","","","","",""
"null","../img/tt/096tt.jpg","null","mooney1","image-keyboard-response","560","1561565","0.0-6.0-1.79","2618745","co34003","norming","","","","","","",""
"3175","","","post_mooney1_questions","survey-likert","561","1564742","0.0-6.0-2.79","2618745","co34003","norming","","","{""curiosity"":4,""confidence"":1}","[0,1]","../img/tt/096tt.jpg","",""
"1217","","","recognition","survey-text","562","1565964","0.0-6.0-3.79","2618745","co34003","norming","","","{""guess"":""zaag""}","","../img/tt/096tt.jpg","",""
"null","../img/gs/096gs.jpg","null","reveal","image-keyboard-response","563","1567966","0.0-6.0-4.79","2618745","co34003","norming","","","","","","",""
"null","../img/tt/096tt.jpg","null","mooney2","image-keyboard-response","564","1569967","0.0-6.0-5.79","2618745","co34003","norming","","","","","","",""
"1979","","","post_reveal_questions","survey-likert","565","1571948","0.0-6.0-6.79","2618745","co34003","norming","","","{""aha"":4}","[0]","../img/tt/096tt.jpg","",""
