"rt","stimulus","key_press","test_part","trial_type","trial_index","time_elapsed","internal_node_id","totalTime","subject","experiment_name","button_pressed","success","responses","question_order","currentStim","old","correct"
"11085.98499999971","Welcome to the experiment. This is an online experiment so please don't close the tab/window until we say goodbye.  Press any key to begin.","32","instructions","html-keyboard-response","0","11163","0.0-0.0","2899515","co37543","norming","","","","","","",""
"17449.945000000298","<div style='word-wrap: break-word; width: 900px'><h3>Please consider this information carefully before deciding whether to participate in this research</h3><ul style='text-align: left; font-size: .8em;'><li><b>Purpose of the research</b>: To examine how people process images.</li><li><b>What you will do in this research</b>:  Stimuli (images) will be presented on the computer and you will be asked different questions about them.</li><li><b>Time required</b>: Participation will take between 45 and 60 minutes to complete.</li><li><b>Risks</b>:  There are no anticipated risks associated with participating in this study. The effects of participating should be comparable to those you would experience from viewing a computer monitor for 30 minutes and using a mouse or keyboard.</li><li><b>Benefits</b>:  This study provides no benefits to you individually except for the credit. The study provides important information about the nature of perception and learning.</li><li><b>Confidentiality</b>:  Your participation in this study will remain confidential. No personally identifiable information will be associated with your data. Your de-identified data may be shared with other researchers and used in future projects.</li><li><b>Participation and withdrawal</b>:  Your participation in this study is completely voluntary and you may refuse to participate or you may choose to withdraw at any time without penalty.</li><li><b>How to contact the researchers</b>: If you have questions or concerns about your participation or payment, or want to request a summary of research findings, please contact Sander Van de Cruys (KU Leuven), at sander.vandecruys@kuleuven.be.</li></ul><p>The nature and purpose of this research have been sufficiently explained and I agree to participate in this study.  I understand that I am free to withdraw at any time without incurring any penalty.</p><p>Please consent by clicking the button below to continue. Otherwise, please exit the study at this time.</p></div>","","instructions","html-button-response","1","28617","0.0-1.0","2899515","co37543","norming","0","","","","","",""
"","","","instructions","fullscreen","2","36733","0.0-2.0","2899515","co37543","norming","","true","","","","",""
"57722.58499999952","","","sona","survey-html-form","3","94461","0.0-3.0","2899515","co37543","norming","","","[{""name"":""sonaid"",""value"":""37543""},{""name"":""debrief"",""value"":""no""},{""name"":""datajoin"",""value"":""yes""}]","","","",""
"65336.94500000001","<div style='word-wrap: break-word; width: 900px'><h3>Instructions</h3><p>This experiment will have 3 parts. In the first part you will see a series of distorted images like the one below on the left. As you can see in the righthand image, the distorted images are derived from actual photographs. In what follows, you will <strong>briefly</strong> be presented with <strong>only</strong> the distorted image.</p> <div style='float: left; margin-right: 20px;'><img src='../img/018tt.jpg' height='250' width='250'></img></div><div style='float: right; margin-left: 20px;'><img src='../img/018gs.jpg' height='250' width='250'></img></div><p>Subsequently you will be asked a few questions about the image: One question on how <strong>curious</strong> you are about the solution and one on how <strong>confident</strong> you are that you know the solution.</p>Next, we ask you to make a guess on what is in the image. Note that it is OK to name just the <strong>basic level category</strong>. For example when you see a parrot in the image, 'parrot' will obviously be a correct answer but also correct is 'bird'. However, 'animal' will <strong>not</strong> be counted as a correct response. For the example above, 'rose' would be correct or 'flower', but not 'plant'. When soccer players are depicted, 'soccer', 'football', 'soccer players' will be correct, but not 'humans', 'outdoors', or 'sports'. You do not need to describe the image in full, just name the main object in it <strong>in one or two words</strong>. All images depict objects from one of the following broad level categories: animals, inanimate objects, plants, sports, vehicles, and food. Recognizing means knowing <strong>more</strong> than these broad labels for a given image. But we always encourage you to <strong>make a guess</strong> if you can. Note that you are allowed to use <strong>Dutch and English</strong> in your answers, whatever comes easiest for you.</p><p>Press any key to continue.</p></div>","32","instructions","html-keyboard-response","4","159800","0.0-4.0","2899515","co37543","norming","","","","","","",""
"7016.550000000279","<div style='word-wrap: break-word; width: 900px'><h3>Instructions</h3> <p>Next, the solution image will be revealed to you and you'll be asked to indicate how strong your <strong>aha-experience</strong> was after seeing the solution. This describes the positive feeling of the 'click' you sometimes experience, when the pieces of the 'puzzle' fall together and you suddenly have 'insight' in the image.</p><img src='aha.jpg' height='188' width='250'></img><p>Note that there are no right or wrong answers. We are interested in what <strong>you</strong> see in the image and how <strong>you</strong> feel about it.</p><p>Press any key to start the experiment.</p></div>","32","instructions","html-keyboard-response","5","166818","0.0-5.0","2899515","co37543","norming","","","","","","",""
"null","<div style=""font-size:60px;""> </div>","null","fixation","html-keyboard-response","6","167021","0.0-6.0-0.0","2899515","co37543","norming","","","","","","",""
"null","../img/tt/189tt.jpg","null","mooney1","image-keyboard-response","7","170032","0.0-6.0-1.0","2899515","co37543","norming","","","","","","",""
"6881.954999999842","","","post_mooney1_questions","survey-likert","8","176919","0.0-6.0-2.0","2899515","co37543","norming","","","{""curiosity"":5,""confidence"":2}","[0,1]","../img/tt/189tt.jpg","",""
"6206.884999999602","","","recognition","survey-text","9","183130","0.0-6.0-3.0","2899515","co37543","norming","","","{""guess"":""bird""}","","../img/tt/189tt.jpg","",""
"null","../img/gs/189gs.jpg","null","reveal","image-keyboard-response","10","185138","0.0-6.0-4.0","2899515","co37543","norming","","","","","","",""
"null","../img/tt/189tt.jpg","null","mooney2","image-keyboard-response","11","187151","0.0-6.0-5.0","2899515","co37543","norming","","","","","","",""
"6741.280000000203","","","post_reveal_questions","survey-likert","12","193895","0.0-6.0-6.0","2899515","co37543","norming","","","{""aha"":5}","[0]","../img/tt/189tt.jpg","",""
"null","<div style=""font-size:60px;""> </div>","null","fixation","html-keyboard-response","13","194109","0.0-6.0-0.1","2899515","co37543","norming","","","","","","",""
"null","../img/tt/1161tt.jpg","null","mooney1","image-keyboard-response","14","197126","0.0-6.0-1.1","2899515","co37543","norming","","","","","","",""
"6642.759999999718","","","post_mooney1_questions","survey-likert","15","203772","0.0-6.0-2.1","2899515","co37543","norming","","","{""curiosity"":5,""confidence"":1}","[0,1]","../img/tt/1161tt.jpg","",""
"1579.9200000001292","","","recognition","survey-text","16","205357","0.0-6.0-3.1","2899515","co37543","norming","","","{""guess"":""house""}","","../img/tt/1161tt.jpg","",""
"null","../img/gs/1161gs.jpg","null","reveal","image-keyboard-response","17","207361","0.0-6.0-4.1","2899515","co37543","norming","","","","","","",""
"null","../img/tt/1161tt.jpg","null","mooney2","image-keyboard-response","18","209367","0.0-6.0-5.1","2899515","co37543","norming","","","","","","",""
"3014.2049999994924","","","post_reveal_questions","survey-likert","19","212384","0.0-6.0-6.1","2899515","co37543","norming","","","{""aha"":4}","[0]","../img/tt/1161tt.jpg","",""
"null","<div style=""font-size:60px;""> </div>","null","fixation","html-keyboard-response","20","212587","0.0-6.0-0.2","2899515","co37543","norming","","","","","","",""
"null","../img/tt/094tt.jpg","null","mooney1","image-keyboard-response","21","215592","0.0-6.0-1.2","2899515","co37543","norming","","","","","","",""
"6201.415000000445","","","post_mooney1_questions","survey-likert","22","221796","0.0-6.0-2.2","2899515","co37543","norming","","","{""curiosity"":1,""confidence"":6}","[0,1]","../img/tt/094tt.jpg","",""
"5022.200000000361","","","recognition","survey-text","23","226824","0.0-6.0-3.2","2899515","co37543","norming","","","{""guess"":""wolf""}","","../img/tt/094tt.jpg","",""
"null","../img/gs/094gs.jpg","null","reveal","image-keyboard-response","24","228830","0.0-6.0-4.2","2899515","co37543","norming","","","","","","",""
"null","../img/tt/094tt.jpg","null","mooney2","image-keyboard-response","25","230845","0.0-6.0-5.2","2899515","co37543","norming","","","","","","",""
"8336.900000000227","","","post_reveal_questions","survey-likert","26","239184","0.0-6.0-6.2","2899515","co37543","norming","","","{""aha"":1}","[0]","../img/tt/094tt.jpg","",""
"null","<div style=""font-size:60px;""> </div>","null","fixation","html-keyboard-response","27","239392","0.0-6.0-0.3","2899515","co37543","norming","","","","","","",""
"null","../img/tt/1107tt.jpg","null","mooney1","image-keyboard-response","28","242407","0.0-6.0-1.3","2899515","co37543","norming","","","","","","",""
"10015.350000000588","","","post_mooney1_questions","survey-likert","29","252426","0.0-6.0-2.3","2899515","co37543","norming","","","{""curiosity"":1,""confidence"":6}","[0,1]","../img/tt/1107tt.jpg","",""
"4211.844999999797","","","recognition","survey-text","30","256643","0.0-6.0-3.3","2899515","co37543","norming","","","{""guess"":""cat""}","","../img/tt/1107tt.jpg","",""
"null","../img/gs/1107gs.jpg","null","reveal","image-keyboard-response","31","258647","0.0-6.0-4.3","2899515","co37543","norming","","","","","","",""
"null","../img/tt/1107tt.jpg","null","mooney2","image-keyboard-response","32","260654","0.0-6.0-5.3","2899515","co37543","norming","","","","","","",""
"3178.275000000256","","","post_reveal_questions","survey-likert","33","263834","0.0-6.0-6.3","2899515","co37543","norming","","","{""aha"":0}","[0]","../img/tt/1107tt.jpg","",""
"null","<div style=""font-size:60px;""> </div>","null","fixation","html-keyboard-response","34","264041","0.0-6.0-0.4","2899515","co37543","norming","","","","","","",""
"null","../img/tt/1127tt.jpg","null","mooney1","image-keyboard-response","35","267049","0.0-6.0-1.4","2899515","co37543","norming","","","","","","",""
"8733.369999999879","","","post_mooney1_questions","survey-likert","36","275786","0.0-6.0-2.4","2899515","co37543","norming","","","{""curiosity"":3,""confidence"":4}","[0,1]","../img/tt/1127tt.jpg","",""
"5308.455000000307","","","recognition","survey-text","37","281099","0.0-6.0-3.4","2899515","co37543","norming","","","{""guess"":""restaurant""}","","../img/tt/1127tt.jpg","",""
"null","../img/gs/1127gs.jpg","null","reveal","image-keyboard-response","38","283112","0.0-6.0-4.4","2899515","co37543","norming","","","","","","",""
"null","../img/tt/1127tt.jpg","null","mooney2","image-keyboard-response","39","285129","0.0-6.0-5.4","2899515","co37543","norming","","","","","","",""
"2627.510000000242","","","post_reveal_questions","survey-likert","40","287758","0.0-6.0-6.4","2899515","co37543","norming","","","{""aha"":6}","[0]","../img/tt/1127tt.jpg","",""
"null","<div style=""font-size:60px;""> </div>","null","fixation","html-keyboard-response","41","287973","0.0-6.0-0.5","2899515","co37543","norming","","","","","","",""
"null","../img/tt/1191tt.jpg","null","mooney1","image-keyboard-response","42","290993","0.0-6.0-1.5","2899515","co37543","norming","","","","","","",""
"7954.68500000058","","","post_mooney1_questions","survey-likert","43","298951","0.0-6.0-2.5","2899515","co37543","norming","","","{""curiosity"":4,""confidence"":2}","[0,1]","../img/tt/1191tt.jpg","",""
"2844.3000000006286","","","recognition","survey-text","44","301799","0.0-6.0-3.5","2899515","co37543","norming","","","{""guess"":""dancing""}","","../img/tt/1191tt.jpg","",""
"null","../img/gs/1191gs.jpg","null","reveal","image-keyboard-response","45","303815","0.0-6.0-4.5","2899515","co37543","norming","","","","","","",""
"null","../img/tt/1191tt.jpg","null","mooney2","image-keyboard-response","46","305818","0.0-6.0-5.5","2899515","co37543","norming","","","","","","",""
"3126.8250000002445","","","post_reveal_questions","survey-likert","47","308947","0.0-6.0-6.5","2899515","co37543","norming","","","{""aha"":5}","[0]","../img/tt/1191tt.jpg","",""
"null","<div style=""font-size:60px;""> </div>","null","fixation","html-keyboard-response","48","309162","0.0-6.0-0.6","2899515","co37543","norming","","","","","","",""
"null","../img/tt/1146tt.jpg","null","mooney1","image-keyboard-response","49","312182","0.0-6.0-1.6","2899515","co37543","norming","","","","","","",""
"5080.065000000119","","","post_mooney1_questions","survey-likert","50","317266","0.0-6.0-2.6","2899515","co37543","norming","","","{""curiosity"":4,""confidence"":2}","[0,1]","../img/tt/1146tt.jpg","",""
"2712.889999999781","","","recognition","survey-text","51","319982","0.0-6.0-3.6","2899515","co37543","norming","","","{""guess"":""car""}","","../img/tt/1146tt.jpg","",""
"null","../img/gs/1146gs.jpg","null","reveal","image-keyboard-response","52","322001","0.0-6.0-4.6","2899515","co37543","norming","","","","","","",""
"null","../img/tt/1146tt.jpg","null","mooney2","image-keyboard-response","53","324015","0.0-6.0-5.6","2899515","co37543","norming","","","","","","",""
"3080.580000000715","","","post_reveal_questions","survey-likert","54","327099","0.0-6.0-6.6","2899515","co37543","norming","","","{""aha"":5}","[0]","../img/tt/1146tt.jpg","",""
"null","<div style=""font-size:60px;""> </div>","null","fixation","html-keyboard-response","55","327309","0.0-6.0-0.7","2899515","co37543","norming","","","","","","",""
"null","../img/tt/358tt.jpg","null","mooney1","image-keyboard-response","56","330315","0.0-6.0-1.7","2899515","co37543","norming","","","","","","",""
"7184.4850000006845","","","post_mooney1_questions","survey-likert","57","337504","0.0-6.0-2.7","2899515","co37543","norming","","","{""curiosity"":6,""confidence"":0}","[0,1]","../img/tt/358tt.jpg","",""
"3637.2950000004494","","","recognition","survey-text","58","341145","0.0-6.0-3.7","2899515","co37543","norming","","","{""guess"":""horse""}","","../img/tt/358tt.jpg","",""
"null","../img/gs/358gs.jpg","null","reveal","image-keyboard-response","59","343161","0.0-6.0-4.7","2899515","co37543","norming","","","","","","",""
"null","../img/tt/358tt.jpg","null","mooney2","image-keyboard-response","60","345177","0.0-6.0-5.7","2899515","co37543","norming","","","","","","",""
"4655.225000000442","","","post_reveal_questions","survey-likert","61","349835","0.0-6.0-6.7","2899515","co37543","norming","","","{""aha"":6}","[0]","../img/tt/358tt.jpg","",""
"null","<div style=""font-size:60px;""> </div>","null","fixation","html-keyboard-response","62","350041","0.0-6.0-0.8","2899515","co37543","norming","","","","","","",""
"null","../img/tt/1290tt.jpg","null","mooney1","image-keyboard-response","63","353055","0.0-6.0-1.8","2899515","co37543","norming","","","","","","",""
"5109.8099999999395","","","post_mooney1_questions","survey-likert","64","358169","0.0-6.0-2.8","2899515","co37543","norming","","","{""curiosity"":5,""confidence"":1}","[0,1]","../img/tt/1290tt.jpg","",""
"3374.0650000000023","","","recognition","survey-text","65","361547","0.0-6.0-3.8","2899515","co37543","norming","","","{""guess"":""sac""}","","../img/tt/1290tt.jpg","",""
"null","../img/gs/1290gs.jpg","null","reveal","image-keyboard-response","66","363563","0.0-6.0-4.8","2899515","co37543","norming","","","","","","",""
"null","../img/tt/1290tt.jpg","null","mooney2","image-keyboard-response","67","365565","0.0-6.0-5.8","2899515","co37543","norming","","","","","","",""
"2871.689999999944","","","post_reveal_questions","survey-likert","68","368440","0.0-6.0-6.8","2899515","co37543","norming","","","{""aha"":6}","[0]","../img/tt/1290tt.jpg","",""
"null","<div style=""font-size:60px;""> </div>","null","fixation","html-keyboard-response","69","368658","0.0-6.0-0.9","2899515","co37543","norming","","","","","","",""
"null","../img/tt/1125tt.jpg","null","mooney1","image-keyboard-response","70","371671","0.0-6.0-1.9","2899515","co37543","norming","","","","","","",""
"7592.314999999886","","","post_mooney1_questions","survey-likert","71","379267","0.0-6.0-2.9","2899515","co37543","norming","","","{""curiosity"":5,""confidence"":1}","[0,1]","../img/tt/1125tt.jpg","",""
"23948.929999999586","","","recognition","survey-text","72","403221","0.0-6.0-3.9","2899515","co37543","norming","","","{""guess"":""chess""}","","../img/tt/1125tt.jpg","",""
"null","../img/gs/1125gs.jpg","null","reveal","image-keyboard-response","73","405226","0.0-6.0-4.9","2899515","co37543","norming","","","","","","",""
"null","../img/tt/1125tt.jpg","null","mooney2","image-keyboard-response","74","407236","0.0-6.0-5.9","2899515","co37543","norming","","","","","","",""
"4251.830000000191","","","post_reveal_questions","survey-likert","75","411491","0.0-6.0-6.9","2899515","co37543","norming","","","{""aha"":6}","[0]","../img/tt/1125tt.jpg","",""
"null","<div style=""font-size:60px;""> </div>","null","fixation","html-keyboard-response","76","411704","0.0-6.0-0.10","2899515","co37543","norming","","","","","","",""
"null","../img/tt/096tt.jpg","null","mooney1","image-keyboard-response","77","414722","0.0-6.0-1.10","2899515","co37543","norming","","","","","","",""
"4325.2249999996275","","","post_mooney1_questions","survey-likert","78","419050","0.0-6.0-2.10","2899515","co37543","norming","","","{""curiosity"":6,""confidence"":0}","[0,1]","../img/tt/096tt.jpg","",""
"1140.5999999996857","","","recognition","survey-text","79","420196","0.0-6.0-3.10","2899515","co37543","norming","","","{""guess"":""""}","","../img/tt/096tt.jpg","",""
"null","../img/gs/096gs.jpg","null","reveal","image-keyboard-response","80","422205","0.0-6.0-4.10","2899515","co37543","norming","","","","","","",""
"null","../img/tt/096tt.jpg","null","mooney2","image-keyboard-response","81","424220","0.0-6.0-5.10","2899515","co37543","norming","","","","","","",""
"4397.830000000831","","","post_reveal_questions","survey-likert","82","428620","0.0-6.0-6.10","2899515","co37543","norming","","","{""aha"":6}","[0]","../img/tt/096tt.jpg","",""
"null","<div style=""font-size:60px;""> </div>","null","fixation","html-keyboard-response","83","428830","0.0-6.0-0.11","2899515","co37543","norming","","","","","","",""
"null","../img/tt/105tt.jpg","null","mooney1","image-keyboard-response","84","431843","0.0-6.0-1.11","2899515","co37543","norming","","","","","","",""
"6563.2949999999255","","","post_mooney1_questions","survey-likert","85","438409","0.0-6.0-2.11","2899515","co37543","norming","","","{""curiosity"":2,""confidence"":6}","[0,1]","../img/tt/105tt.jpg","",""
"15738.64000000048","","","recognition","survey-text","86","454153","0.0-6.0-3.11","2899515","co37543","norming","","","{""guess"":""paperclip""}","","../img/tt/105tt.jpg","",""
"null","../img/gs/105gs.jpg","null","reveal","image-keyboard-response","87","456171","0.0-6.0-4.11","2899515","co37543","norming","","","","","","",""
"null","../img/tt/105tt.jpg","null","mooney2","image-keyboard-response","88","458174","0.0-6.0-5.11","2899515","co37543","norming","","","","","","",""
"2884.310000000347","","","post_reveal_questions","survey-likert","89","461061","0.0-6.0-6.11","2899515","co37543","norming","","","{""aha"":1}","[0]","../img/tt/105tt.jpg","",""
"null","<div style=""font-size:60px;""> </div>","null","fixation","html-keyboard-response","90","461276","0.0-6.0-0.12","2899515","co37543","norming","","","","","","",""
"null","../img/tt/1116tt.jpg","null","mooney1","image-keyboard-response","91","464279","0.0-6.0-1.12","2899515","co37543","norming","","","","","","",""
"5924.445000000589","","","post_mooney1_questions","survey-likert","92","470207","0.0-6.0-2.12","2899515","co37543","norming","","","{""curiosity"":5,""confidence"":1}","[0,1]","../img/tt/1116tt.jpg","",""
"1176.2349999999278","","","recognition","survey-text","93","471389","0.0-6.0-3.12","2899515","co37543","norming","","","{""guess"":""""}","","../img/tt/1116tt.jpg","",""
"null","../img/gs/1116gs.jpg","null","reveal","image-keyboard-response","94","473404","0.0-6.0-4.12","2899515","co37543","norming","","","","","","",""
"null","../img/tt/1116tt.jpg","null","mooney2","image-keyboard-response","95","475416","0.0-6.0-5.12","2899515","co37543","norming","","","","","","",""
"5624.865000000689","","","post_reveal_questions","survey-likert","96","481044","0.0-6.0-6.12","2899515","co37543","norming","","","{""aha"":5}","[0]","../img/tt/1116tt.jpg","",""
"null","<div style=""font-size:60px;""> </div>","null","fixation","html-keyboard-response","97","481259","0.0-6.0-0.13","2899515","co37543","norming","","","","","","",""
"null","../img/tt/080tt.jpg","null","mooney1","image-keyboard-response","98","484283","0.0-6.0-1.13","2899515","co37543","norming","","","","","","",""
"4089.8299999999","","","post_mooney1_questions","survey-likert","99","488377","0.0-6.0-2.13","2899515","co37543","norming","","","{""curiosity"":6,""confidence"":0}","[0,1]","../img/tt/080tt.jpg","",""
"2541.785000000382","","","recognition","survey-text","100","490926","0.0-6.0-3.13","2899515","co37543","norming","","","{""guess"":""""}","","../img/tt/080tt.jpg","",""
"null","../img/gs/080gs.jpg","null","reveal","image-keyboard-response","101","492934","0.0-6.0-4.13","2899515","co37543","norming","","","","","","",""
"null","../img/tt/080tt.jpg","null","mooney2","image-keyboard-response","102","494947","0.0-6.0-5.13","2899515","co37543","norming","","","","","","",""
"2549.5799999998417","","","post_reveal_questions","survey-likert","103","497499","0.0-6.0-6.13","2899515","co37543","norming","","","{""aha"":5}","[0]","../img/tt/080tt.jpg","",""
"null","<div style=""font-size:60px;""> </div>","null","fixation","html-keyboard-response","104","497712","0.0-6.0-0.14","2899515","co37543","norming","","","","","","",""
"null","../img/tt/1084tt.jpg","null","mooney1","image-keyboard-response","105","500727","0.0-6.0-1.14","2899515","co37543","norming","","","","","","",""
"5550.255000000121","","","post_mooney1_questions","survey-likert","106","506281","0.0-6.0-2.14","2899515","co37543","norming","","","{""curiosity"":2,""confidence"":5}","[0,1]","../img/tt/1084tt.jpg","",""
"2737.3600000001024","","","recognition","survey-text","107","509024","0.0-6.0-3.14","2899515","co37543","norming","","","{""guess"":""cake""}","","../img/tt/1084tt.jpg","",""
"null","../img/gs/1084gs.jpg","null","reveal","image-keyboard-response","108","511042","0.0-6.0-4.14","2899515","co37543","norming","","","","","","",""
"null","../img/tt/1084tt.jpg","null","mooney2","image-keyboard-response","109","513060","0.0-6.0-5.14","2899515","co37543","norming","","","","","","",""
"2721.21499999956","","","post_reveal_questions","survey-likert","110","515784","0.0-6.0-6.14","2899515","co37543","norming","","","{""aha"":4}","[0]","../img/tt/1084tt.jpg","",""
"null","<div style=""font-size:60px;""> </div>","null","fixation","html-keyboard-response","111","515991","0.0-6.0-0.15","2899515","co37543","norming","","","","","","",""
"null","../img/tt/468tt.jpg","null","mooney1","image-keyboard-response","112","519013","0.0-6.0-1.15","2899515","co37543","norming","","","","","","",""
"4590.734999999753","","","post_mooney1_questions","survey-likert","113","523607","0.0-6.0-2.15","2899515","co37543","norming","","","{""curiosity"":4,""confidence"":1}","[0,1]","../img/tt/468tt.jpg","",""
"4019.914999999921","","","recognition","survey-text","114","527633","0.0-6.0-3.15","2899515","co37543","norming","","","{""guess"":""gitar""}","","../img/tt/468tt.jpg","",""
"null","../img/gs/468gs.jpg","null","reveal","image-keyboard-response","115","529644","0.0-6.0-4.15","2899515","co37543","norming","","","","","","",""
"null","../img/tt/468tt.jpg","null","mooney2","image-keyboard-response","116","531663","0.0-6.0-5.15","2899515","co37543","norming","","","","","","",""
"4292.339999999967","","","post_reveal_questions","survey-likert","117","535958","0.0-6.0-6.15","2899515","co37543","norming","","","{""aha"":1}","[0]","../img/tt/468tt.jpg","",""
"null","<div style=""font-size:60px;""> </div>","null","fixation","html-keyboard-response","118","536176","0.0-6.0-0.16","2899515","co37543","norming","","","","","","",""
"null","../img/tt/140tt.jpg","null","mooney1","image-keyboard-response","119","539192","0.0-6.0-1.16","2899515","co37543","norming","","","","","","",""
"4793.504999999539","","","post_mooney1_questions","survey-likert","120","543989","0.0-6.0-2.16","2899515","co37543","norming","","","{""curiosity"":0,""confidence"":6}","[0,1]","../img/tt/140tt.jpg","",""
"4074.234999999986","","","recognition","survey-text","121","548069","0.0-6.0-3.16","2899515","co37543","norming","","","{""guess"":""forks""}","","../img/tt/140tt.jpg","",""
"null","../img/gs/140gs.jpg","null","reveal","image-keyboard-response","122","550081","0.0-6.0-4.16","2899515","co37543","norming","","","","","","",""
"null","../img/tt/140tt.jpg","null","mooney2","image-keyboard-response","123","552086","0.0-6.0-5.16","2899515","co37543","norming","","","","","","",""
"3412.005000000121","","","post_reveal_questions","survey-likert","124","555501","0.0-6.0-6.16","2899515","co37543","norming","","","{""aha"":3}","[0]","../img/tt/140tt.jpg","",""
"null","<div style=""font-size:60px;""> </div>","null","fixation","html-keyboard-response","125","555716","0.0-6.0-0.17","2899515","co37543","norming","","","","","","",""
"null","../img/tt/1154tt.jpg","null","mooney1","image-keyboard-response","126","558729","0.0-6.0-1.17","2899515","co37543","norming","","","","","","",""
"4298.910000000498","","","post_mooney1_questions","survey-likert","127","563031","0.0-6.0-2.17","2899515","co37543","norming","","","{""curiosity"":6,""confidence"":0}","[0,1]","../img/tt/1154tt.jpg","",""
"1213.0550000001676","","","recognition","survey-text","128","564251","0.0-6.0-3.17","2899515","co37543","norming","","","{""guess"":""""}","","../img/tt/1154tt.jpg","",""
"null","../img/gs/1154gs.jpg","null","reveal","image-keyboard-response","129","566275","0.0-6.0-4.17","2899515","co37543","norming","","","","","","",""
"null","../img/tt/1154tt.jpg","null","mooney2","image-keyboard-response","130","568288","0.0-6.0-5.17","2899515","co37543","norming","","","","","","",""
"4577.2350000006845","","","post_reveal_questions","survey-likert","131","572868","0.0-6.0-6.17","2899515","co37543","norming","","","{""aha"":6}","[0]","../img/tt/1154tt.jpg","",""
"null","<div style=""font-size:60px;""> </div>","null","fixation","html-keyboard-response","132","573073","0.0-6.0-0.18","2899515","co37543","norming","","","","","","",""
"null","../img/tt/1102tt.jpg","null","mooney1","image-keyboard-response","133","576091","0.0-6.0-1.18","2899515","co37543","norming","","","","","","",""
"3930.429999999469","","","post_mooney1_questions","survey-likert","134","580025","0.0-6.0-2.18","2899515","co37543","norming","","","{""curiosity"":5,""confidence"":0}","[0,1]","../img/tt/1102tt.jpg","",""
"2501.4199999995762","","","recognition","survey-text","135","582533","0.0-6.0-3.18","2899515","co37543","norming","","","{""guess"":""tree""}","","../img/tt/1102tt.jpg","",""
"null","../img/gs/1102gs.jpg","null","reveal","image-keyboard-response","136","584550","0.0-6.0-4.18","2899515","co37543","norming","","","","","","",""
"null","../img/tt/1102tt.jpg","null","mooney2","image-keyboard-response","137","586563","0.0-6.0-5.18","2899515","co37543","norming","","","","","","",""
"5019.54999999993","","","post_reveal_questions","survey-likert","138","591585","0.0-6.0-6.18","2899515","co37543","norming","","","{""aha"":4}","[0]","../img/tt/1102tt.jpg","",""
"null","<div style=""font-size:60px;""> </div>","null","fixation","html-keyboard-response","139","591798","0.0-6.0-0.19","2899515","co37543","norming","","","","","","",""
"null","../img/tt/1362tt.jpg","null","mooney1","image-keyboard-response","140","594805","0.0-6.0-1.19","2899515","co37543","norming","","","","","","",""
"3809.2200000000885","","","post_mooney1_questions","survey-likert","141","598618","0.0-6.0-2.19","2899515","co37543","norming","","","{""curiosity"":6,""confidence"":0}","[0,1]","../img/tt/1362tt.jpg","",""
"903.6199999999953","","","recognition","survey-text","142","599528","0.0-6.0-3.19","2899515","co37543","norming","","","{""guess"":""""}","","../img/tt/1362tt.jpg","",""
"null","../img/gs/1362gs.jpg","null","reveal","image-keyboard-response","143","601532","0.0-6.0-4.19","2899515","co37543","norming","","","","","","",""
"null","../img/tt/1362tt.jpg","null","mooney2","image-keyboard-response","144","603546","0.0-6.0-5.19","2899515","co37543","norming","","","","","","",""
"3482.0600000002887","","","post_reveal_questions","survey-likert","145","607031","0.0-6.0-6.19","2899515","co37543","norming","","","{""aha"":5}","[0]","../img/tt/1362tt.jpg","",""
"null","<div style=""font-size:60px;""> </div>","null","fixation","html-keyboard-response","146","607245","0.0-6.0-0.20","2899515","co37543","norming","","","","","","",""
"null","../img/tt/1254tt.jpg","null","mooney1","image-keyboard-response","147","610262","0.0-6.0-1.20","2899515","co37543","norming","","","","","","",""
"3621.035000000149","","","post_mooney1_questions","survey-likert","148","613886","0.0-6.0-2.20","2899515","co37543","norming","","","{""curiosity"":6,""confidence"":0}","[0,1]","../img/tt/1254tt.jpg","",""
"868.7949999993434","","","recognition","survey-text","149","614761","0.0-6.0-3.20","2899515","co37543","norming","","","{""guess"":""""}","","../img/tt/1254tt.jpg","",""
"null","../img/gs/1254gs.jpg","null","reveal","image-keyboard-response","150","616776","0.0-6.0-4.20","2899515","co37543","norming","","","","","","",""
"null","../img/tt/1254tt.jpg","null","mooney2","image-keyboard-response","151","618780","0.0-6.0-5.20","2899515","co37543","norming","","","","","","",""
"3066.1899999994785","","","post_reveal_questions","survey-likert","152","621849","0.0-6.0-6.20","2899515","co37543","norming","","","{""aha"":4}","[0]","../img/tt/1254tt.jpg","",""
"null","<div style=""font-size:60px;""> </div>","null","fixation","html-keyboard-response","153","622063","0.0-6.0-0.21","2899515","co37543","norming","","","","","","",""
"null","../img/tt/078tt.jpg","null","mooney1","image-keyboard-response","154","625082","0.0-6.0-1.21","2899515","co37543","norming","","","","","","",""
"5230.174999999697","","","post_mooney1_questions","survey-likert","155","630315","0.0-6.0-2.21","2899515","co37543","norming","","","{""curiosity"":5,""confidence"":0}","[0,1]","../img/tt/078tt.jpg","",""
"2631.789999999455","","","recognition","survey-text","156","632953","0.0-6.0-3.21","2899515","co37543","norming","","","{""guess"":""berry""}","","../img/tt/078tt.jpg","",""
"null","../img/gs/078gs.jpg","null","reveal","image-keyboard-response","157","634965","0.0-6.0-4.21","2899515","co37543","norming","","","","","","",""
"null","../img/tt/078tt.jpg","null","mooney2","image-keyboard-response","158","636970","0.0-6.0-5.21","2899515","co37543","norming","","","","","","",""
"2632.4499999999534","","","post_reveal_questions","survey-likert","159","639605","0.0-6.0-6.21","2899515","co37543","norming","","","{""aha"":4}","[0]","../img/tt/078tt.jpg","",""
"null","<div style=""font-size:60px;""> </div>","null","fixation","html-keyboard-response","160","639811","0.0-6.0-0.22","2899515","co37543","norming","","","","","","",""
"null","../img/tt/135tt.jpg","null","mooney1","image-keyboard-response","161","642825","0.0-6.0-1.22","2899515","co37543","norming","","","","","","",""
"4630.029999999329","","","post_mooney1_questions","survey-likert","162","647459","0.0-6.0-2.22","2899515","co37543","norming","","","{""curiosity"":0,""confidence"":6}","[0,1]","../img/tt/135tt.jpg","",""
"2454.265000000363","","","recognition","survey-text","163","649917","0.0-6.0-3.22","2899515","co37543","norming","","","{""guess"":""toilet""}","","../img/tt/135tt.jpg","",""
"null","../img/gs/135gs.jpg","null","reveal","image-keyboard-response","164","651934","0.0-6.0-4.22","2899515","co37543","norming","","","","","","",""
"null","../img/tt/135tt.jpg","null","mooney2","image-keyboard-response","165","653947","0.0-6.0-5.22","2899515","co37543","norming","","","","","","",""
"3687.9600000001956","","","post_reveal_questions","survey-likert","166","657638","0.0-6.0-6.22","2899515","co37543","norming","","","{""aha"":2}","[0]","../img/tt/135tt.jpg","",""
"null","<div style=""font-size:60px;""> </div>","null","fixation","html-keyboard-response","167","657856","0.0-6.0-0.23","2899515","co37543","norming","","","","","","",""
"null","../img/tt/126tt.jpg","null","mooney1","image-keyboard-response","168","660872","0.0-6.0-1.23","2899515","co37543","norming","","","","","","",""
"3868.3399999999674","","","post_mooney1_questions","survey-likert","169","664744","0.0-6.0-2.23","2899515","co37543","norming","","","{""curiosity"":0,""confidence"":6}","[0,1]","../img/tt/126tt.jpg","",""
"2969.699999999604","","","recognition","survey-text","170","667719","0.0-6.0-3.23","2899515","co37543","norming","","","{""guess"":""cow""}","","../img/tt/126tt.jpg","",""
"null","../img/gs/126gs.jpg","null","reveal","image-keyboard-response","171","669726","0.0-6.0-4.23","2899515","co37543","norming","","","","","","",""
"null","../img/tt/126tt.jpg","null","mooney2","image-keyboard-response","172","671729","0.0-6.0-5.23","2899515","co37543","norming","","","","","","",""
"2316.824999999837","","","post_reveal_questions","survey-likert","173","674048","0.0-6.0-6.23","2899515","co37543","norming","","","{""aha"":1}","[0]","../img/tt/126tt.jpg","",""
"null","<div style=""font-size:60px;""> </div>","null","fixation","html-keyboard-response","174","674254","0.0-6.0-0.24","2899515","co37543","norming","","","","","","",""
"null","../img/tt/412tt.jpg","null","mooney1","image-keyboard-response","175","677266","0.0-6.0-1.24","2899515","co37543","norming","","","","","","",""
"3978.0799999998417","","","post_mooney1_questions","survey-likert","176","681248","0.0-6.0-2.24","2899515","co37543","norming","","","{""curiosity"":6,""confidence"":1}","[0,1]","../img/tt/412tt.jpg","",""
"3052.1300000000047","","","recognition","survey-text","177","684306","0.0-6.0-3.24","2899515","co37543","norming","","","{""guess"":""parfume""}","","../img/tt/412tt.jpg","",""
"null","../img/gs/412gs.jpg","null","reveal","image-keyboard-response","178","686322","0.0-6.0-4.24","2899515","co37543","norming","","","","","","",""
"null","../img/tt/412tt.jpg","null","mooney2","image-keyboard-response","179","688329","0.0-6.0-5.24","2899515","co37543","norming","","","","","","",""
"1940.189999999362","","","post_reveal_questions","survey-likert","180","690272","0.0-6.0-6.24","2899515","co37543","norming","","","{""aha"":6}","[0]","../img/tt/412tt.jpg","",""
"null","<div style=""font-size:60px;""> </div>","null","fixation","html-keyboard-response","181","690482","0.0-6.0-0.25","2899515","co37543","norming","","","","","","",""
"null","../img/tt/1175tt.jpg","null","mooney1","image-keyboard-response","182","693496","0.0-6.0-1.25","2899515","co37543","norming","","","","","","",""
"5092.659999999334","","","post_mooney1_questions","survey-likert","183","698592","0.0-6.0-2.25","2899515","co37543","norming","","","{""curiosity"":6,""confidence"":0}","[0,1]","../img/tt/1175tt.jpg","",""
"1191.8900000001304","","","recognition","survey-text","184","699788","0.0-6.0-3.25","2899515","co37543","norming","","","{""guess"":""""}","","../img/tt/1175tt.jpg","",""
"null","../img/gs/1175gs.jpg","null","reveal","image-keyboard-response","185","701794","0.0-6.0-4.25","2899515","co37543","norming","","","","","","",""
"null","../img/tt/1175tt.jpg","null","mooney2","image-keyboard-response","186","703810","0.0-6.0-5.25","2899515","co37543","norming","","","","","","",""
"5105.6049999997485","","","post_reveal_questions","survey-likert","187","708919","0.0-6.0-6.25","2899515","co37543","norming","","","{""aha"":5}","[0]","../img/tt/1175tt.jpg","",""
"null","<div style=""font-size:60px;""> </div>","null","fixation","html-keyboard-response","188","709132","0.0-6.0-0.26","2899515","co37543","norming","","","","","","",""
"null","../img/tt/076tt.jpg","null","mooney1","image-keyboard-response","189","712137","0.0-6.0-1.26","2899515","co37543","norming","","","","","","",""
"11801.935000000405","","","post_mooney1_questions","survey-likert","190","723943","0.0-6.0-2.26","2899515","co37543","norming","","","{""curiosity"":1,""confidence"":4}","[0,1]","../img/tt/076tt.jpg","",""
"5310.924999999814","","","recognition","survey-text","191","729261","0.0-6.0-3.26","2899515","co37543","norming","","","{""guess"":""inline skates""}","","../img/tt/076tt.jpg","",""
"null","../img/gs/076gs.jpg","null","reveal","image-keyboard-response","192","731275","0.0-6.0-4.26","2899515","co37543","norming","","","","","","",""
"null","../img/tt/076tt.jpg","null","mooney2","image-keyboard-response","193","733286","0.0-6.0-5.26","2899515","co37543","norming","","","","","","",""
"2944.9899999999907","","","post_reveal_questions","survey-likert","194","736233","0.0-6.0-6.26","2899515","co37543","norming","","","{""aha"":0}","[0]","../img/tt/076tt.jpg","",""
"null","<div style=""font-size:60px;""> </div>","null","fixation","html-keyboard-response","195","736442","0.0-6.0-0.27","2899515","co37543","norming","","","","","","",""
"null","../img/tt/098tt.jpg","null","mooney1","image-keyboard-response","196","739459","0.0-6.0-1.27","2899515","co37543","norming","","","","","","",""
"4980.989999999991","","","post_mooney1_questions","survey-likert","197","744444","0.0-6.0-2.27","2899515","co37543","norming","","","{""curiosity"":5,""confidence"":1}","[0,1]","../img/tt/098tt.jpg","",""
"4939.010000000126","","","recognition","survey-text","198","749389","0.0-6.0-3.27","2899515","co37543","norming","","","{""guess"":""olifant""}","","../img/tt/098tt.jpg","",""
"null","../img/gs/098gs.jpg","null","reveal","image-keyboard-response","199","751397","0.0-6.0-4.27","2899515","co37543","norming","","","","","","",""
"null","../img/tt/098tt.jpg","null","mooney2","image-keyboard-response","200","753410","0.0-6.0-5.27","2899515","co37543","norming","","","","","","",""
"4262.66500000027","","","post_reveal_questions","survey-likert","201","757676","0.0-6.0-6.27","2899515","co37543","norming","","","{""aha"":6}","[0]","../img/tt/098tt.jpg","",""
"null","<div style=""font-size:60px;""> </div>","null","fixation","html-keyboard-response","202","757883","0.0-6.0-0.28","2899515","co37543","norming","","","","","","",""
"null","../img/tt/112tt.jpg","null","mooney1","image-keyboard-response","203","760897","0.0-6.0-1.28","2899515","co37543","norming","","","","","","",""
"21432.445000000414","","","post_mooney1_questions","survey-likert","204","782334","0.0-6.0-2.28","2899515","co37543","norming","","","{""curiosity"":0,""confidence"":6}","[0,1]","../img/tt/112tt.jpg","",""
"2960.40500000061","","","recognition","survey-text","205","785300","0.0-6.0-3.28","2899515","co37543","norming","","","{""guess"":""whistle""}","","../img/tt/112tt.jpg","",""
"null","../img/gs/112gs.jpg","null","reveal","image-keyboard-response","206","787307","0.0-6.0-4.28","2899515","co37543","norming","","","","","","",""
"null","../img/tt/112tt.jpg","null","mooney2","image-keyboard-response","207","789312","0.0-6.0-5.28","2899515","co37543","norming","","","","","","",""
"5938.299999999814","","","post_reveal_questions","survey-likert","208","795253","0.0-6.0-6.28","2899515","co37543","norming","","","{""aha"":0}","[0]","../img/tt/112tt.jpg","",""
"null","<div style=""font-size:60px;""> </div>","null","fixation","html-keyboard-response","209","795458","0.0-6.0-0.29","2899515","co37543","norming","","","","","","",""
"null","../img/tt/273tt.jpg","null","mooney1","image-keyboard-response","210","798463","0.0-6.0-1.29","2899515","co37543","norming","","","","","","",""
"12225.199999999953","","","post_mooney1_questions","survey-likert","211","810691","0.0-6.0-2.29","2899515","co37543","norming","","","{""curiosity"":0,""confidence"":6}","[0,1]","../img/tt/273tt.jpg","",""
"6279.36500000034","","","recognition","survey-text","212","816976","0.0-6.0-3.29","2899515","co37543","norming","","","{""guess"":""funny face ""}","","../img/tt/273tt.jpg","",""
"null","../img/gs/273gs.jpg","null","reveal","image-keyboard-response","213","818981","0.0-6.0-4.29","2899515","co37543","norming","","","","","","",""
"null","../img/tt/273tt.jpg","null","mooney2","image-keyboard-response","214","820995","0.0-6.0-5.29","2899515","co37543","norming","","","","","","",""
"3681.590000000084","","","post_reveal_questions","survey-likert","215","824679","0.0-6.0-6.29","2899515","co37543","norming","","","{""aha"":0}","[0]","../img/tt/273tt.jpg","",""
"null","<div style=""font-size:60px;""> </div>","null","fixation","html-keyboard-response","216","824890","0.0-6.0-0.30","2899515","co37543","norming","","","","","","",""
"null","../img/tt/1159tt.jpg","null","mooney1","image-keyboard-response","217","827899","0.0-6.0-1.30","2899515","co37543","norming","","","","","","",""
"10061.709999999963","","","post_mooney1_questions","survey-likert","218","837964","0.0-6.0-2.30","2899515","co37543","norming","","","{""curiosity"":4,""confidence"":2}","[0,1]","../img/tt/1159tt.jpg","",""
"2436.400000000489","","","recognition","survey-text","219","840406","0.0-6.0-3.30","2899515","co37543","norming","","","{""guess"":""fence""}","","../img/tt/1159tt.jpg","",""
"null","../img/gs/1159gs.jpg","null","reveal","image-keyboard-response","220","842411","0.0-6.0-4.30","2899515","co37543","norming","","","","","","",""
"null","../img/tt/1159tt.jpg","null","mooney2","image-keyboard-response","221","844417","0.0-6.0-5.30","2899515","co37543","norming","","","","","","",""
"2772.0650000000605","","","post_reveal_questions","survey-likert","222","847192","0.0-6.0-6.30","2899515","co37543","norming","","","{""aha"":5}","[0]","../img/tt/1159tt.jpg","",""
"null","<div style=""font-size:60px;""> </div>","null","fixation","html-keyboard-response","223","847409","0.0-6.0-0.31","2899515","co37543","norming","","","","","","",""
"null","../img/tt/1205tt.jpg","null","mooney1","image-keyboard-response","224","850422","0.0-6.0-1.31","2899515","co37543","norming","","","","","","",""
"4301.425000000512","","","post_mooney1_questions","survey-likert","225","854727","0.0-6.0-2.31","2899515","co37543","norming","","","{""curiosity"":6,""confidence"":0}","[0,1]","../img/tt/1205tt.jpg","",""
"910.0149999994319","","","recognition","survey-text","226","855643","0.0-6.0-3.31","2899515","co37543","norming","","","{""guess"":""""}","","../img/tt/1205tt.jpg","",""
"null","../img/gs/1205gs.jpg","null","reveal","image-keyboard-response","227","857663","0.0-6.0-4.31","2899515","co37543","norming","","","","","","",""
"null","../img/tt/1205tt.jpg","null","mooney2","image-keyboard-response","228","859677","0.0-6.0-5.31","2899515","co37543","norming","","","","","","",""
"1786.6549999999115","","","post_reveal_questions","survey-likert","229","861467","0.0-6.0-6.31","2899515","co37543","norming","","","{""aha"":6}","[0]","../img/tt/1205tt.jpg","",""
"null","<div style=""font-size:60px;""> </div>","null","fixation","html-keyboard-response","230","861677","0.0-6.0-0.32","2899515","co37543","norming","","","","","","",""
"null","../img/tt/1171tt.jpg","null","mooney1","image-keyboard-response","231","864696","0.0-6.0-1.32","2899515","co37543","norming","","","","","","",""
"5522.060000000289","","","post_mooney1_questions","survey-likert","232","870221","0.0-6.0-2.32","2899515","co37543","norming","","","{""curiosity"":6,""confidence"":0}","[0,1]","../img/tt/1171tt.jpg","",""
"750.8750000005821","","","recognition","survey-text","233","870978","0.0-6.0-3.32","2899515","co37543","norming","","","{""guess"":""""}","","../img/tt/1171tt.jpg","",""
"null","../img/gs/1171gs.jpg","null","reveal","image-keyboard-response","234","872989","0.0-6.0-4.32","2899515","co37543","norming","","","","","","",""
"null","../img/tt/1171tt.jpg","null","mooney2","image-keyboard-response","235","874994","0.0-6.0-5.32","2899515","co37543","norming","","","","","","",""
"1948.265000000014","","","post_reveal_questions","survey-likert","236","876945","0.0-6.0-6.32","2899515","co37543","norming","","","{""aha"":6}","[0]","../img/tt/1171tt.jpg","",""
"null","<div style=""font-size:60px;""> </div>","null","fixation","html-keyboard-response","237","877160","0.0-6.0-0.33","2899515","co37543","norming","","","","","","",""
"null","../img/tt/496tt.jpg","null","mooney1","image-keyboard-response","238","880168","0.0-6.0-1.33","2899515","co37543","norming","","","","","","",""
"5701.860000000102","","","post_mooney1_questions","survey-likert","239","885873","0.0-6.0-2.33","2899515","co37543","norming","","","{""curiosity"":6,""confidence"":0}","[0,1]","../img/tt/496tt.jpg","",""
"653.2150000003166","","","recognition","survey-text","240","886532","0.0-6.0-3.33","2899515","co37543","norming","","","{""guess"":""""}","","../img/tt/496tt.jpg","",""
"null","../img/gs/496gs.jpg","null","reveal","image-keyboard-response","241","888540","0.0-6.0-4.33","2899515","co37543","norming","","","","","","",""
"null","../img/tt/496tt.jpg","null","mooney2","image-keyboard-response","242","890552","0.0-6.0-5.33","2899515","co37543","norming","","","","","","",""
"3182.3699999995297","","","post_reveal_questions","survey-likert","243","893737","0.0-6.0-6.33","2899515","co37543","norming","","","{""aha"":6}","[0]","../img/tt/496tt.jpg","",""
"null","<div style=""font-size:60px;""> </div>","null","fixation","html-keyboard-response","244","893954","0.0-6.0-0.34","2899515","co37543","norming","","","","","","",""
"null","../img/tt/300tt.jpg","null","mooney1","image-keyboard-response","245","896960","0.0-6.0-1.34","2899515","co37543","norming","","","","","","",""
"5427.724999999511","","","post_mooney1_questions","survey-likert","246","902391","0.0-6.0-2.34","2899515","co37543","norming","","","{""curiosity"":4,""confidence"":2}","[0,1]","../img/tt/300tt.jpg","",""
"1826.9849999997532","","","recognition","survey-text","247","904221","0.0-6.0-3.34","2899515","co37543","norming","","","{""guess"":""human""}","","../img/tt/300tt.jpg","",""
"null","../img/gs/300gs.jpg","null","reveal","image-keyboard-response","248","906240","0.0-6.0-4.34","2899515","co37543","norming","","","","","","",""
"null","../img/tt/300tt.jpg","null","mooney2","image-keyboard-response","249","908250","0.0-6.0-5.34","2899515","co37543","norming","","","","","","",""
"3171.225000000093","","","post_reveal_questions","survey-likert","250","911424","0.0-6.0-6.34","2899515","co37543","norming","","","{""aha"":0}","[0]","../img/tt/300tt.jpg","",""
"null","<div style=""font-size:60px;""> </div>","null","fixation","html-keyboard-response","251","911639","0.0-6.0-0.35","2899515","co37543","norming","","","","","","",""
"null","../img/tt/1202tt.jpg","null","mooney1","image-keyboard-response","252","914654","0.0-6.0-1.35","2899515","co37543","norming","","","","","","",""
"4461.5050000002375","","","post_mooney1_questions","survey-likert","253","919120","0.0-6.0-2.35","2899515","co37543","norming","","","{""curiosity"":5,""confidence"":2}","[0,1]","../img/tt/1202tt.jpg","",""
"4454.900000000722","","","recognition","survey-text","254","923581","0.0-6.0-3.35","2899515","co37543","norming","","","{""guess"":""human""}","","../img/tt/1202tt.jpg","",""
"null","../img/gs/1202gs.jpg","null","reveal","image-keyboard-response","255","925602","0.0-6.0-4.35","2899515","co37543","norming","","","","","","",""
"null","../img/tt/1202tt.jpg","null","mooney2","image-keyboard-response","256","927614","0.0-6.0-5.35","2899515","co37543","norming","","","","","","",""
"3168.609999999753","","","post_reveal_questions","survey-likert","257","930785","0.0-6.0-6.35","2899515","co37543","norming","","","{""aha"":4}","[0]","../img/tt/1202tt.jpg","",""
"null","<div style=""font-size:60px;""> </div>","null","fixation","html-keyboard-response","258","930992","0.0-6.0-0.36","2899515","co37543","norming","","","","","","",""
"null","../img/tt/1037tt.jpg","null","mooney1","image-keyboard-response","259","934003","0.0-6.0-1.36","2899515","co37543","norming","","","","","","",""
"3690.620000000228","","","post_mooney1_questions","survey-likert","260","937697","0.0-6.0-2.36","2899515","co37543","norming","","","{""curiosity"":0,""confidence"":6}","[0,1]","../img/tt/1037tt.jpg","",""
"2213.504999999772","","","recognition","survey-text","261","939915","0.0-6.0-3.36","2899515","co37543","norming","","","{""guess"":""dog""}","","../img/tt/1037tt.jpg","",""
"null","../img/gs/1037gs.jpg","null","reveal","image-keyboard-response","262","941925","0.0-6.0-4.36","2899515","co37543","norming","","","","","","",""
"null","../img/tt/1037tt.jpg","null","mooney2","image-keyboard-response","263","943943","0.0-6.0-5.36","2899515","co37543","norming","","","","","","",""
"1691.890000000014","","","post_reveal_questions","survey-likert","264","945637","0.0-6.0-6.36","2899515","co37543","norming","","","{""aha"":0}","[0]","../img/tt/1037tt.jpg","",""
"null","<div style=""font-size:60px;""> </div>","null","fixation","html-keyboard-response","265","945844","0.0-6.0-0.37","2899515","co37543","norming","","","","","","",""
"null","../img/tt/1236tt.jpg","null","mooney1","image-keyboard-response","266","948848","0.0-6.0-1.37","2899515","co37543","norming","","","","","","",""
"4738.140000000363","","","post_mooney1_questions","survey-likert","267","953589","0.0-6.0-2.37","2899515","co37543","norming","","","{""curiosity"":0,""confidence"":6}","[0,1]","../img/tt/1236tt.jpg","",""
"2426.7100000006612","","","recognition","survey-text","268","956018","0.0-6.0-3.37","2899515","co37543","norming","","","{""guess"":""duck""}","","../img/tt/1236tt.jpg","",""
"null","../img/gs/1236gs.jpg","null","reveal","image-keyboard-response","269","958030","0.0-6.0-4.37","2899515","co37543","norming","","","","","","",""
"null","../img/tt/1236tt.jpg","null","mooney2","image-keyboard-response","270","960036","0.0-6.0-5.37","2899515","co37543","norming","","","","","","",""
"1980.319999999716","","","post_reveal_questions","survey-likert","271","962019","0.0-6.0-6.37","2899515","co37543","norming","","","{""aha"":0}","[0]","../img/tt/1236tt.jpg","",""
"null","<div style=""font-size:60px;""> </div>","null","fixation","html-keyboard-response","272","962228","0.0-6.0-0.38","2899515","co37543","norming","","","","","","",""
"null","../img/tt/515tt.jpg","null","mooney1","image-keyboard-response","273","965246","0.0-6.0-1.38","2899515","co37543","norming","","","","","","",""
"4493.620000000112","","","post_mooney1_questions","survey-likert","274","969743","0.0-6.0-2.38","2899515","co37543","norming","","","{""curiosity"":4,""confidence"":1}","[0,1]","../img/tt/515tt.jpg","",""
"2253.6849999997066","","","recognition","survey-text","275","972002","0.0-6.0-3.38","2899515","co37543","norming","","","{""guess"":""hat""}","","../img/tt/515tt.jpg","",""
"null","../img/gs/515gs.jpg","null","reveal","image-keyboard-response","276","974015","0.0-6.0-4.38","2899515","co37543","norming","","","","","","",""
"null","../img/tt/515tt.jpg","null","mooney2","image-keyboard-response","277","976028","0.0-6.0-5.38","2899515","co37543","norming","","","","","","",""
"2123.8999999995576","","","post_reveal_questions","survey-likert","278","978155","0.0-6.0-6.38","2899515","co37543","norming","","","{""aha"":6}","[0]","../img/tt/515tt.jpg","",""
"null","<div style=""font-size:60px;""> </div>","null","fixation","html-keyboard-response","279","978361","0.0-6.0-0.39","2899515","co37543","norming","","","","","","",""
"null","../img/tt/1087tt.jpg","null","mooney1","image-keyboard-response","280","981377","0.0-6.0-1.39","2899515","co37543","norming","","","","","","",""
"2589.83499999973","","","post_mooney1_questions","survey-likert","281","983970","0.0-6.0-2.39","2899515","co37543","norming","","","{""curiosity"":6,""confidence"":0}","[0,1]","../img/tt/1087tt.jpg","",""
"830.40500000061","","","recognition","survey-text","282","984805","0.0-6.0-3.39","2899515","co37543","norming","","","{""guess"":""""}","","../img/tt/1087tt.jpg","",""
"null","../img/gs/1087gs.jpg","null","reveal","image-keyboard-response","283","986816","0.0-6.0-4.39","2899515","co37543","norming","","","","","","",""
"null","../img/tt/1087tt.jpg","null","mooney2","image-keyboard-response","284","988818","0.0-6.0-5.39","2899515","co37543","norming","","","","","","",""
"2546.615000000107","","","post_reveal_questions","survey-likert","285","991367","0.0-6.0-6.39","2899515","co37543","norming","","","{""aha"":6}","[0]","../img/tt/1087tt.jpg","",""
"null","<div style=""font-size:60px;""> </div>","null","fixation","html-keyboard-response","286","991578","0.0-6.0-0.40","2899515","co37543","norming","","","","","","",""
"null","../img/tt/524tt.jpg","null","mooney1","image-keyboard-response","287","994584","0.0-6.0-1.40","2899515","co37543","norming","","","","","","",""
"2898.840000000666","","","post_mooney1_questions","survey-likert","288","997488","0.0-6.0-2.40","2899515","co37543","norming","","","{""curiosity"":0,""confidence"":6}","[0,1]","../img/tt/524tt.jpg","",""
"2353.910000000731","","","recognition","survey-text","289","999847","0.0-6.0-3.40","2899515","co37543","norming","","","{""guess"":""olifant""}","","../img/tt/524tt.jpg","",""
"null","../img/gs/524gs.jpg","null","reveal","image-keyboard-response","290","1001850","0.0-6.0-4.40","2899515","co37543","norming","","","","","","",""
"null","../img/tt/524tt.jpg","null","mooney2","image-keyboard-response","291","1003864","0.0-6.0-5.40","2899515","co37543","norming","","","","","","",""
"1568.4199999995762","","","post_reveal_questions","survey-likert","292","1005435","0.0-6.0-6.40","2899515","co37543","norming","","","{""aha"":6}","[0]","../img/tt/524tt.jpg","",""
"null","<div style=""font-size:60px;""> </div>","null","fixation","html-keyboard-response","293","1005646","0.0-6.0-0.41","2899515","co37543","norming","","","","","","",""
"null","../img/tt/1270tt.jpg","null","mooney1","image-keyboard-response","294","1008667","0.0-6.0-1.41","2899515","co37543","norming","","","","","","",""
"7252.795000000391","","","post_mooney1_questions","survey-likert","295","1015923","0.0-6.0-2.41","2899515","co37543","norming","","","{""curiosity"":6,""confidence"":2}","[0,1]","../img/tt/1270tt.jpg","",""
"3152.8349999999627","","","recognition","survey-text","296","1019080","0.0-6.0-3.41","2899515","co37543","norming","","","{""guess"":""mouse""}","","../img/tt/1270tt.jpg","",""
"null","../img/gs/1270gs.jpg","null","reveal","image-keyboard-response","297","1021094","0.0-6.0-4.41","2899515","co37543","norming","","","","","","",""
"null","../img/tt/1270tt.jpg","null","mooney2","image-keyboard-response","298","1023109","0.0-6.0-5.41","2899515","co37543","norming","","","","","","",""
"4816.950000000419","","","post_reveal_questions","survey-likert","299","1027929","0.0-6.0-6.41","2899515","co37543","norming","","","{""aha"":4}","[0]","../img/tt/1270tt.jpg","",""
"null","<div style=""font-size:60px;""> </div>","null","fixation","html-keyboard-response","300","1028144","0.0-6.0-0.42","2899515","co37543","norming","","","","","","",""
"null","../img/tt/019tt.jpg","null","mooney1","image-keyboard-response","301","1031157","0.0-6.0-1.42","2899515","co37543","norming","","","","","","",""
"19099.65499999991","","","post_mooney1_questions","survey-likert","302","1050260","0.0-6.0-2.42","2899515","co37543","norming","","","{""curiosity"":4,""confidence"":3}","[0,1]","../img/tt/019tt.jpg","",""
"1842.4050000002608","","","recognition","survey-text","303","1052107","0.0-6.0-3.42","2899515","co37543","norming","","","{""guess"":""nippers""}","","../img/tt/019tt.jpg","",""
"null","../img/gs/019gs.jpg","null","reveal","image-keyboard-response","304","1054118","0.0-6.0-4.42","2899515","co37543","norming","","","","","","",""
"null","../img/tt/019tt.jpg","null","mooney2","image-keyboard-response","305","1056121","0.0-6.0-5.42","2899515","co37543","norming","","","","","","",""
"11756.910000000149","","","post_reveal_questions","survey-likert","306","1067880","0.0-6.0-6.42","2899515","co37543","norming","","","{""aha"":2}","[0]","../img/tt/019tt.jpg","",""
"null","<div style=""font-size:60px;""> </div>","null","fixation","html-keyboard-response","307","1068095","0.0-6.0-0.43","2899515","co37543","norming","","","","","","",""
"null","../img/tt/416tt.jpg","null","mooney1","image-keyboard-response","308","1071103","0.0-6.0-1.43","2899515","co37543","norming","","","","","","",""
"12290.135000000242","","","post_mooney1_questions","survey-likert","309","1083397","0.0-6.0-2.43","2899515","co37543","norming","","","{""curiosity"":0,""confidence"":6}","[0,1]","../img/tt/416tt.jpg","",""
"2590.5499999998137","","","recognition","survey-text","310","1085993","0.0-6.0-3.43","2899515","co37543","norming","","","{""guess"":""ostrich""}","","../img/tt/416tt.jpg","",""
"null","../img/gs/416gs.jpg","null","reveal","image-keyboard-response","311","1087998","0.0-6.0-4.43","2899515","co37543","norming","","","","","","",""
"null","../img/tt/416tt.jpg","null","mooney2","image-keyboard-response","312","1090009","0.0-6.0-5.43","2899515","co37543","norming","","","","","","",""
"3430.9499999999534","","","post_reveal_questions","survey-likert","313","1093442","0.0-6.0-6.43","2899515","co37543","norming","","","{""aha"":0}","[0]","../img/tt/416tt.jpg","",""
"null","<div style=""font-size:60px;""> </div>","null","fixation","html-keyboard-response","314","1093656","0.0-6.0-0.44","2899515","co37543","norming","","","","","","",""
"null","../img/tt/1012tt.jpg","null","mooney1","image-keyboard-response","315","1096680","0.0-6.0-1.44","2899515","co37543","norming","","","","","","",""
"5870.125000000233","","","post_mooney1_questions","survey-likert","316","1102553","0.0-6.0-2.44","2899515","co37543","norming","","","{""curiosity"":3,""confidence"":3}","[0,1]","../img/tt/1012tt.jpg","",""
"1025.8799999991897","","","recognition","survey-text","317","1103584","0.0-6.0-3.44","2899515","co37543","norming","","","{""guess"":""dog""}","","../img/tt/1012tt.jpg","",""
"null","../img/gs/1012gs.jpg","null","reveal","image-keyboard-response","318","1105591","0.0-6.0-4.44","2899515","co37543","norming","","","","","","",""
"null","../img/tt/1012tt.jpg","null","mooney2","image-keyboard-response","319","1107620","0.0-6.0-5.44","2899515","co37543","norming","","","","","","",""
"3024.9149999998044","","","post_reveal_questions","survey-likert","320","1110647","0.0-6.0-6.44","2899515","co37543","norming","","","{""aha"":5}","[0]","../img/tt/1012tt.jpg","",""
"null","<div style=""font-size:60px;""> </div>","null","fixation","html-keyboard-response","321","1110858","0.0-6.0-0.45","2899515","co37543","norming","","","","","","",""
"null","../img/tt/184tt.jpg","null","mooney1","image-keyboard-response","322","1113875","0.0-6.0-1.45","2899515","co37543","norming","","","","","","",""
"3848.8249999999534","","","post_mooney1_questions","survey-likert","323","1117728","0.0-6.0-2.45","2899515","co37543","norming","","","{""curiosity"":6,""confidence"":0}","[0,1]","../img/tt/184tt.jpg","",""
"826.8799999996554","","","recognition","survey-text","324","1118561","0.0-6.0-3.45","2899515","co37543","norming","","","{""guess"":""""}","","../img/tt/184tt.jpg","",""
"null","../img/gs/184gs.jpg","null","reveal","image-keyboard-response","325","1120569","0.0-6.0-4.45","2899515","co37543","norming","","","","","","",""
"null","../img/tt/184tt.jpg","null","mooney2","image-keyboard-response","326","1122577","0.0-6.0-5.45","2899515","co37543","norming","","","","","","",""
"3464.8749999995343","","","post_reveal_questions","survey-likert","327","1126046","0.0-6.0-6.45","2899515","co37543","norming","","","{""aha"":5}","[0]","../img/tt/184tt.jpg","",""
"null","<div style=""font-size:60px;""> </div>","null","fixation","html-keyboard-response","328","1126256","0.0-6.0-0.46","2899515","co37543","norming","","","","","","",""
"null","../img/tt/056tt.jpg","null","mooney1","image-keyboard-response","329","1129277","0.0-6.0-1.46","2899515","co37543","norming","","","","","","",""
"4563.5999999996275","","","post_mooney1_questions","survey-likert","330","1133844","0.0-6.0-2.46","2899515","co37543","norming","","","{""curiosity"":3,""confidence"":3}","[0,1]","../img/tt/056tt.jpg","",""
"2853.48000000068","","","recognition","survey-text","331","1136704","0.0-6.0-3.46","2899515","co37543","norming","","","{""guess"":""goat""}","","../img/tt/056tt.jpg","",""
"null","../img/gs/056gs.jpg","null","reveal","image-keyboard-response","332","1138713","0.0-6.0-4.46","2899515","co37543","norming","","","","","","",""
"null","../img/tt/056tt.jpg","null","mooney2","image-keyboard-response","333","1140719","0.0-6.0-5.46","2899515","co37543","norming","","","","","","",""
"2080.670000000391","","","post_reveal_questions","survey-likert","334","1142803","0.0-6.0-6.46","2899515","co37543","norming","","","{""aha"":6}","[0]","../img/tt/056tt.jpg","",""
"null","<div style=""font-size:60px;""> </div>","null","fixation","html-keyboard-response","335","1143018","0.0-6.0-0.47","2899515","co37543","norming","","","","","","",""
"null","../img/tt/552tt.jpg","null","mooney1","image-keyboard-response","336","1146030","0.0-6.0-1.47","2899515","co37543","norming","","","","","","",""
"13951.204999999376","","","post_mooney1_questions","survey-likert","337","1159985","0.0-6.0-2.47","2899515","co37543","norming","","","{""curiosity"":0,""confidence"":6}","[0,1]","../img/tt/552tt.jpg","",""
"2319.3350000001956","","","recognition","survey-text","338","1162310","0.0-6.0-3.47","2899515","co37543","norming","","","{""guess"":""skunk""}","","../img/tt/552tt.jpg","",""
"null","../img/gs/552gs.jpg","null","reveal","image-keyboard-response","339","1164327","0.0-6.0-4.47","2899515","co37543","norming","","","","","","",""
"null","../img/tt/552tt.jpg","null","mooney2","image-keyboard-response","340","1166340","0.0-6.0-5.47","2899515","co37543","norming","","","","","","",""
"2584.2450000001118","","","post_reveal_questions","survey-likert","341","1168928","0.0-6.0-6.47","2899515","co37543","norming","","","{""aha"":0}","[0]","../img/tt/552tt.jpg","",""
"null","<div style=""font-size:60px;""> </div>","null","fixation","html-keyboard-response","342","1169140","0.0-6.0-0.48","2899515","co37543","norming","","","","","","",""
"null","../img/tt/1278tt.jpg","null","mooney1","image-keyboard-response","343","1172162","0.0-6.0-1.48","2899515","co37543","norming","","","","","","",""
"3900.475000000559","","","post_mooney1_questions","survey-likert","344","1176066","0.0-6.0-2.48","2899515","co37543","norming","","","{""curiosity"":6,""confidence"":0}","[0,1]","../img/tt/1278tt.jpg","",""
"703.8999999994412","","","recognition","survey-text","345","1176775","0.0-6.0-3.48","2899515","co37543","norming","","","{""guess"":""""}","","../img/tt/1278tt.jpg","",""
"null","../img/gs/1278gs.jpg","null","reveal","image-keyboard-response","346","1178780","0.0-6.0-4.48","2899515","co37543","norming","","","","","","",""
"null","../img/tt/1278tt.jpg","null","mooney2","image-keyboard-response","347","1180789","0.0-6.0-5.48","2899515","co37543","norming","","","","","","",""
"1410.3850000000093","","","post_reveal_questions","survey-likert","348","1182203","0.0-6.0-6.48","2899515","co37543","norming","","","{""aha"":6}","[0]","../img/tt/1278tt.jpg","",""
"null","<div style=""font-size:60px;""> </div>","null","fixation","html-keyboard-response","349","1182416","0.0-6.0-0.49","2899515","co37543","norming","","","","","","",""
"null","../img/tt/1283tt.jpg","null","mooney1","image-keyboard-response","350","1185428","0.0-6.0-1.49","2899515","co37543","norming","","","","","","",""
"7326.335000000661","","","post_mooney1_questions","survey-likert","351","1192757","0.0-6.0-2.49","2899515","co37543","norming","","","{""curiosity"":6,""confidence"":2}","[0,1]","../img/tt/1283tt.jpg","",""
"1862.7300000006799","","","recognition","survey-text","352","1194625","0.0-6.0-3.49","2899515","co37543","norming","","","{""guess"":""nature""}","","../img/tt/1283tt.jpg","",""
"null","../img/gs/1283gs.jpg","null","reveal","image-keyboard-response","353","1196630","0.0-6.0-4.49","2899515","co37543","norming","","","","","","",""
"null","../img/tt/1283tt.jpg","null","mooney2","image-keyboard-response","354","1198634","0.0-6.0-5.49","2899515","co37543","norming","","","","","","",""
"2872.1649999998044","","","post_reveal_questions","survey-likert","355","1201509","0.0-6.0-6.49","2899515","co37543","norming","","","{""aha"":5}","[0]","../img/tt/1283tt.jpg","",""
"null","<div style=""font-size:60px;""> </div>","null","fixation","html-keyboard-response","356","1201716","0.0-6.0-0.50","2899515","co37543","norming","","","","","","",""
"null","../img/tt/1130tt.jpg","null","mooney1","image-keyboard-response","357","1204726","0.0-6.0-1.50","2899515","co37543","norming","","","","","","",""
"3371.8250000001863","","","post_mooney1_questions","survey-likert","358","1208102","0.0-6.0-2.50","2899515","co37543","norming","","","{""curiosity"":6,""confidence"":3}","[0,1]","../img/tt/1130tt.jpg","",""
"1457.4050000002608","","","recognition","survey-text","359","1209565","0.0-6.0-3.50","2899515","co37543","norming","","","{""guess"":""bike""}","","../img/tt/1130tt.jpg","",""
"null","../img/gs/1130gs.jpg","null","reveal","image-keyboard-response","360","1211567","0.0-6.0-4.50","2899515","co37543","norming","","","","","","",""
"null","../img/tt/1130tt.jpg","null","mooney2","image-keyboard-response","361","1213583","0.0-6.0-5.50","2899515","co37543","norming","","","","","","",""
"2089.6099999998696","","","post_reveal_questions","survey-likert","362","1215676","0.0-6.0-6.50","2899515","co37543","norming","","","{""aha"":4}","[0]","../img/tt/1130tt.jpg","",""
"null","<div style=""font-size:60px;""> </div>","null","fixation","html-keyboard-response","363","1215883","0.0-6.0-0.51","2899515","co37543","norming","","","","","","",""
"null","../img/tt/1188tt.jpg","null","mooney1","image-keyboard-response","364","1218896","0.0-6.0-1.51","2899515","co37543","norming","","","","","","",""
"13938.070000000065","","","post_mooney1_questions","survey-likert","365","1232837","0.0-6.0-2.51","2899515","co37543","norming","","","{""curiosity"":0,""confidence"":6}","[0,1]","../img/tt/1188tt.jpg","",""
"2341.0849999999627","","","recognition","survey-text","366","1235183","0.0-6.0-3.51","2899515","co37543","norming","","","{""guess"":""cyclist""}","","../img/tt/1188tt.jpg","",""
"null","../img/gs/1188gs.jpg","null","reveal","image-keyboard-response","367","1237189","0.0-6.0-4.51","2899515","co37543","norming","","","","","","",""
"null","../img/tt/1188tt.jpg","null","mooney2","image-keyboard-response","368","1239195","0.0-6.0-5.51","2899515","co37543","norming","","","","","","",""
"3695.560000000056","","","post_reveal_questions","survey-likert","369","1242894","0.0-6.0-6.51","2899515","co37543","norming","","","{""aha"":0}","[0]","../img/tt/1188tt.jpg","",""
"null","<div style=""font-size:60px;""> </div>","null","fixation","html-keyboard-response","370","1243097","0.0-6.0-0.52","2899515","co37543","norming","","","","","","",""
"null","../img/tt/418tt.jpg","null","mooney1","image-keyboard-response","371","1246113","0.0-6.0-1.52","2899515","co37543","norming","","","","","","",""
"4333.825000000652","","","post_mooney1_questions","survey-likert","372","1250450","0.0-6.0-2.52","2899515","co37543","norming","","","{""curiosity"":6,""confidence"":2}","[0,1]","../img/tt/418tt.jpg","",""
"1307.7400000002235","","","recognition","survey-text","373","1251762","0.0-6.0-3.52","2899515","co37543","norming","","","{""guess"":""helmet""}","","../img/tt/418tt.jpg","",""
"null","../img/gs/418gs.jpg","null","reveal","image-keyboard-response","374","1253770","0.0-6.0-4.52","2899515","co37543","norming","","","","","","",""
"null","../img/tt/418tt.jpg","null","mooney2","image-keyboard-response","375","1255777","0.0-6.0-5.52","2899515","co37543","norming","","","","","","",""
"3621.7549999991897","","","post_reveal_questions","survey-likert","376","1259403","0.0-6.0-6.52","2899515","co37543","norming","","","{""aha"":6}","[0]","../img/tt/418tt.jpg","",""
"null","<div style=""font-size:60px;""> </div>","null","fixation","html-keyboard-response","377","1259611","0.0-6.0-0.53","2899515","co37543","norming","","","","","","",""
"null","../img/tt/307tt.jpg","null","mooney1","image-keyboard-response","378","1262614","0.0-6.0-1.53","2899515","co37543","norming","","","","","","",""
"4887.469999999739","","","post_mooney1_questions","survey-likert","379","1267505","0.0-6.0-2.53","2899515","co37543","norming","","","{""curiosity"":0,""confidence"":6}","[0,1]","../img/tt/307tt.jpg","",""
"2831.374999999767","","","recognition","survey-text","380","1270342","0.0-6.0-3.53","2899515","co37543","norming","","","{""guess"":""turtle""}","","../img/tt/307tt.jpg","",""
"null","../img/gs/307gs.jpg","null","reveal","image-keyboard-response","381","1272348","0.0-6.0-4.53","2899515","co37543","norming","","","","","","",""
"null","../img/tt/307tt.jpg","null","mooney2","image-keyboard-response","382","1274368","0.0-6.0-5.53","2899515","co37543","norming","","","","","","",""
"2749.304999999469","","","post_reveal_questions","survey-likert","383","1277120","0.0-6.0-6.53","2899515","co37543","norming","","","{""aha"":0}","[0]","../img/tt/307tt.jpg","",""
"null","<div style=""font-size:60px;""> </div>","null","fixation","html-keyboard-response","384","1277331","0.0-6.0-0.54","2899515","co37543","norming","","","","","","",""
"null","../img/tt/053tt.jpg","null","mooney1","image-keyboard-response","385","1280334","0.0-6.0-1.54","2899515","co37543","norming","","","","","","",""
"5792.520000000019","","","post_mooney1_questions","survey-likert","386","1286130","0.0-6.0-2.54","2899515","co37543","norming","","","{""curiosity"":4,""confidence"":4}","[0,1]","../img/tt/053tt.jpg","",""
"1851.2700000000186","","","recognition","survey-text","387","1287986","0.0-6.0-3.54","2899515","co37543","norming","","","{""guess"":""waterfall""}","","../img/tt/053tt.jpg","",""
"null","../img/gs/053gs.jpg","null","reveal","image-keyboard-response","388","1289994","0.0-6.0-4.54","2899515","co37543","norming","","","","","","",""
"null","../img/tt/053tt.jpg","null","mooney2","image-keyboard-response","389","1291998","0.0-6.0-5.54","2899515","co37543","norming","","","","","","",""
"2933.4550000003073","","","post_reveal_questions","survey-likert","390","1294935","0.0-6.0-6.54","2899515","co37543","norming","","","{""aha"":4}","[0]","../img/tt/053tt.jpg","",""
"null","<div style=""font-size:60px;""> </div>","null","fixation","html-keyboard-response","391","1295148","0.0-6.0-0.55","2899515","co37543","norming","","","","","","",""
"null","../img/tt/1101tt.jpg","null","mooney1","image-keyboard-response","392","1298164","0.0-6.0-1.55","2899515","co37543","norming","","","","","","",""
"4743.974999999395","","","post_mooney1_questions","survey-likert","393","1302911","0.0-6.0-2.55","2899515","co37543","norming","","","{""curiosity"":0,""confidence"":6}","[0,1]","../img/tt/1101tt.jpg","",""
"1460.469999999972","","","recognition","survey-text","394","1304377","0.0-6.0-3.55","2899515","co37543","norming","","","{""guess"":""soccer""}","","../img/tt/1101tt.jpg","",""
"null","../img/gs/1101gs.jpg","null","reveal","image-keyboard-response","395","1306391","0.0-6.0-4.55","2899515","co37543","norming","","","","","","",""
"null","../img/tt/1101tt.jpg","null","mooney2","image-keyboard-response","396","1308396","0.0-6.0-5.55","2899515","co37543","norming","","","","","","",""
"3522.100000000093","","","post_reveal_questions","survey-likert","397","1311921","0.0-6.0-6.55","2899515","co37543","norming","","","{""aha"":0}","[0]","../img/tt/1101tt.jpg","",""
"null","<div style=""font-size:60px;""> </div>","null","fixation","html-keyboard-response","398","1312127","0.0-6.0-0.56","2899515","co37543","norming","","","","","","",""
"null","../img/tt/060tt.jpg","null","mooney1","image-keyboard-response","399","1315130","0.0-6.0-1.56","2899515","co37543","norming","","","","","","",""
"4612.435000000056","","","post_mooney1_questions","survey-likert","400","1319745","0.0-6.0-2.56","2899515","co37543","norming","","","{""curiosity"":6,""confidence"":1}","[0,1]","../img/tt/060tt.jpg","",""
"1443.2299999997485","","","recognition","survey-text","401","1321192","0.0-6.0-3.56","2899515","co37543","norming","","","{""guess"":""helmet""}","","../img/tt/060tt.jpg","",""
"null","../img/gs/060gs.jpg","null","reveal","image-keyboard-response","402","1323204","0.0-6.0-4.56","2899515","co37543","norming","","","","","","",""
"null","../img/tt/060tt.jpg","null","mooney2","image-keyboard-response","403","1325208","0.0-6.0-5.56","2899515","co37543","norming","","","","","","",""
"2398.265000000596","","","post_reveal_questions","survey-likert","404","1327609","0.0-6.0-6.56","2899515","co37543","norming","","","{""aha"":5}","[0]","../img/tt/060tt.jpg","",""
"null","<div style=""font-size:60px;""> </div>","null","fixation","html-keyboard-response","405","1327823","0.0-6.0-0.57","2899515","co37543","norming","","","","","","",""
"null","../img/tt/279tt.jpg","null","mooney1","image-keyboard-response","406","1330833","0.0-6.0-1.57","2899515","co37543","norming","","","","","","",""
"4960.024999999441","","","post_mooney1_questions","survey-likert","407","1335797","0.0-6.0-2.57","2899515","co37543","norming","","","{""curiosity"":0,""confidence"":6}","[0,1]","../img/tt/279tt.jpg","",""
"2139.204999999609","","","recognition","survey-text","408","1337943","0.0-6.0-3.57","2899515","co37543","norming","","","{""guess"":""koala""}","","../img/tt/279tt.jpg","",""
"null","../img/gs/279gs.jpg","null","reveal","image-keyboard-response","409","1339947","0.0-6.0-4.57","2899515","co37543","norming","","","","","","",""
"null","../img/tt/279tt.jpg","null","mooney2","image-keyboard-response","410","1341967","0.0-6.0-5.57","2899515","co37543","norming","","","","","","",""
"1634.8450000004377","","","post_reveal_questions","survey-likert","411","1343605","0.0-6.0-6.57","2899515","co37543","norming","","","{""aha"":0}","[0]","../img/tt/279tt.jpg","",""
"null","<div style=""font-size:60px;""> </div>","null","fixation","html-keyboard-response","412","1343809","0.0-6.0-0.58","2899515","co37543","norming","","","","","","",""
"null","../img/tt/1251tt.jpg","null","mooney1","image-keyboard-response","413","1346817","0.0-6.0-1.58","2899515","co37543","norming","","","","","","",""
"7885.729999999981","","","post_mooney1_questions","survey-likert","414","1354706","0.0-6.0-2.58","2899515","co37543","norming","","","{""curiosity"":5,""confidence"":2}","[0,1]","../img/tt/1251tt.jpg","",""
"1393.5400000000373","","","recognition","survey-text","415","1356106","0.0-6.0-3.58","2899515","co37543","norming","","","{""guess"":""grass""}","","../img/tt/1251tt.jpg","",""
"null","../img/gs/1251gs.jpg","null","reveal","image-keyboard-response","416","1358133","0.0-6.0-4.58","2899515","co37543","norming","","","","","","",""
"null","../img/tt/1251tt.jpg","null","mooney2","image-keyboard-response","417","1360141","0.0-6.0-5.58","2899515","co37543","norming","","","","","","",""
"3103.415000000503","","","post_reveal_questions","survey-likert","418","1363247","0.0-6.0-6.58","2899515","co37543","norming","","","{""aha"":5}","[0]","../img/tt/1251tt.jpg","",""
"null","<div style=""font-size:60px;""> </div>","null","fixation","html-keyboard-response","419","1363453","0.0-6.0-0.59","2899515","co37543","norming","","","","","","",""
"null","../img/tt/1250tt.jpg","null","mooney1","image-keyboard-response","420","1366463","0.0-6.0-1.59","2899515","co37543","norming","","","","","","",""
"3403.5999999996275","","","post_mooney1_questions","survey-likert","421","1369870","0.0-6.0-2.59","2899515","co37543","norming","","","{""curiosity"":5,""confidence"":3}","[0,1]","../img/tt/1250tt.jpg","",""
"2850.6699999999255","","","recognition","survey-text","422","1372726","0.0-6.0-3.59","2899515","co37543","norming","","","{""guess"":""bear""}","","../img/tt/1250tt.jpg","",""
"null","../img/gs/1250gs.jpg","null","reveal","image-keyboard-response","423","1374735","0.0-6.0-4.59","2899515","co37543","norming","","","","","","",""
"null","../img/tt/1250tt.jpg","null","mooney2","image-keyboard-response","424","1376750","0.0-6.0-5.59","2899515","co37543","norming","","","","","","",""
"4439.739999999758","","","post_reveal_questions","survey-likert","425","1381192","0.0-6.0-6.59","2899515","co37543","norming","","","{""aha"":1}","[0]","../img/tt/1250tt.jpg","",""
"null","<div style=""font-size:60px;""> </div>","null","fixation","html-keyboard-response","426","1381403","0.0-6.0-0.60","2899515","co37543","norming","","","","","","",""
"null","../img/tt/567tt.jpg","null","mooney1","image-keyboard-response","427","1384408","0.0-6.0-1.60","2899515","co37543","norming","","","","","","",""
"7283.894999999553","","","post_mooney1_questions","survey-likert","428","1391694","0.0-6.0-2.60","2899515","co37543","norming","","","{""curiosity"":0,""confidence"":6}","[0,1]","../img/tt/567tt.jpg","",""
"2623.230000000214","","","recognition","survey-text","429","1394320","0.0-6.0-3.60","2899515","co37543","norming","","","{""guess"":""bread""}","","../img/tt/567tt.jpg","",""
"null","../img/gs/567gs.jpg","null","reveal","image-keyboard-response","430","1396328","0.0-6.0-4.60","2899515","co37543","norming","","","","","","",""
"null","../img/tt/567tt.jpg","null","mooney2","image-keyboard-response","431","1398332","0.0-6.0-5.60","2899515","co37543","norming","","","","","","",""
"2439.225000000093","","","post_reveal_questions","survey-likert","432","1400774","0.0-6.0-6.60","2899515","co37543","norming","","","{""aha"":0}","[0]","../img/tt/567tt.jpg","",""
"null","<div style=""font-size:60px;""> </div>","null","fixation","html-keyboard-response","433","1400979","0.0-6.0-0.61","2899515","co37543","norming","","","","","","",""
"null","../img/tt/580tt.jpg","null","mooney1","image-keyboard-response","434","1403997","0.0-6.0-1.61","2899515","co37543","norming","","","","","","",""
"2414.464999999851","","","post_mooney1_questions","survey-likert","435","1406416","0.0-6.0-2.61","2899515","co37543","norming","","","{""curiosity"":6,""confidence"":0}","[0,1]","../img/tt/580tt.jpg","",""
"555.6399999994319","","","recognition","survey-text","436","1406977","0.0-6.0-3.61","2899515","co37543","norming","","","{""guess"":""""}","","../img/tt/580tt.jpg","",""
"null","../img/gs/580gs.jpg","null","reveal","image-keyboard-response","437","1408986","0.0-6.0-4.61","2899515","co37543","norming","","","","","","",""
"null","../img/tt/580tt.jpg","null","mooney2","image-keyboard-response","438","1410999","0.0-6.0-5.61","2899515","co37543","norming","","","","","","",""
"1298.049999999348","","","post_reveal_questions","survey-likert","439","1412300","0.0-6.0-6.61","2899515","co37543","norming","","","{""aha"":6}","[0]","../img/tt/580tt.jpg","",""
"null","<div style=""font-size:60px;""> </div>","null","fixation","html-keyboard-response","440","1412504","0.0-6.0-0.62","2899515","co37543","norming","","","","","","",""
"null","../img/tt/055tt.jpg","null","mooney1","image-keyboard-response","441","1415518","0.0-6.0-1.62","2899515","co37543","norming","","","","","","",""
"3047.375000000233","","","post_mooney1_questions","survey-likert","442","1418569","0.0-6.0-2.62","2899515","co37543","norming","","","{""curiosity"":6,""confidence"":0}","[0,1]","../img/tt/055tt.jpg","",""
"682.815000000177","","","recognition","survey-text","443","1419254","0.0-6.0-3.62","2899515","co37543","norming","","","{""guess"":""""}","","../img/tt/055tt.jpg","",""
"null","../img/gs/055gs.jpg","null","reveal","image-keyboard-response","444","1421258","0.0-6.0-4.62","2899515","co37543","norming","","","","","","",""
"null","../img/tt/055tt.jpg","null","mooney2","image-keyboard-response","445","1423271","0.0-6.0-5.62","2899515","co37543","norming","","","","","","",""
"2936.749999999767","","","post_reveal_questions","survey-likert","446","1426210","0.0-6.0-6.62","2899515","co37543","norming","","","{""aha"":6}","[0]","../img/tt/055tt.jpg","",""
"null","<div style=""font-size:60px;""> </div>","null","fixation","html-keyboard-response","447","1426420","0.0-6.0-0.63","2899515","co37543","norming","","","","","","",""
"null","../img/tt/1089tt.jpg","null","mooney1","image-keyboard-response","448","1429428","0.0-6.0-1.63","2899515","co37543","norming","","","","","","",""
"2907.390000000363","","","post_mooney1_questions","survey-likert","449","1432338","0.0-6.0-2.63","2899515","co37543","norming","","","{""curiosity"":6,""confidence"":3}","[0,1]","../img/tt/1089tt.jpg","",""
"1373.4300000006333","","","recognition","survey-text","450","1433717","0.0-6.0-3.63","2899515","co37543","norming","","","{""guess"":""car""}","","../img/tt/1089tt.jpg","",""
"null","../img/gs/1089gs.jpg","null","reveal","image-keyboard-response","451","1435724","0.0-6.0-4.63","2899515","co37543","norming","","","","","","",""
"null","../img/tt/1089tt.jpg","null","mooney2","image-keyboard-response","452","1437737","0.0-6.0-5.63","2899515","co37543","norming","","","","","","",""
"2075.5749999997206","","","post_reveal_questions","survey-likert","453","1439816","0.0-6.0-6.63","2899515","co37543","norming","","","{""aha"":6}","[0]","../img/tt/1089tt.jpg","",""
"null","<div style=""font-size:60px;""> </div>","null","fixation","html-keyboard-response","454","1440021","0.0-6.0-0.64","2899515","co37543","norming","","","","","","",""
"null","../img/tt/123tt.jpg","null","mooney1","image-keyboard-response","455","1443043","0.0-6.0-1.64","2899515","co37543","norming","","","","","","",""
"8913.520000000019","","","post_mooney1_questions","survey-likert","456","1451959","0.0-6.0-2.64","2899515","co37543","norming","","","{""curiosity"":0,""confidence"":6}","[0,1]","../img/tt/123tt.jpg","",""
"2330.0950000004377","","","recognition","survey-text","457","1454296","0.0-6.0-3.64","2899515","co37543","norming","","","{""guess"":""bag""}","","../img/tt/123tt.jpg","",""
"null","../img/gs/123gs.jpg","null","reveal","image-keyboard-response","458","1456298","0.0-6.0-4.64","2899515","co37543","norming","","","","","","",""
"null","../img/tt/123tt.jpg","null","mooney2","image-keyboard-response","459","1458308","0.0-6.0-5.64","2899515","co37543","norming","","","","","","",""
"1496.2850000003818","","","post_reveal_questions","survey-likert","460","1459807","0.0-6.0-6.64","2899515","co37543","norming","","","{""aha"":0}","[0]","../img/tt/123tt.jpg","",""
"null","<div style=""font-size:60px;""> </div>","null","fixation","html-keyboard-response","461","1460021","0.0-6.0-0.65","2899515","co37543","norming","","","","","","",""
"null","../img/tt/1307tt.jpg","null","mooney1","image-keyboard-response","462","1463033","0.0-6.0-1.65","2899515","co37543","norming","","","","","","",""
"2819.5200000000186","","","post_mooney1_questions","survey-likert","463","1465857","0.0-6.0-2.65","2899515","co37543","norming","","","{""curiosity"":6,""confidence"":3}","[0,1]","../img/tt/1307tt.jpg","",""
"2488.570000000531","","","recognition","survey-text","464","1468350","0.0-6.0-3.65","2899515","co37543","norming","","","{""guess"":""stairs""}","","../img/tt/1307tt.jpg","",""
"null","../img/gs/1307gs.jpg","null","reveal","image-keyboard-response","465","1470363","0.0-6.0-4.65","2899515","co37543","norming","","","","","","",""
"null","../img/tt/1307tt.jpg","null","mooney2","image-keyboard-response","466","1472368","0.0-6.0-5.65","2899515","co37543","norming","","","","","","",""
"2493.0150000001304","","","post_reveal_questions","survey-likert","467","1474864","0.0-6.0-6.65","2899515","co37543","norming","","","{""aha"":6}","[0]","../img/tt/1307tt.jpg","",""
"null","<div style=""font-size:60px;""> </div>","null","fixation","html-keyboard-response","468","1475071","0.0-6.0-0.66","2899515","co37543","norming","","","","","","",""
"null","../img/tt/007tt.jpg","null","mooney1","image-keyboard-response","469","1478087","0.0-6.0-1.66","2899515","co37543","norming","","","","","","",""
"2561.7199999995064","","","post_mooney1_questions","survey-likert","470","1480652","0.0-6.0-2.66","2899515","co37543","norming","","","{""curiosity"":0,""confidence"":6}","[0,1]","../img/tt/007tt.jpg","",""
"874.5900000005495","","","recognition","survey-text","471","1481532","0.0-6.0-3.66","2899515","co37543","norming","","","{""guess"":""frog""}","","../img/tt/007tt.jpg","",""
"null","../img/gs/007gs.jpg","null","reveal","image-keyboard-response","472","1483544","0.0-6.0-4.66","2899515","co37543","norming","","","","","","",""
"null","../img/tt/007tt.jpg","null","mooney2","image-keyboard-response","473","1485548","0.0-6.0-5.66","2899515","co37543","norming","","","","","","",""
"2559.3199999993667","","","post_reveal_questions","survey-likert","474","1488110","0.0-6.0-6.66","2899515","co37543","norming","","","{""aha"":0}","[0]","../img/tt/007tt.jpg","",""
"null","<div style=""font-size:60px;""> </div>","null","fixation","html-keyboard-response","475","1488322","0.0-6.0-0.67","2899515","co37543","norming","","","","","","",""
"null","../img/tt/1217tt.jpg","null","mooney1","image-keyboard-response","476","1491336","0.0-6.0-1.67","2899515","co37543","norming","","","","","","",""
"2729.8199999995995","","","post_mooney1_questions","survey-likert","477","1494068","0.0-6.0-2.67","2899515","co37543","norming","","","{""curiosity"":0,""confidence"":6}","[0,1]","../img/tt/1217tt.jpg","",""
"1294.6099999998696","","","recognition","survey-text","478","1495366","0.0-6.0-3.67","2899515","co37543","norming","","","{""guess"":""soccer""}","","../img/tt/1217tt.jpg","",""
"null","../img/gs/1217gs.jpg","null","reveal","image-keyboard-response","479","1497375","0.0-6.0-4.67","2899515","co37543","norming","","","","","","",""
"null","../img/tt/1217tt.jpg","null","mooney2","image-keyboard-response","480","1499392","0.0-6.0-5.67","2899515","co37543","norming","","","","","","",""
"2061.560000000056","","","post_reveal_questions","survey-likert","481","1501456","0.0-6.0-6.67","2899515","co37543","norming","","","{""aha"":4}","[0]","../img/tt/1217tt.jpg","",""
"null","<div style=""font-size:60px;""> </div>","null","fixation","html-keyboard-response","482","1501672","0.0-6.0-0.68","2899515","co37543","norming","","","","","","",""
"null","../img/tt/1043tt.jpg","null","mooney1","image-keyboard-response","483","1504680","0.0-6.0-1.68","2899515","co37543","norming","","","","","","",""
"2924.6599999996834","","","post_mooney1_questions","survey-likert","484","1507608","0.0-6.0-2.68","2899515","co37543","norming","","","{""curiosity"":5,""confidence"":2}","[0,1]","../img/tt/1043tt.jpg","",""
"1668.2249999993946","","","recognition","survey-text","485","1509282","0.0-6.0-3.68","2899515","co37543","norming","","","{""guess"":""hotdog""}","","../img/tt/1043tt.jpg","",""
"null","../img/gs/1043gs.jpg","null","reveal","image-keyboard-response","486","1511296","0.0-6.0-4.68","2899515","co37543","norming","","","","","","",""
"null","../img/tt/1043tt.jpg","null","mooney2","image-keyboard-response","487","1513310","0.0-6.0-5.68","2899515","co37543","norming","","","","","","",""
"2329.429999999702","","","post_reveal_questions","survey-likert","488","1515643","0.0-6.0-6.68","2899515","co37543","norming","","","{""aha"":2}","[0]","../img/tt/1043tt.jpg","",""
"null","<div style=""font-size:60px;""> </div>","null","fixation","html-keyboard-response","489","1515856","0.0-6.0-0.69","2899515","co37543","norming","","","","","","",""
"null","../img/tt/1189tt.jpg","null","mooney1","image-keyboard-response","490","1518874","0.0-6.0-1.69","2899515","co37543","norming","","","","","","",""
"3436.2099999999627","","","post_mooney1_questions","survey-likert","491","1522314","0.0-6.0-2.69","2899515","co37543","norming","","","{""curiosity"":0,""confidence"":5}","[0,1]","../img/tt/1189tt.jpg","",""
"2218.1649999993388","","","recognition","survey-text","492","1524539","0.0-6.0-3.69","2899515","co37543","norming","","","{""guess"":""swimming""}","","../img/tt/1189tt.jpg","",""
"null","../img/gs/1189gs.jpg","null","reveal","image-keyboard-response","493","1526544","0.0-6.0-4.69","2899515","co37543","norming","","","","","","",""
"null","../img/tt/1189tt.jpg","null","mooney2","image-keyboard-response","494","1528556","0.0-6.0-5.69","2899515","co37543","norming","","","","","","",""
"1937.83499999973","","","post_reveal_questions","survey-likert","495","1530496","0.0-6.0-6.69","2899515","co37543","norming","","","{""aha"":0}","[0]","../img/tt/1189tt.jpg","",""
"null","<div style=""font-size:60px;""> </div>","null","fixation","html-keyboard-response","496","1530707","0.0-6.0-0.70","2899515","co37543","norming","","","","","","",""
"null","../img/tt/020tt.jpg","null","mooney1","image-keyboard-response","497","1533710","0.0-6.0-1.70","2899515","co37543","norming","","","","","","",""
"4002.155000000028","","","post_mooney1_questions","survey-likert","498","1537716","0.0-6.0-2.70","2899515","co37543","norming","","","{""curiosity"":6,""confidence"":0}","[0,1]","../img/tt/020tt.jpg","",""
"701.635000000475","","","recognition","survey-text","499","1538423","0.0-6.0-3.70","2899515","co37543","norming","","","{""guess"":""""}","","../img/tt/020tt.jpg","",""
"null","../img/gs/020gs.jpg","null","reveal","image-keyboard-response","500","1540433","0.0-6.0-4.70","2899515","co37543","norming","","","","","","",""
"null","../img/tt/020tt.jpg","null","mooney2","image-keyboard-response","501","1542445","0.0-6.0-5.70","2899515","co37543","norming","","","","","","",""
"2286.9599999992643","","","post_reveal_questions","survey-likert","502","1544735","0.0-6.0-6.70","2899515","co37543","norming","","","{""aha"":6}","[0]","../img/tt/020tt.jpg","",""
"null","<div style=""font-size:60px;""> </div>","null","fixation","html-keyboard-response","503","1544940","0.0-6.0-0.71","2899515","co37543","norming","","","","","","",""
"null","../img/tt/380tt.jpg","null","mooney1","image-keyboard-response","504","1547951","0.0-6.0-1.71","2899515","co37543","norming","","","","","","",""
"2695.3300000003073","","","post_mooney1_questions","survey-likert","505","1550651","0.0-6.0-2.71","2899515","co37543","norming","","","{""curiosity"":5,""confidence"":3}","[0,1]","../img/tt/380tt.jpg","",""
"1116.9550000005402","","","recognition","survey-text","506","1551773","0.0-6.0-3.71","2899515","co37543","norming","","","{""guess"":""rat""}","","../img/tt/380tt.jpg","",""
"null","../img/gs/380gs.jpg","null","reveal","image-keyboard-response","507","1553786","0.0-6.0-4.71","2899515","co37543","norming","","","","","","",""
"null","../img/tt/380tt.jpg","null","mooney2","image-keyboard-response","508","1555796","0.0-6.0-5.71","2899515","co37543","norming","","","","","","",""
"1895.5249999999069","","","post_reveal_questions","survey-likert","509","1557694","0.0-6.0-6.71","2899515","co37543","norming","","","{""aha"":6}","[0]","../img/tt/380tt.jpg","",""
"null","<div style=""font-size:60px;""> </div>","null","fixation","html-keyboard-response","510","1557907","0.0-6.0-0.72","2899515","co37543","norming","","","","","","",""
"null","../img/tt/1247tt.jpg","null","mooney1","image-keyboard-response","511","1560922","0.0-6.0-1.72","2899515","co37543","norming","","","","","","",""
"6632.024999999907","","","post_mooney1_questions","survey-likert","512","1567558","0.0-6.0-2.72","2899515","co37543","norming","","","{""curiosity"":0,""confidence"":6}","[0,1]","../img/tt/1247tt.jpg","",""
"4069.1399999996647","","","recognition","survey-text","513","1571632","0.0-6.0-3.72","2899515","co37543","norming","","","{""guess"":""cheetah""}","","../img/tt/1247tt.jpg","",""
"null","../img/gs/1247gs.jpg","null","reveal","image-keyboard-response","514","1573643","0.0-6.0-4.72","2899515","co37543","norming","","","","","","",""
"null","../img/tt/1247tt.jpg","null","mooney2","image-keyboard-response","515","1575645","0.0-6.0-5.72","2899515","co37543","norming","","","","","","",""
"1999.5699999998324","","","post_reveal_questions","survey-likert","516","1577648","0.0-6.0-6.72","2899515","co37543","norming","","","{""aha"":4}","[0]","../img/tt/1247tt.jpg","",""
"null","<div style=""font-size:60px;""> </div>","null","fixation","html-keyboard-response","517","1577857","0.0-6.0-0.73","2899515","co37543","norming","","","","","","",""
"null","../img/tt/032tt.jpg","null","mooney1","image-keyboard-response","518","1580869","0.0-6.0-1.73","2899515","co37543","norming","","","","","","",""
"5778.229999999981","","","post_mooney1_questions","survey-likert","519","1586651","0.0-6.0-2.73","2899515","co37543","norming","","","{""curiosity"":4,""confidence"":2}","[0,1]","../img/tt/032tt.jpg","",""
"1025.130000000121","","","recognition","survey-text","520","1587683","0.0-6.0-3.73","2899515","co37543","norming","","","{""guess"":""snake""}","","../img/tt/032tt.jpg","",""
"null","../img/gs/032gs.jpg","null","reveal","image-keyboard-response","521","1589694","0.0-6.0-4.73","2899515","co37543","norming","","","","","","",""
"null","../img/tt/032tt.jpg","null","mooney2","image-keyboard-response","522","1591706","0.0-6.0-5.73","2899515","co37543","norming","","","","","","",""
"1539.4150000000373","","","post_reveal_questions","survey-likert","523","1593248","0.0-6.0-6.73","2899515","co37543","norming","","","{""aha"":6}","[0]","../img/tt/032tt.jpg","",""
"null","<div style=""font-size:60px;""> </div>","null","fixation","html-keyboard-response","524","1593457","0.0-6.0-0.74","2899515","co37543","norming","","","","","","",""
"null","../img/tt/438tt.jpg","null","mooney1","image-keyboard-response","525","1596463","0.0-6.0-1.74","2899515","co37543","norming","","","","","","",""
"3817.7449999991804","","","post_mooney1_questions","survey-likert","526","1600284","0.0-6.0-2.74","2899515","co37543","norming","","","{""curiosity"":0,""confidence"":6}","[0,1]","../img/tt/438tt.jpg","",""
"1388.3099999993574","","","recognition","survey-text","527","1601674","0.0-6.0-3.74","2899515","co37543","norming","","","{""guess"":""bird""}","","../img/tt/438tt.jpg","",""
"null","../img/gs/438gs.jpg","null","reveal","image-keyboard-response","528","1603688","0.0-6.0-4.74","2899515","co37543","norming","","","","","","",""
"null","../img/tt/438tt.jpg","null","mooney2","image-keyboard-response","529","1605698","0.0-6.0-5.74","2899515","co37543","norming","","","","","","",""
"1987.1499999999069","","","post_reveal_questions","survey-likert","530","1607687","0.0-6.0-6.74","2899515","co37543","norming","","","{""aha"":6}","[0]","../img/tt/438tt.jpg","",""
"null","<div style=""font-size:60px;""> </div>","null","fixation","html-keyboard-response","531","1607891","0.0-6.0-0.75","2899515","co37543","norming","","","","","","",""
"null","../img/tt/436tt.jpg","null","mooney1","image-keyboard-response","532","1610909","0.0-6.0-1.75","2899515","co37543","norming","","","","","","",""
"6104.274999999674","","","post_mooney1_questions","survey-likert","533","1617016","0.0-6.0-2.75","2899515","co37543","norming","","","{""curiosity"":0,""confidence"":6}","[0,1]","../img/tt/436tt.jpg","",""
"3202.1500000001397","","","recognition","survey-text","534","1620224","0.0-6.0-3.75","2899515","co37543","norming","","","{""guess"":""repiel""}","","../img/tt/436tt.jpg","",""
"null","../img/gs/436gs.jpg","null","reveal","image-keyboard-response","535","1622237","0.0-6.0-4.75","2899515","co37543","norming","","","","","","",""
"null","../img/tt/436tt.jpg","null","mooney2","image-keyboard-response","536","1624239","0.0-6.0-5.75","2899515","co37543","norming","","","","","","",""
"4957.79000000027","","","post_reveal_questions","survey-likert","537","1629200","0.0-6.0-6.75","2899515","co37543","norming","","","{""aha"":1}","[0]","../img/tt/436tt.jpg","",""
"null","<div style=""font-size:60px;""> </div>","null","fixation","html-keyboard-response","538","1629415","0.0-6.0-0.76","2899515","co37543","norming","","","","","","",""
"null","../img/tt/1261tt.jpg","null","mooney1","image-keyboard-response","539","1632418","0.0-6.0-1.76","2899515","co37543","norming","","","","","","",""
"6081.179999999236","","","post_mooney1_questions","survey-likert","540","1638502","0.0-6.0-2.76","2899515","co37543","norming","","","{""curiosity"":4,""confidence"":5}","[0,1]","../img/tt/1261tt.jpg","",""
"1447.0700000000652","","","recognition","survey-text","541","1639955","0.0-6.0-3.76","2899515","co37543","norming","","","{""guess"":""sheap""}","","../img/tt/1261tt.jpg","",""
"null","../img/gs/1261gs.jpg","null","reveal","image-keyboard-response","542","1641971","0.0-6.0-4.76","2899515","co37543","norming","","","","","","",""
"null","../img/tt/1261tt.jpg","null","mooney2","image-keyboard-response","543","1643977","0.0-6.0-5.76","2899515","co37543","norming","","","","","","",""
"1932.8599999998696","","","post_reveal_questions","survey-likert","544","1645913","0.0-6.0-6.76","2899515","co37543","norming","","","{""aha"":5}","[0]","../img/tt/1261tt.jpg","",""
"null","<div style=""font-size:60px;""> </div>","null","fixation","html-keyboard-response","545","1646121","0.0-6.0-0.77","2899515","co37543","norming","","","","","","",""
"null","../img/tt/1268tt.jpg","null","mooney1","image-keyboard-response","546","1649129","0.0-6.0-1.77","2899515","co37543","norming","","","","","","",""
"4887.015000000363","","","post_mooney1_questions","survey-likert","547","1654020","0.0-6.0-2.77","2899515","co37543","norming","","","{""curiosity"":0,""confidence"":6}","[0,1]","../img/tt/1268tt.jpg","",""
"3800.155000000028","","","recognition","survey-text","548","1657823","0.0-6.0-3.77","2899515","co37543","norming","","","{""guess"":""squarl""}","","../img/tt/1268tt.jpg","",""
"null","../img/gs/1268gs.jpg","null","reveal","image-keyboard-response","549","1659835","0.0-6.0-4.77","2899515","co37543","norming","","","","","","",""
"null","../img/tt/1268tt.jpg","null","mooney2","image-keyboard-response","550","1661849","0.0-6.0-5.77","2899515","co37543","norming","","","","","","",""
"1814.4000000001397","","","post_reveal_questions","survey-likert","551","1663666","0.0-6.0-6.77","2899515","co37543","norming","","","{""aha"":0}","[0]","../img/tt/1268tt.jpg","",""
"null","<div style=""font-size:60px;""> </div>","null","fixation","html-keyboard-response","552","1663876","0.0-6.0-0.78","2899515","co37543","norming","","","","","","",""
