"rt","stimulus","key_press","test_part","trial_type","trial_index","time_elapsed","internal_node_id","totalTime","subject","experiment_name","button_pressed","success","responses","question_order","currentStim","old","correct"
"4507.909999927506","Welcome to the experiment. This is an online experiment so please don't close the tab/window until we say goodbye.  Press any key to begin.","32","instructions","html-keyboard-response","0","4566","0.0-0.0","2410158","co37553","norming","","","","","","",""
"23225.279999896884","<div style='word-wrap: break-word; width: 900px'><h3>Please consider this information carefully before deciding whether to participate in this research</h3><ul style='text-align: left; font-size: .8em;'><li><b>Purpose of the research</b>: To examine how people process images.</li><li><b>What you will do in this research</b>:  Stimuli (images) will be presented on the computer and you will be asked different questions about them.</li><li><b>Time required</b>: Participation will take between 45 and 60 minutes to complete.</li><li><b>Risks</b>:  There are no anticipated risks associated with participating in this study. The effects of participating should be comparable to those you would experience from viewing a computer monitor for 30 minutes and using a mouse or keyboard.</li><li><b>Benefits</b>:  This study provides no benefits to you individually except for the credit. The study provides important information about the nature of perception and learning.</li><li><b>Confidentiality</b>:  Your participation in this study will remain confidential. No personally identifiable information will be associated with your data. Your de-identified data may be shared with other researchers and used in future projects.</li><li><b>Participation and withdrawal</b>:  Your participation in this study is completely voluntary and you may refuse to participate or you may choose to withdraw at any time without penalty.</li><li><b>How to contact the researchers</b>: If you have questions or concerns about your participation or payment, or want to request a summary of research findings, please contact Sander Van de Cruys (KU Leuven), at sander.vandecruys@kuleuven.be.</li></ul><p>The nature and purpose of this research have been sufficiently explained and I agree to participate in this study.  I understand that I am free to withdraw at any time without incurring any penalty.</p><p>Please consent by clicking the button below to continue. Otherwise, please exit the study at this time.</p></div>","","instructions","html-button-response","1","27795","0.0-1.0","2410158","co37553","norming","0","","","","","",""
"","","","instructions","fullscreen","2","32241","0.0-2.0","2410158","co37553","norming","","true","","","","",""
"28665.990000008605","","","sona","survey-html-form","3","60911","0.0-3.0","2410158","co37553","norming","","","[{""name"":""sonaid"",""value"":""37553""},{""name"":""debrief"",""value"":""yes""},{""name"":""datajoin"",""value"":""yes""}]","","","",""
"89850.44499998912","<div style='word-wrap: break-word; width: 900px'><h3>Instructions</h3><p>This experiment will have 3 parts. In the first part you will see a series of distorted images like the one below on the left. As you can see in the righthand image, the distorted images are derived from actual photographs. In what follows, you will <strong>briefly</strong> be presented with <strong>only</strong> the distorted image.</p> <div style='float: left; margin-right: 20px;'><img src='../img/018tt.jpg' height='250' width='250'></img></div><div style='float: right; margin-left: 20px;'><img src='../img/018gs.jpg' height='250' width='250'></img></div><p>Subsequently you will be asked a few questions about the image: One question on how <strong>curious</strong> you are about the solution and one on how <strong>confident</strong> you are that you know the solution.</p>Next, we ask you to make a guess on what is in the image. Note that it is OK to name just the <strong>basic level category</strong>. For example when you see a parrot in the image, 'parrot' will obviously be a correct answer but also correct is 'bird'. However, 'animal' will <strong>not</strong> be counted as a correct response. For the example above, 'rose' would be correct or 'flower', but not 'plant'. When soccer players are depicted, 'soccer', 'football', 'soccer players' will be correct, but not 'humans', 'outdoors', or 'sports'. You do not need to describe the image in full, just name the main object in it <strong>in one or two words</strong>. All images depict objects from one of the following broad level categories: animals, inanimate objects, plants, sports, vehicles, and food. Recognizing means knowing <strong>more</strong> than these broad labels for a given image. But we always encourage you to <strong>make a guess</strong> if you can. Note that you are allowed to use <strong>Dutch and English</strong> in your answers, whatever comes easiest for you.</p><p>Press any key to continue.</p></div>","32","instructions","html-keyboard-response","4","150765","0.0-4.0","2410158","co37553","norming","","","","","","",""
"14598.19500008598","<div style='word-wrap: break-word; width: 900px'><h3>Instructions</h3> <p>Next, the solution image will be revealed to you and you'll be asked to indicate how strong your <strong>aha-experience</strong> was after seeing the solution. This describes the positive feeling of the 'click' you sometimes experience, when the pieces of the 'puzzle' fall together and you suddenly have 'insight' in the image.</p><img src='aha.jpg' height='188' width='250'></img><p>Note that there are no right or wrong answers. We are interested in what <strong>you</strong> see in the image and how <strong>you</strong> feel about it.</p><p>Press any key to start the experiment.</p></div>","32","instructions","html-keyboard-response","5","165364","0.0-5.0","2410158","co37553","norming","","","","","","",""
"null","<div style=""font-size:60px;""> </div>","null","fixation","html-keyboard-response","6","165584","0.0-6.0-0.0","2410158","co37553","norming","","","","","","",""
"null","../img/tt/1027tt.jpg","null","mooney1","image-keyboard-response","7","168600","0.0-6.0-1.0","2410158","co37553","norming","","","","","","",""
"6328.089999966323","","","post_mooney1_questions","survey-likert","8","174932","0.0-6.0-2.0","2410158","co37553","norming","","","{""curiosity"":2,""confidence"":5}","[0,1]","../img/tt/1027tt.jpg","",""
"4430.399999953806","","","recognition","survey-text","9","179365","0.0-6.0-3.0","2410158","co37553","norming","","","{""guess"":""cow""}","","../img/tt/1027tt.jpg","",""
"null","../img/gs/1027gs.jpg","null","reveal","image-keyboard-response","10","181370","0.0-6.0-4.0","2410158","co37553","norming","","","","","","",""
"null","../img/tt/1027tt.jpg","null","mooney2","image-keyboard-response","11","183384","0.0-6.0-5.0","2410158","co37553","norming","","","","","","",""
"3639.3349999561906","","","post_reveal_questions","survey-likert","12","187026","0.0-6.0-6.0","2410158","co37553","norming","","","{""aha"":0}","[0]","../img/tt/1027tt.jpg","",""
"null","<div style=""font-size:60px;""> </div>","null","fixation","html-keyboard-response","13","187231","0.0-6.0-0.1","2410158","co37553","norming","","","","","","",""
"null","../img/tt/358tt.jpg","null","mooney1","image-keyboard-response","14","190234","0.0-6.0-1.1","2410158","co37553","norming","","","","","","",""
"5328.169999993406","","","post_mooney1_questions","survey-likert","15","195565","0.0-6.0-2.1","2410158","co37553","norming","","","{""curiosity"":6,""confidence"":0}","[0,1]","../img/tt/358tt.jpg","",""
"12390.830000047572","","","recognition","survey-text","16","207961","0.0-6.0-3.1","2410158","co37553","norming","","","{""guess"":""""}","","../img/tt/358tt.jpg","",""
"null","../img/gs/358gs.jpg","null","reveal","image-keyboard-response","17","209979","0.0-6.0-4.1","2410158","co37553","norming","","","","","","",""
"null","../img/tt/358tt.jpg","null","mooney2","image-keyboard-response","18","211990","0.0-6.0-5.1","2410158","co37553","norming","","","","","","",""
"6831.209999974817","","","post_reveal_questions","survey-likert","19","218823","0.0-6.0-6.1","2410158","co37553","norming","","","{""aha"":3}","[0]","../img/tt/358tt.jpg","",""
"null","<div style=""font-size:60px;""> </div>","null","fixation","html-keyboard-response","20","219037","0.0-6.0-0.2","2410158","co37553","norming","","","","","","",""
"null","../img/tt/053tt.jpg","null","mooney1","image-keyboard-response","21","222057","0.0-6.0-1.2","2410158","co37553","norming","","","","","","",""
"7430.655000032857","","","post_mooney1_questions","survey-likert","22","229490","0.0-6.0-2.2","2410158","co37553","norming","","","{""curiosity"":4,""confidence"":0}","[0,1]","../img/tt/053tt.jpg","",""
"10895.045000012033","","","recognition","survey-text","23","240391","0.0-6.0-3.2","2410158","co37553","norming","","","{""guess"":""een golf""}","","../img/tt/053tt.jpg","",""
"null","../img/gs/053gs.jpg","null","reveal","image-keyboard-response","24","242421","0.0-6.0-4.2","2410158","co37553","norming","","","","","","",""
"null","../img/tt/053tt.jpg","null","mooney2","image-keyboard-response","25","244427","0.0-6.0-5.2","2410158","co37553","norming","","","","","","",""
"5546.2749999715015","","","post_reveal_questions","survey-likert","26","249975","0.0-6.0-6.2","2410158","co37553","norming","","","{""aha"":4}","[0]","../img/tt/053tt.jpg","",""
"null","<div style=""font-size:60px;""> </div>","null","fixation","html-keyboard-response","27","250181","0.0-6.0-0.3","2410158","co37553","norming","","","","","","",""
"null","../img/tt/1242tt.jpg","null","mooney1","image-keyboard-response","28","253185","0.0-6.0-1.3","2410158","co37553","norming","","","","","","",""
"3890.4650000622496","","","post_mooney1_questions","survey-likert","29","257078","0.0-6.0-2.3","2410158","co37553","norming","","","{""curiosity"":5,""confidence"":0}","[0,1]","../img/tt/1242tt.jpg","",""
"948.5300000524148","","","recognition","survey-text","30","258029","0.0-6.0-3.3","2410158","co37553","norming","","","{""guess"":""""}","","../img/tt/1242tt.jpg","",""
"null","../img/gs/1242gs.jpg","null","reveal","image-keyboard-response","31","260044","0.0-6.0-4.3","2410158","co37553","norming","","","","","","",""
"null","../img/tt/1242tt.jpg","null","mooney2","image-keyboard-response","32","262050","0.0-6.0-5.3","2410158","co37553","norming","","","","","","",""
"2042.7899999776855","","","post_reveal_questions","survey-likert","33","264095","0.0-6.0-6.3","2410158","co37553","norming","","","{""aha"":5}","[0]","../img/tt/1242tt.jpg","",""
"null","<div style=""font-size:60px;""> </div>","null","fixation","html-keyboard-response","34","264300","0.0-6.0-0.4","2410158","co37553","norming","","","","","","",""
"null","../img/tt/019tt.jpg","null","mooney1","image-keyboard-response","35","267304","0.0-6.0-1.4","2410158","co37553","norming","","","","","","",""
"3285.395000013523","","","post_mooney1_questions","survey-likert","36","270592","0.0-6.0-2.4","2410158","co37553","norming","","","{""curiosity"":6,""confidence"":1}","[0,1]","../img/tt/019tt.jpg","",""
"2125.4600000102073","","","recognition","survey-text","37","272719","0.0-6.0-3.4","2410158","co37553","norming","","","{""guess"":""plane""}","","../img/tt/019tt.jpg","",""
"null","../img/gs/019gs.jpg","null","reveal","image-keyboard-response","38","274723","0.0-6.0-4.4","2410158","co37553","norming","","","","","","",""
"null","../img/tt/019tt.jpg","null","mooney2","image-keyboard-response","39","276741","0.0-6.0-5.4","2410158","co37553","norming","","","","","","",""
"2457.6949999900535","","","post_reveal_questions","survey-likert","40","279200","0.0-6.0-6.4","2410158","co37553","norming","","","{""aha"":2}","[0]","../img/tt/019tt.jpg","",""
"null","<div style=""font-size:60px;""> </div>","null","fixation","html-keyboard-response","41","279413","0.0-6.0-0.5","2410158","co37553","norming","","","","","","",""
"null","../img/tt/567tt.jpg","null","mooney1","image-keyboard-response","42","282434","0.0-6.0-1.5","2410158","co37553","norming","","","","","","",""
"4688.740000012331","","","post_mooney1_questions","survey-likert","43","287125","0.0-6.0-2.5","2410158","co37553","norming","","","{""curiosity"":4,""confidence"":0}","[0,1]","../img/tt/567tt.jpg","",""
"2206.594999996014","","","recognition","survey-text","44","289337","0.0-6.0-3.5","2410158","co37553","norming","","","{""guess"":""""}","","../img/tt/567tt.jpg","",""
"null","../img/gs/567gs.jpg","null","reveal","image-keyboard-response","45","291341","0.0-6.0-4.5","2410158","co37553","norming","","","","","","",""
"null","../img/tt/567tt.jpg","null","mooney2","image-keyboard-response","46","293359","0.0-6.0-5.5","2410158","co37553","norming","","","","","","",""
"3239.4449999555945","","","post_reveal_questions","survey-likert","47","296601","0.0-6.0-6.5","2410158","co37553","norming","","","{""aha"":4}","[0]","../img/tt/567tt.jpg","",""
"null","<div style=""font-size:60px;""> </div>","null","fixation","html-keyboard-response","48","296814","0.0-6.0-0.6","2410158","co37553","norming","","","","","","",""
"null","../img/tt/435tt.jpg","null","mooney1","image-keyboard-response","49","299831","0.0-6.0-1.6","2410158","co37553","norming","","","","","","",""
"3695.880000013858","","","post_mooney1_questions","survey-likert","50","303530","0.0-6.0-2.6","2410158","co37553","norming","","","{""curiosity"":4,""confidence"":1}","[0,1]","../img/tt/435tt.jpg","",""
"8659.749999991618","","","recognition","survey-text","51","312192","0.0-6.0-3.6","2410158","co37553","norming","","","{""guess"":""pancakes""}","","../img/tt/435tt.jpg","",""
"null","../img/gs/435gs.jpg","null","reveal","image-keyboard-response","52","314201","0.0-6.0-4.6","2410158","co37553","norming","","","","","","",""
"null","../img/tt/435tt.jpg","null","mooney2","image-keyboard-response","53","316202","0.0-6.0-5.6","2410158","co37553","norming","","","","","","",""
"2441.8199999490753","","","post_reveal_questions","survey-likert","54","318646","0.0-6.0-6.6","2410158","co37553","norming","","","{""aha"":3}","[0]","../img/tt/435tt.jpg","",""
"null","<div style=""font-size:60px;""> </div>","null","fixation","html-keyboard-response","55","318850","0.0-6.0-0.7","2410158","co37553","norming","","","","","","",""
"null","../img/tt/1151tt.jpg","null","mooney1","image-keyboard-response","56","321868","0.0-6.0-1.7","2410158","co37553","norming","","","","","","",""
"3502.225000062026","","","post_mooney1_questions","survey-likert","57","325373","0.0-6.0-2.7","2410158","co37553","norming","","","{""curiosity"":6,""confidence"":0}","[0,1]","../img/tt/1151tt.jpg","",""
"1239.865000010468","","","recognition","survey-text","58","326615","0.0-6.0-3.7","2410158","co37553","norming","","","{""guess"":""""}","","../img/tt/1151tt.jpg","",""
"null","../img/gs/1151gs.jpg","null","reveal","image-keyboard-response","59","328626","0.0-6.0-4.7","2410158","co37553","norming","","","","","","",""
"null","../img/tt/1151tt.jpg","null","mooney2","image-keyboard-response","60","330635","0.0-6.0-5.7","2410158","co37553","norming","","","","","","",""
"2213.1000000517815","","","post_reveal_questions","survey-likert","61","332851","0.0-6.0-6.7","2410158","co37553","norming","","","{""aha"":4}","[0]","../img/tt/1151tt.jpg","",""
"null","<div style=""font-size:60px;""> </div>","null","fixation","html-keyboard-response","62","333064","0.0-6.0-0.8","2410158","co37553","norming","","","","","","",""
"null","../img/tt/046tt.jpg","null","mooney1","image-keyboard-response","63","336080","0.0-6.0-1.8","2410158","co37553","norming","","","","","","",""
"4011.915000039153","","","post_mooney1_questions","survey-likert","64","340094","0.0-6.0-2.8","2410158","co37553","norming","","","{""curiosity"":2,""confidence"":0}","[0,1]","../img/tt/046tt.jpg","",""
"882.9299999633804","","","recognition","survey-text","65","340979","0.0-6.0-3.8","2410158","co37553","norming","","","{""guess"":""""}","","../img/tt/046tt.jpg","",""
"null","../img/gs/046gs.jpg","null","reveal","image-keyboard-response","66","343003","0.0-6.0-4.8","2410158","co37553","norming","","","","","","",""
"null","../img/tt/046tt.jpg","null","mooney2","image-keyboard-response","67","345006","0.0-6.0-5.8","2410158","co37553","norming","","","","","","",""
"3642.2850000672042","","","post_reveal_questions","survey-likert","68","348650","0.0-6.0-6.8","2410158","co37553","norming","","","{""aha"":1}","[0]","../img/tt/046tt.jpg","",""
"null","<div style=""font-size:60px;""> </div>","null","fixation","html-keyboard-response","69","348864","0.0-6.0-0.9","2410158","co37553","norming","","","","","","",""
"null","../img/tt/603tt.jpg","null","mooney1","image-keyboard-response","70","351874","0.0-6.0-1.9","2410158","co37553","norming","","","","","","",""
"3778.704999946058","","","post_mooney1_questions","survey-likert","71","355655","0.0-6.0-2.9","2410158","co37553","norming","","","{""curiosity"":4,""confidence"":1}","[0,1]","../img/tt/603tt.jpg","",""
"2339.3599999835715","","","recognition","survey-text","72","357999","0.0-6.0-3.9","2410158","co37553","norming","","","{""guess"":""cat""}","","../img/tt/603tt.jpg","",""
"null","../img/gs/603gs.jpg","null","reveal","image-keyboard-response","73","360011","0.0-6.0-4.9","2410158","co37553","norming","","","","","","",""
"null","../img/tt/603tt.jpg","null","mooney2","image-keyboard-response","74","362020","0.0-6.0-5.9","2410158","co37553","norming","","","","","","",""
"2653.400000068359","","","post_reveal_questions","survey-likert","75","364676","0.0-6.0-6.9","2410158","co37553","norming","","","{""aha"":6}","[0]","../img/tt/603tt.jpg","",""
"null","<div style=""font-size:60px;""> </div>","null","fixation","html-keyboard-response","76","364885","0.0-6.0-0.10","2410158","co37553","norming","","","","","","",""
"null","../img/tt/1199tt.jpg","null","mooney1","image-keyboard-response","77","367899","0.0-6.0-1.10","2410158","co37553","norming","","","","","","",""
"5776.009999914095","","","post_mooney1_questions","survey-likert","78","373678","0.0-6.0-2.10","2410158","co37553","norming","","","{""curiosity"":5,""confidence"":1}","[0,1]","../img/tt/1199tt.jpg","",""
"21886.215000064112","","","recognition","survey-text","79","395566","0.0-6.0-3.10","2410158","co37553","norming","","","{""guess"":""""}","","../img/tt/1199tt.jpg","",""
"null","../img/gs/1199gs.jpg","null","reveal","image-keyboard-response","80","397579","0.0-6.0-4.10","2410158","co37553","norming","","","","","","",""
"null","../img/tt/1199tt.jpg","null","mooney2","image-keyboard-response","81","399588","0.0-6.0-5.10","2410158","co37553","norming","","","","","","",""
"1542.4800000619143","","","post_reveal_questions","survey-likert","82","401132","0.0-6.0-6.10","2410158","co37553","norming","","","{""aha"":0}","[0]","../img/tt/1199tt.jpg","",""
"null","<div style=""font-size:60px;""> </div>","null","fixation","html-keyboard-response","83","401336","0.0-6.0-0.11","2410158","co37553","norming","","","","","","",""
"null","../img/tt/496tt.jpg","null","mooney1","image-keyboard-response","84","404361","0.0-6.0-1.11","2410158","co37553","norming","","","","","","",""
"3723.6500000581145","","","post_mooney1_questions","survey-likert","85","408088","0.0-6.0-2.11","2410158","co37553","norming","","","{""curiosity"":4,""confidence"":1}","[0,1]","../img/tt/496tt.jpg","",""
"1615.0350000243634","","","recognition","survey-text","86","409705","0.0-6.0-3.11","2410158","co37553","norming","","","{""guess"":""pig""}","","../img/tt/496tt.jpg","",""
"null","../img/gs/496gs.jpg","null","reveal","image-keyboard-response","87","411721","0.0-6.0-4.11","2410158","co37553","norming","","","","","","",""
"null","../img/tt/496tt.jpg","null","mooney2","image-keyboard-response","88","413724","0.0-6.0-5.11","2410158","co37553","norming","","","","","","",""
"1667.81000001356","","","post_reveal_questions","survey-likert","89","415394","0.0-6.0-6.11","2410158","co37553","norming","","","{""aha"":2}","[0]","../img/tt/496tt.jpg","",""
"null","<div style=""font-size:60px;""> </div>","null","fixation","html-keyboard-response","90","415603","0.0-6.0-0.12","2410158","co37553","norming","","","","","","",""
"null","../img/tt/1217tt.jpg","null","mooney1","image-keyboard-response","91","418612","0.0-6.0-1.12","2410158","co37553","norming","","","","","","",""
"4386.620000004768","","","post_mooney1_questions","survey-likert","92","423001","0.0-6.0-2.12","2410158","co37553","norming","","","{""curiosity"":4,""confidence"":1}","[0,1]","../img/tt/1217tt.jpg","",""
"1480.2550000604242","","","recognition","survey-text","93","424485","0.0-6.0-3.12","2410158","co37553","norming","","","{""guess"":""dog""}","","../img/tt/1217tt.jpg","",""
"null","../img/gs/1217gs.jpg","null","reveal","image-keyboard-response","94","426502","0.0-6.0-4.12","2410158","co37553","norming","","","","","","",""
"null","../img/tt/1217tt.jpg","null","mooney2","image-keyboard-response","95","428515","0.0-6.0-5.12","2410158","co37553","norming","","","","","","",""
"2023.6700000241399","","","post_reveal_questions","survey-likert","96","430540","0.0-6.0-6.12","2410158","co37553","norming","","","{""aha"":1}","[0]","../img/tt/1217tt.jpg","",""
"null","<div style=""font-size:60px;""> </div>","null","fixation","html-keyboard-response","97","430748","0.0-6.0-0.13","2410158","co37553","norming","","","","","","",""
"null","../img/tt/098tt.jpg","null","mooney1","image-keyboard-response","98","433764","0.0-6.0-1.13","2410158","co37553","norming","","","","","","",""
"4665.559999994002","","","post_mooney1_questions","survey-likert","99","438433","0.0-6.0-2.13","2410158","co37553","norming","","","{""curiosity"":4,""confidence"":0}","[0,1]","../img/tt/098tt.jpg","",""
"2069.344999967143","","","recognition","survey-text","100","440504","0.0-6.0-3.13","2410158","co37553","norming","","","{""guess"":""soldier""}","","../img/tt/098tt.jpg","",""
"null","../img/gs/098gs.jpg","null","reveal","image-keyboard-response","101","442509","0.0-6.0-4.13","2410158","co37553","norming","","","","","","",""
"null","../img/tt/098tt.jpg","null","mooney2","image-keyboard-response","102","444514","0.0-6.0-5.13","2410158","co37553","norming","","","","","","",""
"1609.6050000051036","","","post_reveal_questions","survey-likert","103","446126","0.0-6.0-6.13","2410158","co37553","norming","","","{""aha"":0}","[0]","../img/tt/098tt.jpg","",""
"null","<div style=""font-size:60px;""> </div>","null","fixation","html-keyboard-response","104","446351","0.0-6.0-0.14","2410158","co37553","norming","","","","","","",""
"null","../img/tt/1127tt.jpg","null","mooney1","image-keyboard-response","105","449364","0.0-6.0-1.14","2410158","co37553","norming","","","","","","",""
"6352.015000069514","","","post_mooney1_questions","survey-likert","106","455719","0.0-6.0-2.14","2410158","co37553","norming","","","{""curiosity"":4,""confidence"":1}","[0,1]","../img/tt/1127tt.jpg","",""
"11133.999999961816","","","recognition","survey-text","107","466856","0.0-6.0-3.14","2410158","co37553","norming","","","{""guess"":""a bar""}","","../img/tt/1127tt.jpg","",""
"null","../img/gs/1127gs.jpg","null","reveal","image-keyboard-response","108","468867","0.0-6.0-4.14","2410158","co37553","norming","","","","","","",""
"null","../img/tt/1127tt.jpg","null","mooney2","image-keyboard-response","109","470877","0.0-6.0-5.14","2410158","co37553","norming","","","","","","",""
"1977.3900000145659","","","post_reveal_questions","survey-likert","110","472856","0.0-6.0-6.14","2410158","co37553","norming","","","{""aha"":0}","[0]","../img/tt/1127tt.jpg","",""
"null","<div style=""font-size:60px;""> </div>","null","fixation","html-keyboard-response","111","473074","0.0-6.0-0.15","2410158","co37553","norming","","","","","","",""
"null","../img/tt/1012tt.jpg","null","mooney1","image-keyboard-response","112","476091","0.0-6.0-1.15","2410158","co37553","norming","","","","","","",""
"4447.044999920763","","","post_mooney1_questions","survey-likert","113","480541","0.0-6.0-2.15","2410158","co37553","norming","","","{""curiosity"":1,""confidence"":1}","[0,1]","../img/tt/1012tt.jpg","",""
"1426.3999999966472","","","recognition","survey-text","114","481972","0.0-6.0-3.15","2410158","co37553","norming","","","{""guess"":""horse""}","","../img/tt/1012tt.jpg","",""
"null","../img/gs/1012gs.jpg","null","reveal","image-keyboard-response","115","483977","0.0-6.0-4.15","2410158","co37553","norming","","","","","","",""
"null","../img/tt/1012tt.jpg","null","mooney2","image-keyboard-response","116","485984","0.0-6.0-5.15","2410158","co37553","norming","","","","","","",""
"2217.615000088699","","","post_reveal_questions","survey-likert","117","488204","0.0-6.0-6.15","2410158","co37553","norming","","","{""aha"":2}","[0]","../img/tt/1012tt.jpg","",""
"null","<div style=""font-size:60px;""> </div>","null","fixation","html-keyboard-response","118","488419","0.0-6.0-0.16","2410158","co37553","norming","","","","","","",""
"null","../img/tt/020tt.jpg","null","mooney1","image-keyboard-response","119","491436","0.0-6.0-1.16","2410158","co37553","norming","","","","","","",""
"5122.369999997318","","","post_mooney1_questions","survey-likert","120","496561","0.0-6.0-2.16","2410158","co37553","norming","","","{""curiosity"":3,""confidence"":2}","[0,1]","../img/tt/020tt.jpg","",""
"1043.0349999805912","","","recognition","survey-text","121","497609","0.0-6.0-3.16","2410158","co37553","norming","","","{""guess"":""dog""}","","../img/tt/020tt.jpg","",""
"null","../img/gs/020gs.jpg","null","reveal","image-keyboard-response","122","499616","0.0-6.0-4.16","2410158","co37553","norming","","","","","","",""
"null","../img/tt/020tt.jpg","null","mooney2","image-keyboard-response","123","501621","0.0-6.0-5.16","2410158","co37553","norming","","","","","","",""
"2143.995000049472","","","post_reveal_questions","survey-likert","124","503767","0.0-6.0-6.16","2410158","co37553","norming","","","{""aha"":0}","[0]","../img/tt/020tt.jpg","",""
"null","<div style=""font-size:60px;""> </div>","null","fixation","html-keyboard-response","125","503971","0.0-6.0-0.17","2410158","co37553","norming","","","","","","",""
"null","../img/tt/524tt.jpg","null","mooney1","image-keyboard-response","126","506987","0.0-6.0-1.17","2410158","co37553","norming","","","","","","",""
"5007.649999926798","","","post_mooney1_questions","survey-likert","127","511997","0.0-6.0-2.17","2410158","co37553","norming","","","{""curiosity"":2,""confidence"":3}","[0,1]","../img/tt/524tt.jpg","",""
"1401.9199999747798","","","recognition","survey-text","128","513404","0.0-6.0-3.17","2410158","co37553","norming","","","{""guess"":""cow""}","","../img/tt/524tt.jpg","",""
"null","../img/gs/524gs.jpg","null","reveal","image-keyboard-response","129","515409","0.0-6.0-4.17","2410158","co37553","norming","","","","","","",""
"null","../img/tt/524tt.jpg","null","mooney2","image-keyboard-response","130","517412","0.0-6.0-5.17","2410158","co37553","norming","","","","","","",""
"1854.5650000451133","","","post_reveal_questions","survey-likert","131","519269","0.0-6.0-6.17","2410158","co37553","norming","","","{""aha"":1}","[0]","../img/tt/524tt.jpg","",""
"null","<div style=""font-size:60px;""> </div>","null","fixation","html-keyboard-response","132","519482","0.0-6.0-0.18","2410158","co37553","norming","","","","","","",""
"null","../img/tt/063tt.jpg","null","mooney1","image-keyboard-response","133","522497","0.0-6.0-1.18","2410158","co37553","norming","","","","","","",""
"5836.119999992661","","","post_mooney1_questions","survey-likert","134","528336","0.0-6.0-2.18","2410158","co37553","norming","","","{""curiosity"":4,""confidence"":3}","[0,1]","../img/tt/063tt.jpg","",""
"3648.9149999106303","","","recognition","survey-text","135","531989","0.0-6.0-3.18","2410158","co37553","norming","","","{""guess"":""chips""}","","../img/tt/063tt.jpg","",""
"null","../img/gs/063gs.jpg","null","reveal","image-keyboard-response","136","534009","0.0-6.0-4.18","2410158","co37553","norming","","","","","","",""
"null","../img/tt/063tt.jpg","null","mooney2","image-keyboard-response","137","536014","0.0-6.0-5.18","2410158","co37553","norming","","","","","","",""
"1417.4149999162182","","","post_reveal_questions","survey-likert","138","537434","0.0-6.0-6.18","2410158","co37553","norming","","","{""aha"":3}","[0]","../img/tt/063tt.jpg","",""
"null","<div style=""font-size:60px;""> </div>","null","fixation","html-keyboard-response","139","537640","0.0-6.0-0.19","2410158","co37553","norming","","","","","","",""
"null","../img/tt/049tt.jpg","null","mooney1","image-keyboard-response","140","540644","0.0-6.0-1.19","2410158","co37553","norming","","","","","","",""
"4896.485000033863","","","post_mooney1_questions","survey-likert","141","545543","0.0-6.0-2.19","2410158","co37553","norming","","","{""curiosity"":4,""confidence"":2}","[0,1]","../img/tt/049tt.jpg","",""
"1391.5900000138208","","","recognition","survey-text","142","546937","0.0-6.0-3.19","2410158","co37553","norming","","","{""guess"":""girl""}","","../img/tt/049tt.jpg","",""
"null","../img/gs/049gs.jpg","null","reveal","image-keyboard-response","143","548949","0.0-6.0-4.19","2410158","co37553","norming","","","","","","",""
"null","../img/tt/049tt.jpg","null","mooney2","image-keyboard-response","144","550952","0.0-6.0-5.19","2410158","co37553","norming","","","","","","",""
"1319.3450000835583","","","post_reveal_questions","survey-likert","145","552273","0.0-6.0-6.19","2410158","co37553","norming","","","{""aha"":0}","[0]","../img/tt/049tt.jpg","",""
"null","<div style=""font-size:60px;""> </div>","null","fixation","html-keyboard-response","146","552478","0.0-6.0-0.20","2410158","co37553","norming","","","","","","",""
"null","../img/tt/440tt.jpg","null","mooney1","image-keyboard-response","147","555488","0.0-6.0-1.20","2410158","co37553","norming","","","","","","",""
"4883.399999933317","","","post_mooney1_questions","survey-likert","148","560374","0.0-6.0-2.20","2410158","co37553","norming","","","{""curiosity"":1,""confidence"":0}","[0,1]","../img/tt/440tt.jpg","",""
"785.5299999937415","","","recognition","survey-text","149","561165","0.0-6.0-3.20","2410158","co37553","norming","","","{""guess"":""""}","","../img/tt/440tt.jpg","",""
"null","../img/gs/440gs.jpg","null","reveal","image-keyboard-response","150","563171","0.0-6.0-4.20","2410158","co37553","norming","","","","","","",""
"null","../img/tt/440tt.jpg","null","mooney2","image-keyboard-response","151","565173","0.0-6.0-5.20","2410158","co37553","norming","","","","","","",""
"1517.935000010766","","","post_reveal_questions","survey-likert","152","566694","0.0-6.0-6.20","2410158","co37553","norming","","","{""aha"":4}","[0]","../img/tt/440tt.jpg","",""
"null","<div style=""font-size:60px;""> </div>","null","fixation","html-keyboard-response","153","566913","0.0-6.0-0.21","2410158","co37553","norming","","","","","","",""
"null","../img/tt/318tt.jpg","null","mooney1","image-keyboard-response","154","569918","0.0-6.0-1.21","2410158","co37553","norming","","","","","","",""
"4641.7099999962375","","","post_mooney1_questions","survey-likert","155","574562","0.0-6.0-2.21","2410158","co37553","norming","","","{""curiosity"":4,""confidence"":0}","[0,1]","../img/tt/318tt.jpg","",""
"1812.2000000439584","","","recognition","survey-text","156","576379","0.0-6.0-3.21","2410158","co37553","norming","","","{""guess"":""""}","","../img/tt/318tt.jpg","",""
"null","../img/gs/318gs.jpg","null","reveal","image-keyboard-response","157","578391","0.0-6.0-4.21","2410158","co37553","norming","","","","","","",""
"null","../img/tt/318tt.jpg","null","mooney2","image-keyboard-response","158","580398","0.0-6.0-5.21","2410158","co37553","norming","","","","","","",""
"1560.7949999393895","","","post_reveal_questions","survey-likert","159","581961","0.0-6.0-6.21","2410158","co37553","norming","","","{""aha"":0}","[0]","../img/tt/318tt.jpg","",""
"null","<div style=""font-size:60px;""> </div>","null","fixation","html-keyboard-response","160","582166","0.0-6.0-0.22","2410158","co37553","norming","","","","","","",""
"null","../img/tt/1061tt.jpg","null","mooney1","image-keyboard-response","161","585181","0.0-6.0-1.22","2410158","co37553","norming","","","","","","",""
"3716.1150000756606","","","post_mooney1_questions","survey-likert","162","588899","0.0-6.0-2.22","2410158","co37553","norming","","","{""curiosity"":2,""confidence"":1}","[0,1]","../img/tt/1061tt.jpg","",""
"9298.420000006445","","","recognition","survey-text","163","598201","0.0-6.0-3.22","2410158","co37553","norming","","","{""guess"":""een park""}","","../img/tt/1061tt.jpg","",""
"null","../img/gs/1061gs.jpg","null","reveal","image-keyboard-response","164","600218","0.0-6.0-4.22","2410158","co37553","norming","","","","","","",""
"null","../img/tt/1061tt.jpg","null","mooney2","image-keyboard-response","165","602219","0.0-6.0-5.22","2410158","co37553","norming","","","","","","",""
"5087.330000009388","","","post_reveal_questions","survey-likert","166","607309","0.0-6.0-6.22","2410158","co37553","norming","","","{""aha"":2}","[0]","../img/tt/1061tt.jpg","",""
"null","<div style=""font-size:60px;""> </div>","null","fixation","html-keyboard-response","167","607537","0.0-6.0-0.23","2410158","co37553","norming","","","","","","",""
"null","../img/tt/1307tt.jpg","null","mooney1","image-keyboard-response","168","610546","0.0-6.0-1.23","2410158","co37553","norming","","","","","","",""
"5193.484999937937","","","post_mooney1_questions","survey-likert","169","615743","0.0-6.0-2.23","2410158","co37553","norming","","","{""curiosity"":6,""confidence"":4}","[0,1]","../img/tt/1307tt.jpg","",""
"2515.639999997802","","","recognition","survey-text","170","618261","0.0-6.0-3.23","2410158","co37553","norming","","","{""guess"":""parachute""}","","../img/tt/1307tt.jpg","",""
"null","../img/gs/1307gs.jpg","null","reveal","image-keyboard-response","171","620274","0.0-6.0-4.23","2410158","co37553","norming","","","","","","",""
"null","../img/tt/1307tt.jpg","null","mooney2","image-keyboard-response","172","622287","0.0-6.0-5.23","2410158","co37553","norming","","","","","","",""
"3299.879999947734","","","post_reveal_questions","survey-likert","173","625589","0.0-6.0-6.23","2410158","co37553","norming","","","{""aha"":2}","[0]","../img/tt/1307tt.jpg","",""
"null","<div style=""font-size:60px;""> </div>","null","fixation","html-keyboard-response","174","625800","0.0-6.0-0.24","2410158","co37553","norming","","","","","","",""
"null","../img/tt/416tt.jpg","null","mooney1","image-keyboard-response","175","628810","0.0-6.0-1.24","2410158","co37553","norming","","","","","","",""
"4711.030000005849","","","post_mooney1_questions","survey-likert","176","633524","0.0-6.0-2.24","2410158","co37553","norming","","","{""curiosity"":4,""confidence"":1}","[0,1]","../img/tt/416tt.jpg","",""
"2413.9600000344217","","","recognition","survey-text","177","635942","0.0-6.0-3.24","2410158","co37553","norming","","","{""guess"":""ostrich""}","","../img/tt/416tt.jpg","",""
"null","../img/gs/416gs.jpg","null","reveal","image-keyboard-response","178","637945","0.0-6.0-4.24","2410158","co37553","norming","","","","","","",""
"null","../img/tt/416tt.jpg","null","mooney2","image-keyboard-response","179","639956","0.0-6.0-5.24","2410158","co37553","norming","","","","","","",""
"1843.4299998916686","","","post_reveal_questions","survey-likert","180","641802","0.0-6.0-6.24","2410158","co37553","norming","","","{""aha"":3}","[0]","../img/tt/416tt.jpg","",""
"null","<div style=""font-size:60px;""> </div>","null","fixation","html-keyboard-response","181","642017","0.0-6.0-0.25","2410158","co37553","norming","","","","","","",""
"null","../img/tt/1070tt.jpg","null","mooney1","image-keyboard-response","182","645026","0.0-6.0-1.25","2410158","co37553","norming","","","","","","",""
"3640.110000036657","","","post_mooney1_questions","survey-likert","183","648669","0.0-6.0-2.25","2410158","co37553","norming","","","{""curiosity"":4,""confidence"":4}","[0,1]","../img/tt/1070tt.jpg","",""
"1468.3700000168756","","","recognition","survey-text","184","650142","0.0-6.0-3.25","2410158","co37553","norming","","","{""guess"":""cake""}","","../img/tt/1070tt.jpg","",""
"null","../img/gs/1070gs.jpg","null","reveal","image-keyboard-response","185","652144","0.0-6.0-4.25","2410158","co37553","norming","","","","","","",""
"null","../img/tt/1070tt.jpg","null","mooney2","image-keyboard-response","186","654150","0.0-6.0-5.25","2410158","co37553","norming","","","","","","",""
"1559.3699999153614","","","post_reveal_questions","survey-likert","187","655712","0.0-6.0-6.25","2410158","co37553","norming","","","{""aha"":4}","[0]","../img/tt/1070tt.jpg","",""
"null","<div style=""font-size:60px;""> </div>","null","fixation","html-keyboard-response","188","655920","0.0-6.0-0.26","2410158","co37553","norming","","","","","","",""
"null","../img/tt/1087tt.jpg","null","mooney1","image-keyboard-response","189","658933","0.0-6.0-1.26","2410158","co37553","norming","","","","","","",""
"3348.5550000332296","","","post_mooney1_questions","survey-likert","190","662286","0.0-6.0-2.26","2410158","co37553","norming","","","{""curiosity"":4,""confidence"":2}","[0,1]","../img/tt/1087tt.jpg","",""
"2026.270000031218","","","recognition","survey-text","191","664315","0.0-6.0-3.26","2410158","co37553","norming","","","{""guess"":""cow""}","","../img/tt/1087tt.jpg","",""
"null","../img/gs/1087gs.jpg","null","reveal","image-keyboard-response","192","666316","0.0-6.0-4.26","2410158","co37553","norming","","","","","","",""
"null","../img/tt/1087tt.jpg","null","mooney2","image-keyboard-response","193","668321","0.0-6.0-5.26","2410158","co37553","norming","","","","","","",""
"2063.205000013113","","","post_reveal_questions","survey-likert","194","670387","0.0-6.0-6.26","2410158","co37553","norming","","","{""aha"":0}","[0]","../img/tt/1087tt.jpg","",""
"null","<div style=""font-size:60px;""> </div>","null","fixation","html-keyboard-response","195","670599","0.0-6.0-0.27","2410158","co37553","norming","","","","","","",""
"null","../img/tt/040tt.jpg","null","mooney1","image-keyboard-response","196","673613","0.0-6.0-1.27","2410158","co37553","norming","","","","","","",""
"2567.2200000844896","","","post_mooney1_questions","survey-likert","197","676183","0.0-6.0-2.27","2410158","co37553","norming","","","{""curiosity"":6,""confidence"":0}","[0,1]","../img/tt/040tt.jpg","",""
"2069.785000057891","","","recognition","survey-text","198","678256","0.0-6.0-3.27","2410158","co37553","norming","","","{""guess"":""bunny""}","","../img/tt/040tt.jpg","",""
"null","../img/gs/040gs.jpg","null","reveal","image-keyboard-response","199","680258","0.0-6.0-4.27","2410158","co37553","norming","","","","","","",""
"null","../img/tt/040tt.jpg","null","mooney2","image-keyboard-response","200","682270","0.0-6.0-5.27","2410158","co37553","norming","","","","","","",""
"1313.2800000021234","","","post_reveal_questions","survey-likert","201","683586","0.0-6.0-6.27","2410158","co37553","norming","","","{""aha"":0}","[0]","../img/tt/040tt.jpg","",""
"null","<div style=""font-size:60px;""> </div>","null","fixation","html-keyboard-response","202","683800","0.0-6.0-0.28","2410158","co37553","norming","","","","","","",""
"null","../img/tt/315tt.jpg","null","mooney1","image-keyboard-response","203","686803","0.0-6.0-1.28","2410158","co37553","norming","","","","","","",""
"3209.955000085756","","","post_mooney1_questions","survey-likert","204","690016","0.0-6.0-2.28","2410158","co37553","norming","","","{""curiosity"":0,""confidence"":0}","[0,1]","../img/tt/315tt.jpg","",""
"630.9449999826029","","","recognition","survey-text","205","690649","0.0-6.0-3.28","2410158","co37553","norming","","","{""guess"":""""}","","../img/tt/315tt.jpg","",""
"null","../img/gs/315gs.jpg","null","reveal","image-keyboard-response","206","692652","0.0-6.0-4.28","2410158","co37553","norming","","","","","","",""
"null","../img/tt/315tt.jpg","null","mooney2","image-keyboard-response","207","694658","0.0-6.0-5.28","2410158","co37553","norming","","","","","","",""
"3085.2700000396","","","post_reveal_questions","survey-likert","208","697745","0.0-6.0-6.28","2410158","co37553","norming","","","{""aha"":0}","[0]","../img/tt/315tt.jpg","",""
"null","<div style=""font-size:60px;""> </div>","null","fixation","html-keyboard-response","209","697957","0.0-6.0-0.29","2410158","co37553","norming","","","","","","",""
"null","../img/tt/468tt.jpg","null","mooney1","image-keyboard-response","210","700967","0.0-6.0-1.29","2410158","co37553","norming","","","","","","",""
"3184.205000055954","","","post_mooney1_questions","survey-likert","211","704154","0.0-6.0-2.29","2410158","co37553","norming","","","{""curiosity"":6,""confidence"":2}","[0,1]","../img/tt/468tt.jpg","",""
"2350.3250000067055","","","recognition","survey-text","212","706509","0.0-6.0-3.29","2410158","co37553","norming","","","{""guess"":""cowboy""}","","../img/tt/468tt.jpg","",""
"null","../img/gs/468gs.jpg","null","reveal","image-keyboard-response","213","708528","0.0-6.0-4.29","2410158","co37553","norming","","","","","","",""
"null","../img/tt/468tt.jpg","null","mooney2","image-keyboard-response","214","710536","0.0-6.0-5.29","2410158","co37553","norming","","","","","","",""
"2626.8350000027567","","","post_reveal_questions","survey-likert","215","713165","0.0-6.0-6.29","2410158","co37553","norming","","","{""aha"":0}","[0]","../img/tt/468tt.jpg","",""
"null","<div style=""font-size:60px;""> </div>","null","fixation","html-keyboard-response","216","713373","0.0-6.0-0.30","2410158","co37553","norming","","","","","","",""
"null","../img/tt/307tt.jpg","null","mooney1","image-keyboard-response","217","716377","0.0-6.0-1.30","2410158","co37553","norming","","","","","","",""
"3541.9000000692904","","","post_mooney1_questions","survey-likert","218","719922","0.0-6.0-2.30","2410158","co37553","norming","","","{""curiosity"":4,""confidence"":1}","[0,1]","../img/tt/307tt.jpg","",""
"3268.5749999945983","","","recognition","survey-text","219","723193","0.0-6.0-3.30","2410158","co37553","norming","","","{""guess"":""shoe""}","","../img/tt/307tt.jpg","",""
"null","../img/gs/307gs.jpg","null","reveal","image-keyboard-response","220","725205","0.0-6.0-4.30","2410158","co37553","norming","","","","","","",""
"null","../img/tt/307tt.jpg","null","mooney2","image-keyboard-response","221","727210","0.0-6.0-5.30","2410158","co37553","norming","","","","","","",""
"2026.8099999520928","","","post_reveal_questions","survey-likert","222","729239","0.0-6.0-6.30","2410158","co37553","norming","","","{""aha"":0}","[0]","../img/tt/307tt.jpg","",""
"null","<div style=""font-size:60px;""> </div>","null","fixation","html-keyboard-response","223","729450","0.0-6.0-0.31","2410158","co37553","norming","","","","","","",""
"null","../img/tt/1260tt.jpg","null","mooney1","image-keyboard-response","224","732469","0.0-6.0-1.31","2410158","co37553","norming","","","","","","",""
"5630.290000000969","","","post_mooney1_questions","survey-likert","225","738103","0.0-6.0-2.31","2410158","co37553","norming","","","{""curiosity"":3,""confidence"":0}","[0,1]","../img/tt/1260tt.jpg","",""
"1795.3149999957532","","","recognition","survey-text","226","739903","0.0-6.0-3.31","2410158","co37553","norming","","","{""guess"":""flower""}","","../img/tt/1260tt.jpg","",""
"null","../img/gs/1260gs.jpg","null","reveal","image-keyboard-response","227","741906","0.0-6.0-4.31","2410158","co37553","norming","","","","","","",""
"null","../img/tt/1260tt.jpg","null","mooney2","image-keyboard-response","228","743919","0.0-6.0-5.31","2410158","co37553","norming","","","","","","",""
"1193.375000031665","","","post_reveal_questions","survey-likert","229","745114","0.0-6.0-6.31","2410158","co37553","norming","","","{""aha"":0}","[0]","../img/tt/1260tt.jpg","",""
"null","<div style=""font-size:60px;""> </div>","null","fixation","html-keyboard-response","230","745319","0.0-6.0-0.32","2410158","co37553","norming","","","","","","",""
"null","../img/tt/1362tt.jpg","null","mooney1","image-keyboard-response","231","748338","0.0-6.0-1.32","2410158","co37553","norming","","","","","","",""
"6797.5599999772385","","","post_mooney1_questions","survey-likert","232","755138","0.0-6.0-2.32","2410158","co37553","norming","","","{""curiosity"":5,""confidence"":1}","[0,1]","../img/tt/1362tt.jpg","",""
"3075.0600000610575","","","recognition","survey-text","233","758215","0.0-6.0-3.32","2410158","co37553","norming","","","{""guess"":""platenspeler""}","","../img/tt/1362tt.jpg","",""
"null","../img/gs/1362gs.jpg","null","reveal","image-keyboard-response","234","760219","0.0-6.0-4.32","2410158","co37553","norming","","","","","","",""
"null","../img/tt/1362tt.jpg","null","mooney2","image-keyboard-response","235","762222","0.0-6.0-5.32","2410158","co37553","norming","","","","","","",""
"1055.0100000109524","","","post_reveal_questions","survey-likert","236","763279","0.0-6.0-6.32","2410158","co37553","norming","","","{""aha"":4}","[0]","../img/tt/1362tt.jpg","",""
"null","<div style=""font-size:60px;""> </div>","null","fixation","html-keyboard-response","237","763487","0.0-6.0-0.33","2410158","co37553","norming","","","","","","",""
"null","../img/tt/1211tt.jpg","null","mooney1","image-keyboard-response","238","766504","0.0-6.0-1.33","2410158","co37553","norming","","","","","","",""
"3183.584999991581","","","post_mooney1_questions","survey-likert","239","769691","0.0-6.0-2.33","2410158","co37553","norming","","","{""curiosity"":2,""confidence"":0}","[0,1]","../img/tt/1211tt.jpg","",""
"2163.7799999443814","","","recognition","survey-text","240","771859","0.0-6.0-3.33","2410158","co37553","norming","","","{""guess"":""tree""}","","../img/tt/1211tt.jpg","",""
"null","../img/gs/1211gs.jpg","null","reveal","image-keyboard-response","241","773863","0.0-6.0-4.33","2410158","co37553","norming","","","","","","",""
"null","../img/tt/1211tt.jpg","null","mooney2","image-keyboard-response","242","775865","0.0-6.0-5.33","2410158","co37553","norming","","","","","","",""
"1372.4249999504536","","","post_reveal_questions","survey-likert","243","777239","0.0-6.0-6.33","2410158","co37553","norming","","","{""aha"":5}","[0]","../img/tt/1211tt.jpg","",""
"null","<div style=""font-size:60px;""> </div>","null","fixation","html-keyboard-response","244","777450","0.0-6.0-0.34","2410158","co37553","norming","","","","","","",""
"null","../img/tt/055tt.jpg","null","mooney1","image-keyboard-response","245","780464","0.0-6.0-1.34","2410158","co37553","norming","","","","","","",""
"4088.5299999499694","","","post_mooney1_questions","survey-likert","246","784555","0.0-6.0-2.34","2410158","co37553","norming","","","{""curiosity"":0,""confidence"":1}","[0,1]","../img/tt/055tt.jpg","",""
"2520.2249999856576","","","recognition","survey-text","247","787077","0.0-6.0-3.34","2410158","co37553","norming","","","{""guess"":""cow""}","","../img/tt/055tt.jpg","",""
"null","../img/gs/055gs.jpg","null","reveal","image-keyboard-response","248","789084","0.0-6.0-4.34","2410158","co37553","norming","","","","","","",""
"null","../img/tt/055tt.jpg","null","mooney2","image-keyboard-response","249","791090","0.0-6.0-5.34","2410158","co37553","norming","","","","","","",""
"2983.9699999429286","","","post_reveal_questions","survey-likert","250","794076","0.0-6.0-6.34","2410158","co37553","norming","","","{""aha"":2}","[0]","../img/tt/055tt.jpg","",""
"null","<div style=""font-size:60px;""> </div>","null","fixation","html-keyboard-response","251","794280","0.0-6.0-0.35","2410158","co37553","norming","","","","","","",""
"null","../img/tt/080tt.jpg","null","mooney1","image-keyboard-response","252","797299","0.0-6.0-1.35","2410158","co37553","norming","","","","","","",""
"3865.2599999913946","","","post_mooney1_questions","survey-likert","253","801167","0.0-6.0-2.35","2410158","co37553","norming","","","{""curiosity"":3,""confidence"":2}","[0,1]","../img/tt/080tt.jpg","",""
"3358.530000085011","","","recognition","survey-text","254","804530","0.0-6.0-3.35","2410158","co37553","norming","","","{""guess"":""paddenstoel""}","","../img/tt/080tt.jpg","",""
"null","../img/gs/080gs.jpg","null","reveal","image-keyboard-response","255","806540","0.0-6.0-4.35","2410158","co37553","norming","","","","","","",""
"null","../img/tt/080tt.jpg","null","mooney2","image-keyboard-response","256","808554","0.0-6.0-5.35","2410158","co37553","norming","","","","","","",""
"1701.9599999766797","","","post_reveal_questions","survey-likert","257","810258","0.0-6.0-6.35","2410158","co37553","norming","","","{""aha"":4}","[0]","../img/tt/080tt.jpg","",""
"null","<div style=""font-size:60px;""> </div>","null","fixation","html-keyboard-response","258","810477","0.0-6.0-0.36","2410158","co37553","norming","","","","","","",""
"null","../img/tt/1205tt.jpg","null","mooney1","image-keyboard-response","259","813481","0.0-6.0-1.36","2410158","co37553","norming","","","","","","",""
"4852.889999980107","","","post_mooney1_questions","survey-likert","260","818337","0.0-6.0-2.36","2410158","co37553","norming","","","{""curiosity"":2,""confidence"":0}","[0,1]","../img/tt/1205tt.jpg","",""
"1345.9799999836832","","","recognition","survey-text","261","819685","0.0-6.0-3.36","2410158","co37553","norming","","","{""guess"":""""}","","../img/tt/1205tt.jpg","",""
"null","../img/gs/1205gs.jpg","null","reveal","image-keyboard-response","262","821701","0.0-6.0-4.36","2410158","co37553","norming","","","","","","",""
"null","../img/tt/1205tt.jpg","null","mooney2","image-keyboard-response","263","823705","0.0-6.0-5.36","2410158","co37553","norming","","","","","","",""
"2246.9249999849126","","","post_reveal_questions","survey-likert","264","825955","0.0-6.0-6.36","2410158","co37553","norming","","","{""aha"":1}","[0]","../img/tt/1205tt.jpg","",""
"null","<div style=""font-size:60px;""> </div>","null","fixation","html-keyboard-response","265","826158","0.0-6.0-0.37","2410158","co37553","norming","","","","","","",""
"null","../img/tt/1239tt.jpg","null","mooney1","image-keyboard-response","266","829162","0.0-6.0-1.37","2410158","co37553","norming","","","","","","",""
"3396.21499995701","","","post_mooney1_questions","survey-likert","267","832561","0.0-6.0-2.37","2410158","co37553","norming","","","{""curiosity"":4,""confidence"":5}","[0,1]","../img/tt/1239tt.jpg","",""
"1542.8499999688938","","","recognition","survey-text","268","834106","0.0-6.0-3.37","2410158","co37553","norming","","","{""guess"":""dog""}","","../img/tt/1239tt.jpg","",""
"null","../img/gs/1239gs.jpg","null","reveal","image-keyboard-response","269","836123","0.0-6.0-4.37","2410158","co37553","norming","","","","","","",""
"null","../img/tt/1239tt.jpg","null","mooney2","image-keyboard-response","270","838127","0.0-6.0-5.37","2410158","co37553","norming","","","","","","",""
"4514.005000004545","","","post_reveal_questions","survey-likert","271","842644","0.0-6.0-6.37","2410158","co37553","norming","","","{""aha"":0}","[0]","../img/tt/1239tt.jpg","",""
"null","<div style=""font-size:60px;""> </div>","null","fixation","html-keyboard-response","272","842847","0.0-6.0-0.38","2410158","co37553","norming","","","","","","",""
"null","../img/tt/1175tt.jpg","null","mooney1","image-keyboard-response","273","845858","0.0-6.0-1.38","2410158","co37553","norming","","","","","","",""
"7631.634999997914","","","post_mooney1_questions","survey-likert","274","853492","0.0-6.0-2.38","2410158","co37553","norming","","","{""curiosity"":1,""confidence"":0}","[0,1]","../img/tt/1175tt.jpg","",""
"506.2899999320507","","","recognition","survey-text","275","854002","0.0-6.0-3.38","2410158","co37553","norming","","","{""guess"":""""}","","../img/tt/1175tt.jpg","",""
"null","../img/gs/1175gs.jpg","null","reveal","image-keyboard-response","276","856016","0.0-6.0-4.38","2410158","co37553","norming","","","","","","",""
"null","../img/tt/1175tt.jpg","null","mooney2","image-keyboard-response","277","858019","0.0-6.0-5.38","2410158","co37553","norming","","","","","","",""
"1664.3449999392033","","","post_reveal_questions","survey-likert","278","859685","0.0-6.0-6.38","2410158","co37553","norming","","","{""aha"":1}","[0]","../img/tt/1175tt.jpg","",""
"null","<div style=""font-size:60px;""> </div>","null","fixation","html-keyboard-response","279","859897","0.0-6.0-0.39","2410158","co37553","norming","","","","","","",""
"null","../img/tt/584tt.jpg","null","mooney1","image-keyboard-response","280","862908","0.0-6.0-1.39","2410158","co37553","norming","","","","","","",""
"5475.775000057183","","","post_mooney1_questions","survey-likert","281","868385","0.0-6.0-2.39","2410158","co37553","norming","","","{""curiosity"":4,""confidence"":1}","[0,1]","../img/tt/584tt.jpg","",""
"3393.5899999924004","","","recognition","survey-text","282","871781","0.0-6.0-3.39","2410158","co37553","norming","","","{""guess"":""flower""}","","../img/tt/584tt.jpg","",""
"null","../img/gs/584gs.jpg","null","reveal","image-keyboard-response","283","873795","0.0-6.0-4.39","2410158","co37553","norming","","","","","","",""
"null","../img/tt/584tt.jpg","null","mooney2","image-keyboard-response","284","875803","0.0-6.0-5.39","2410158","co37553","norming","","","","","","",""
"4759.875000105239","","","post_reveal_questions","survey-likert","285","880565","0.0-6.0-6.39","2410158","co37553","norming","","","{""aha"":0}","[0]","../img/tt/584tt.jpg","",""
"null","<div style=""font-size:60px;""> </div>","null","fixation","html-keyboard-response","286","880778","0.0-6.0-0.40","2410158","co37553","norming","","","","","","",""
"null","../img/tt/270tt.jpg","null","mooney1","image-keyboard-response","287","883792","0.0-6.0-1.40","2410158","co37553","norming","","","","","","",""
"4563.910000026226","","","post_mooney1_questions","survey-likert","288","888359","0.0-6.0-2.40","2410158","co37553","norming","","","{""curiosity"":2,""confidence"":0}","[0,1]","../img/tt/270tt.jpg","",""
"488.9800000237301","","","recognition","survey-text","289","888850","0.0-6.0-3.40","2410158","co37553","norming","","","{""guess"":""""}","","../img/tt/270tt.jpg","",""
"null","../img/gs/270gs.jpg","null","reveal","image-keyboard-response","290","890858","0.0-6.0-4.40","2410158","co37553","norming","","","","","","",""
"null","../img/tt/270tt.jpg","null","mooney2","image-keyboard-response","291","892868","0.0-6.0-5.40","2410158","co37553","norming","","","","","","",""
"1876.8999999156222","","","post_reveal_questions","survey-likert","292","894747","0.0-6.0-6.40","2410158","co37553","norming","","","{""aha"":0}","[0]","../img/tt/270tt.jpg","",""
"null","<div style=""font-size:60px;""> </div>","null","fixation","html-keyboard-response","293","894950","0.0-6.0-0.41","2410158","co37553","norming","","","","","","",""
"null","../img/tt/497tt.jpg","null","mooney1","image-keyboard-response","294","897959","0.0-6.0-1.41","2410158","co37553","norming","","","","","","",""
"3714.9549999739975","","","post_mooney1_questions","survey-likert","295","901677","0.0-6.0-2.41","2410158","co37553","norming","","","{""curiosity"":1,""confidence"":0}","[0,1]","../img/tt/497tt.jpg","",""
"472.68999996595085","","","recognition","survey-text","296","902154","0.0-6.0-3.41","2410158","co37553","norming","","","{""guess"":""""}","","../img/tt/497tt.jpg","",""
"null","../img/gs/497gs.jpg","null","reveal","image-keyboard-response","297","904158","0.0-6.0-4.41","2410158","co37553","norming","","","","","","",""
"null","../img/tt/497tt.jpg","null","mooney2","image-keyboard-response","298","906165","0.0-6.0-5.41","2410158","co37553","norming","","","","","","",""
"2766.4599999552593","","","post_reveal_questions","survey-likert","299","908933","0.0-6.0-6.41","2410158","co37553","norming","","","{""aha"":0}","[0]","../img/tt/497tt.jpg","",""
"null","<div style=""font-size:60px;""> </div>","null","fixation","html-keyboard-response","300","909138","0.0-6.0-0.42","2410158","co37553","norming","","","","","","",""
"null","../img/tt/477tt.jpg","null","mooney1","image-keyboard-response","301","912154","0.0-6.0-1.42","2410158","co37553","norming","","","","","","",""
"5095.4449999844655","","","post_mooney1_questions","survey-likert","302","917252","0.0-6.0-2.42","2410158","co37553","norming","","","{""curiosity"":2,""confidence"":0}","[0,1]","../img/tt/477tt.jpg","",""
"2167.2600000165403","","","recognition","survey-text","303","919424","0.0-6.0-3.42","2410158","co37553","norming","","","{""guess"":""forest""}","","../img/tt/477tt.jpg","",""
"null","../img/gs/477gs.jpg","null","reveal","image-keyboard-response","304","921426","0.0-6.0-4.42","2410158","co37553","norming","","","","","","",""
"null","../img/tt/477tt.jpg","null","mooney2","image-keyboard-response","305","923433","0.0-6.0-5.42","2410158","co37553","norming","","","","","","",""
"1100.8549999678507","","","post_reveal_questions","survey-likert","306","924536","0.0-6.0-6.42","2410158","co37553","norming","","","{""aha"":2}","[0]","../img/tt/477tt.jpg","",""
"null","<div style=""font-size:60px;""> </div>","null","fixation","html-keyboard-response","307","924746","0.0-6.0-0.43","2410158","co37553","norming","","","","","","",""
"null","../img/tt/1188tt.jpg","null","mooney1","image-keyboard-response","308","927752","0.0-6.0-1.43","2410158","co37553","norming","","","","","","",""
"8623.870000010356","","","post_mooney1_questions","survey-likert","309","936379","0.0-6.0-2.43","2410158","co37553","norming","","","{""curiosity"":4,""confidence"":0}","[0,1]","../img/tt/1188tt.jpg","",""
"2191.124999895692","","","recognition","survey-text","310","938573","0.0-6.0-3.43","2410158","co37553","norming","","","{""guess"":""cloak""}","","../img/tt/1188tt.jpg","",""
"null","../img/gs/1188gs.jpg","null","reveal","image-keyboard-response","311","940592","0.0-6.0-4.43","2410158","co37553","norming","","","","","","",""
"null","../img/tt/1188tt.jpg","null","mooney2","image-keyboard-response","312","942604","0.0-6.0-5.43","2410158","co37553","norming","","","","","","",""
"1176.255000056699","","","post_reveal_questions","survey-likert","313","943783","0.0-6.0-6.43","2410158","co37553","norming","","","{""aha"":2}","[0]","../img/tt/1188tt.jpg","",""
"null","<div style=""font-size:60px;""> </div>","null","fixation","html-keyboard-response","314","943986","0.0-6.0-0.44","2410158","co37553","norming","","","","","","",""
"null","../img/tt/1227tt.jpg","null","mooney1","image-keyboard-response","315","947010","0.0-6.0-1.44","2410158","co37553","norming","","","","","","",""
"3656.595000065863","","","post_mooney1_questions","survey-likert","316","950670","0.0-6.0-2.44","2410158","co37553","norming","","","{""curiosity"":3,""confidence"":0}","[0,1]","../img/tt/1227tt.jpg","",""
"689.4149999134243","","","recognition","survey-text","317","951364","0.0-6.0-3.44","2410158","co37553","norming","","","{""guess"":""""}","","../img/tt/1227tt.jpg","",""
"null","../img/gs/1227gs.jpg","null","reveal","image-keyboard-response","318","953382","0.0-6.0-4.44","2410158","co37553","norming","","","","","","",""
"null","../img/tt/1227tt.jpg","null","mooney2","image-keyboard-response","319","955388","0.0-6.0-5.44","2410158","co37553","norming","","","","","","",""
"1704.6550000086427","","","post_reveal_questions","survey-likert","320","957095","0.0-6.0-6.44","2410158","co37553","norming","","","{""aha"":1}","[0]","../img/tt/1227tt.jpg","",""
"null","<div style=""font-size:60px;""> </div>","null","fixation","html-keyboard-response","321","957314","0.0-6.0-0.45","2410158","co37553","norming","","","","","","",""
"null","../img/tt/056tt.jpg","null","mooney1","image-keyboard-response","322","960319","0.0-6.0-1.45","2410158","co37553","norming","","","","","","",""
"2394.9450000654906","","","post_mooney1_questions","survey-likert","323","962717","0.0-6.0-2.45","2410158","co37553","norming","","","{""curiosity"":0,""confidence"":0}","[0,1]","../img/tt/056tt.jpg","",""
"450.89500001631677","","","recognition","survey-text","324","963170","0.0-6.0-3.45","2410158","co37553","norming","","","{""guess"":""""}","","../img/tt/056tt.jpg","",""
"null","../img/gs/056gs.jpg","null","reveal","image-keyboard-response","325","965173","0.0-6.0-4.45","2410158","co37553","norming","","","","","","",""
"null","../img/tt/056tt.jpg","null","mooney2","image-keyboard-response","326","967180","0.0-6.0-5.45","2410158","co37553","norming","","","","","","",""
"1025.969999958761","","","post_reveal_questions","survey-likert","327","968208","0.0-6.0-6.45","2410158","co37553","norming","","","{""aha"":0}","[0]","../img/tt/056tt.jpg","",""
"null","<div style=""font-size:60px;""> </div>","null","fixation","html-keyboard-response","328","968415","0.0-6.0-0.46","2410158","co37553","norming","","","","","","",""
"null","../img/tt/1118tt.jpg","null","mooney1","image-keyboard-response","329","971430","0.0-6.0-1.46","2410158","co37553","norming","","","","","","",""
"3809.2049999395385","","","post_mooney1_questions","survey-likert","330","975241","0.0-6.0-2.46","2410158","co37553","norming","","","{""curiosity"":3,""confidence"":0}","[0,1]","../img/tt/1118tt.jpg","",""
"434.9299999885261","","","recognition","survey-text","331","975679","0.0-6.0-3.46","2410158","co37553","norming","","","{""guess"":""""}","","../img/tt/1118tt.jpg","",""
"null","../img/gs/1118gs.jpg","null","reveal","image-keyboard-response","332","977692","0.0-6.0-4.46","2410158","co37553","norming","","","","","","",""
"null","../img/tt/1118tt.jpg","null","mooney2","image-keyboard-response","333","979702","0.0-6.0-5.46","2410158","co37553","norming","","","","","","",""
"1702.3349999217317","","","post_reveal_questions","survey-likert","334","981407","0.0-6.0-6.46","2410158","co37553","norming","","","{""aha"":0}","[0]","../img/tt/1118tt.jpg","",""
"null","<div style=""font-size:60px;""> </div>","null","fixation","html-keyboard-response","335","981615","0.0-6.0-0.47","2410158","co37553","norming","","","","","","",""
"null","../img/tt/580tt.jpg","null","mooney1","image-keyboard-response","336","984618","0.0-6.0-1.47","2410158","co37553","norming","","","","","","",""
"3739.7799999453127","","","post_mooney1_questions","survey-likert","337","988361","0.0-6.0-2.47","2410158","co37553","norming","","","{""curiosity"":6,""confidence"":0}","[0,1]","../img/tt/580tt.jpg","",""
"1711.0600000014529","","","recognition","survey-text","338","990076","0.0-6.0-3.47","2410158","co37553","norming","","","{""guess"":""tiger""}","","../img/tt/580tt.jpg","",""
"null","../img/gs/580gs.jpg","null","reveal","image-keyboard-response","339","992084","0.0-6.0-4.47","2410158","co37553","norming","","","","","","",""
"null","../img/tt/580tt.jpg","null","mooney2","image-keyboard-response","340","994094","0.0-6.0-5.47","2410158","co37553","norming","","","","","","",""
"1287.984999944456","","","post_reveal_questions","survey-likert","341","995385","0.0-6.0-6.47","2410158","co37553","norming","","","{""aha"":0}","[0]","../img/tt/580tt.jpg","",""
"null","<div style=""font-size:60px;""> </div>","null","fixation","html-keyboard-response","342","995596","0.0-6.0-0.48","2410158","co37553","norming","","","","","","",""
"null","../img/tt/091tt.jpg","null","mooney1","image-keyboard-response","343","998601","0.0-6.0-1.48","2410158","co37553","norming","","","","","","",""
"3518.3699999470264","","","post_mooney1_questions","survey-likert","344","1002123","0.0-6.0-2.48","2410158","co37553","norming","","","{""curiosity"":2,""confidence"":0}","[0,1]","../img/tt/091tt.jpg","",""
"4103.385000023991","","","recognition","survey-text","345","1006228","0.0-6.0-3.48","2410158","co37553","norming","","","{""guess"":""crocodile""}","","../img/tt/091tt.jpg","",""
"null","../img/gs/091gs.jpg","null","reveal","image-keyboard-response","346","1008234","0.0-6.0-4.48","2410158","co37553","norming","","","","","","",""
"null","../img/tt/091tt.jpg","null","mooney2","image-keyboard-response","347","1010240","0.0-6.0-5.48","2410158","co37553","norming","","","","","","",""
"1213.285000063479","","","post_reveal_questions","survey-likert","348","1011456","0.0-6.0-6.48","2410158","co37553","norming","","","{""aha"":2}","[0]","../img/tt/091tt.jpg","",""
"null","<div style=""font-size:60px;""> </div>","null","fixation","html-keyboard-response","349","1011671","0.0-6.0-0.49","2410158","co37553","norming","","","","","","",""
"null","../img/tt/1247tt.jpg","null","mooney1","image-keyboard-response","350","1014685","0.0-6.0-1.49","2410158","co37553","norming","","","","","","",""
"3604.7050000634044","","","post_mooney1_questions","survey-likert","351","1018294","0.0-6.0-2.49","2410158","co37553","norming","","","{""curiosity"":4,""confidence"":0}","[0,1]","../img/tt/1247tt.jpg","",""
"2350.250000017695","","","recognition","survey-text","352","1020647","0.0-6.0-3.49","2410158","co37553","norming","","","{""guess"":""tiger""}","","../img/tt/1247tt.jpg","",""
"null","../img/gs/1247gs.jpg","null","reveal","image-keyboard-response","353","1022649","0.0-6.0-4.49","2410158","co37553","norming","","","","","","",""
"null","../img/tt/1247tt.jpg","null","mooney2","image-keyboard-response","354","1024663","0.0-6.0-5.49","2410158","co37553","norming","","","","","","",""
"1215.654999949038","","","post_reveal_questions","survey-likert","355","1025881","0.0-6.0-6.49","2410158","co37553","norming","","","{""aha"":5}","[0]","../img/tt/1247tt.jpg","",""
"null","<div style=""font-size:60px;""> </div>","null","fixation","html-keyboard-response","356","1026093","0.0-6.0-0.50","2410158","co37553","norming","","","","","","",""
"null","../img/tt/108tt.jpg","null","mooney1","image-keyboard-response","357","1029102","0.0-6.0-1.50","2410158","co37553","norming","","","","","","",""
"2219.2550000036135","","","post_mooney1_questions","survey-likert","358","1031324","0.0-6.0-2.50","2410158","co37553","norming","","","{""curiosity"":6,""confidence"":0}","[0,1]","../img/tt/108tt.jpg","",""
"414.4249999662861","","","recognition","survey-text","359","1031743","0.0-6.0-3.50","2410158","co37553","norming","","","{""guess"":""""}","","../img/tt/108tt.jpg","",""
"null","../img/gs/108gs.jpg","null","reveal","image-keyboard-response","360","1033756","0.0-6.0-4.50","2410158","co37553","norming","","","","","","",""
"null","../img/tt/108tt.jpg","null","mooney2","image-keyboard-response","361","1035761","0.0-6.0-5.50","2410158","co37553","norming","","","","","","",""
"1225.0749999657273","","","post_reveal_questions","survey-likert","362","1036988","0.0-6.0-6.50","2410158","co37553","norming","","","{""aha"":0}","[0]","../img/tt/108tt.jpg","",""
"null","<div style=""font-size:60px;""> </div>","null","fixation","html-keyboard-response","363","1037205","0.0-6.0-0.51","2410158","co37553","norming","","","","","","",""
"null","../img/tt/1126tt.jpg","null","mooney1","image-keyboard-response","364","1040212","0.0-6.0-1.51","2410158","co37553","norming","","","","","","",""
"3648.0000000447035","","","post_mooney1_questions","survey-likert","365","1043863","0.0-6.0-2.51","2410158","co37553","norming","","","{""curiosity"":6,""confidence"":0}","[0,1]","../img/tt/1126tt.jpg","",""
"6910.759999998845","","","recognition","survey-text","366","1050776","0.0-6.0-3.51","2410158","co37553","norming","","","{""guess"":""mountain""}","","../img/tt/1126tt.jpg","",""
"null","../img/gs/1126gs.jpg","null","reveal","image-keyboard-response","367","1052792","0.0-6.0-4.51","2410158","co37553","norming","","","","","","",""
"null","../img/tt/1126tt.jpg","null","mooney2","image-keyboard-response","368","1054796","0.0-6.0-5.51","2410158","co37553","norming","","","","","","",""
"1230.5900000501424","","","post_reveal_questions","survey-likert","369","1056030","0.0-6.0-6.51","2410158","co37553","norming","","","{""aha"":4}","[0]","../img/tt/1126tt.jpg","",""
"null","<div style=""font-size:60px;""> </div>","null","fixation","html-keyboard-response","370","1056232","0.0-6.0-0.52","2410158","co37553","norming","","","","","","",""
"null","../img/tt/1234tt.jpg","null","mooney1","image-keyboard-response","371","1059240","0.0-6.0-1.52","2410158","co37553","norming","","","","","","",""
"2248.5399999422953","","","post_mooney1_questions","survey-likert","372","1061492","0.0-6.0-2.52","2410158","co37553","norming","","","{""curiosity"":6,""confidence"":2}","[0,1]","../img/tt/1234tt.jpg","",""
"2028.3800000324845","","","recognition","survey-text","373","1063522","0.0-6.0-3.52","2410158","co37553","norming","","","{""guess"":""duck""}","","../img/tt/1234tt.jpg","",""
"null","../img/gs/1234gs.jpg","null","reveal","image-keyboard-response","374","1065538","0.0-6.0-4.52","2410158","co37553","norming","","","","","","",""
"null","../img/tt/1234tt.jpg","null","mooney2","image-keyboard-response","375","1067554","0.0-6.0-5.52","2410158","co37553","norming","","","","","","",""
"1145.6699999980628","","","post_reveal_questions","survey-likert","376","1068702","0.0-6.0-6.52","2410158","co37553","norming","","","{""aha"":3}","[0]","../img/tt/1234tt.jpg","",""
"null","<div style=""font-size:60px;""> </div>","null","fixation","html-keyboard-response","377","1068919","0.0-6.0-0.53","2410158","co37553","norming","","","","","","",""
"null","../img/tt/060tt.jpg","null","mooney1","image-keyboard-response","378","1071925","0.0-6.0-1.53","2410158","co37553","norming","","","","","","",""
"3711.0849999589846","","","post_mooney1_questions","survey-likert","379","1075639","0.0-6.0-2.53","2410158","co37553","norming","","","{""curiosity"":6,""confidence"":1}","[0,1]","../img/tt/060tt.jpg","",""
"2136.225000023842","","","recognition","survey-text","380","1077780","0.0-6.0-3.53","2410158","co37553","norming","","","{""guess"":""bread""}","","../img/tt/060tt.jpg","",""
"null","../img/gs/060gs.jpg","null","reveal","image-keyboard-response","381","1079791","0.0-6.0-4.53","2410158","co37553","norming","","","","","","",""
"null","../img/tt/060tt.jpg","null","mooney2","image-keyboard-response","382","1081805","0.0-6.0-5.53","2410158","co37553","norming","","","","","","",""
"1799.269999959506","","","post_reveal_questions","survey-likert","383","1083607","0.0-6.0-6.53","2410158","co37553","norming","","","{""aha"":0}","[0]","../img/tt/060tt.jpg","",""
"null","<div style=""font-size:60px;""> </div>","null","fixation","html-keyboard-response","384","1083823","0.0-6.0-0.54","2410158","co37553","norming","","","","","","",""
"null","../img/tt/1078tt.jpg","null","mooney1","image-keyboard-response","385","1086840","0.0-6.0-1.54","2410158","co37553","norming","","","","","","",""
"9769.790000049397","","","post_mooney1_questions","survey-likert","386","1096613","0.0-6.0-2.54","2410158","co37553","norming","","","{""curiosity"":2,""confidence"":6}","[0,1]","../img/tt/1078tt.jpg","",""
"11359.424999915063","","","recognition","survey-text","387","1107975","0.0-6.0-3.54","2410158","co37553","norming","","","{""guess"":""skateboarder""}","","../img/tt/1078tt.jpg","",""
"null","../img/gs/1078gs.jpg","null","reveal","image-keyboard-response","388","1109989","0.0-6.0-4.54","2410158","co37553","norming","","","","","","",""
"null","../img/tt/1078tt.jpg","null","mooney2","image-keyboard-response","389","1112003","0.0-6.0-5.54","2410158","co37553","norming","","","","","","",""
"4842.005000100471","","","post_reveal_questions","survey-likert","390","1116848","0.0-6.0-6.54","2410158","co37553","norming","","","{""aha"":5}","[0]","../img/tt/1078tt.jpg","",""
"null","<div style=""font-size:60px;""> </div>","null","fixation","html-keyboard-response","391","1117060","0.0-6.0-0.55","2410158","co37553","norming","","","","","","",""
"null","../img/tt/1159tt.jpg","null","mooney1","image-keyboard-response","392","1120063","0.0-6.0-1.55","2410158","co37553","norming","","","","","","",""
"2916.7400000151247","","","post_mooney1_questions","survey-likert","393","1122983","0.0-6.0-2.55","2410158","co37553","norming","","","{""curiosity"":5,""confidence"":0}","[0,1]","../img/tt/1159tt.jpg","",""
"1673.450000002049","","","recognition","survey-text","394","1124661","0.0-6.0-3.55","2410158","co37553","norming","","","{""guess"":""wall""}","","../img/tt/1159tt.jpg","",""
"null","../img/gs/1159gs.jpg","null","reveal","image-keyboard-response","395","1126675","0.0-6.0-4.55","2410158","co37553","norming","","","","","","",""
"null","../img/tt/1159tt.jpg","null","mooney2","image-keyboard-response","396","1128677","0.0-6.0-5.55","2410158","co37553","norming","","","","","","",""
"1210.674999980256","","","post_reveal_questions","survey-likert","397","1129891","0.0-6.0-6.55","2410158","co37553","norming","","","{""aha"":1}","[0]","../img/tt/1159tt.jpg","",""
"null","<div style=""font-size:60px;""> </div>","null","fixation","html-keyboard-response","398","1130104","0.0-6.0-0.56","2410158","co37553","norming","","","","","","",""
"null","../img/tt/296tt.jpg","null","mooney1","image-keyboard-response","399","1133115","0.0-6.0-1.56","2410158","co37553","norming","","","","","","",""
"4329.219999955967","","","post_mooney1_questions","survey-likert","400","1137448","0.0-6.0-2.56","2410158","co37553","norming","","","{""curiosity"":5,""confidence"":1}","[0,1]","../img/tt/296tt.jpg","",""
"2381.6749999532476","","","recognition","survey-text","401","1139834","0.0-6.0-3.56","2410158","co37553","norming","","","{""guess"":""ligbed""}","","../img/tt/296tt.jpg","",""
"null","../img/gs/296gs.jpg","null","reveal","image-keyboard-response","402","1141847","0.0-6.0-4.56","2410158","co37553","norming","","","","","","",""
"null","../img/tt/296tt.jpg","null","mooney2","image-keyboard-response","403","1143858","0.0-6.0-5.56","2410158","co37553","norming","","","","","","",""
"1084.80499999132","","","post_reveal_questions","survey-likert","404","1144945","0.0-6.0-6.56","2410158","co37553","norming","","","{""aha"":4}","[0]","../img/tt/296tt.jpg","",""
"null","<div style=""font-size:60px;""> </div>","null","fixation","html-keyboard-response","405","1145148","0.0-6.0-0.57","2410158","co37553","norming","","","","","","",""
"null","../img/tt/081tt.jpg","null","mooney1","image-keyboard-response","406","1148150","0.0-6.0-1.57","2410158","co37553","norming","","","","","","",""
"2567.4749999307096","","","post_mooney1_questions","survey-likert","407","1150720","0.0-6.0-2.57","2410158","co37553","norming","","","{""curiosity"":4,""confidence"":1}","[0,1]","../img/tt/081tt.jpg","",""
"2264.5699999993667","","","recognition","survey-text","408","1152987","0.0-6.0-3.57","2410158","co37553","norming","","","{""guess"":""frog""}","","../img/tt/081tt.jpg","",""
"null","../img/gs/081gs.jpg","null","reveal","image-keyboard-response","409","1154996","0.0-6.0-4.57","2410158","co37553","norming","","","","","","",""
"null","../img/tt/081tt.jpg","null","mooney2","image-keyboard-response","410","1157022","0.0-6.0-5.57","2410158","co37553","norming","","","","","","",""
"1763.6749999364838","","","post_reveal_questions","survey-likert","411","1158788","0.0-6.0-6.57","2410158","co37553","norming","","","{""aha"":4}","[0]","../img/tt/081tt.jpg","",""
"null","<div style=""font-size:60px;""> </div>","null","fixation","html-keyboard-response","412","1158996","0.0-6.0-0.58","2410158","co37553","norming","","","","","","",""
"null","../img/tt/1148tt.jpg","null","mooney1","image-keyboard-response","413","1162006","0.0-6.0-1.58","2410158","co37553","norming","","","","","","",""
"7326.914999983273","","","post_mooney1_questions","survey-likert","414","1169336","0.0-6.0-2.58","2410158","co37553","norming","","","{""curiosity"":5,""confidence"":2}","[0,1]","../img/tt/1148tt.jpg","",""
"3105.089999968186","","","recognition","survey-text","415","1172446","0.0-6.0-3.58","2410158","co37553","norming","","","{""guess"":""canoeing""}","","../img/tt/1148tt.jpg","",""
"null","../img/gs/1148gs.jpg","null","reveal","image-keyboard-response","416","1174451","0.0-6.0-4.58","2410158","co37553","norming","","","","","","",""
"null","../img/tt/1148tt.jpg","null","mooney2","image-keyboard-response","417","1176465","0.0-6.0-5.58","2410158","co37553","norming","","","","","","",""
"1483.1899999408051","","","post_reveal_questions","survey-likert","418","1177950","0.0-6.0-6.58","2410158","co37553","norming","","","{""aha"":4}","[0]","../img/tt/1148tt.jpg","",""
"null","<div style=""font-size:60px;""> </div>","null","fixation","html-keyboard-response","419","1178153","0.0-6.0-0.59","2410158","co37553","norming","","","","","","",""
"null","../img/tt/121tt.jpg","null","mooney1","image-keyboard-response","420","1181157","0.0-6.0-1.59","2410158","co37553","norming","","","","","","",""
"2571.044999989681","","","post_mooney1_questions","survey-likert","421","1183731","0.0-6.0-2.59","2410158","co37553","norming","","","{""curiosity"":6,""confidence"":1}","[0,1]","../img/tt/121tt.jpg","",""
"2574.434999958612","","","recognition","survey-text","422","1186310","0.0-6.0-3.59","2410158","co37553","norming","","","{""guess"":""dinosaur""}","","../img/tt/121tt.jpg","",""
"null","../img/gs/121gs.jpg","null","reveal","image-keyboard-response","423","1188314","0.0-6.0-4.59","2410158","co37553","norming","","","","","","",""
"null","../img/tt/121tt.jpg","null","mooney2","image-keyboard-response","424","1190319","0.0-6.0-5.59","2410158","co37553","norming","","","","","","",""
"1241.8199999956414","","","post_reveal_questions","survey-likert","425","1191564","0.0-6.0-6.59","2410158","co37553","norming","","","{""aha"":2}","[0]","../img/tt/121tt.jpg","",""
"null","<div style=""font-size:60px;""> </div>","null","fixation","html-keyboard-response","426","1191771","0.0-6.0-0.60","2410158","co37553","norming","","","","","","",""
"null","../img/tt/1200tt.jpg","null","mooney1","image-keyboard-response","427","1194788","0.0-6.0-1.60","2410158","co37553","norming","","","","","","",""
"3283.945000031963","","","post_mooney1_questions","survey-likert","428","1198075","0.0-6.0-2.60","2410158","co37553","norming","","","{""curiosity"":5,""confidence"":0}","[0,1]","../img/tt/1200tt.jpg","",""
"2368.430000031367","","","recognition","survey-text","429","1200449","0.0-6.0-3.60","2410158","co37553","norming","","","{""guess"":""canoe""}","","../img/tt/1200tt.jpg","",""
"null","../img/gs/1200gs.jpg","null","reveal","image-keyboard-response","430","1202461","0.0-6.0-4.60","2410158","co37553","norming","","","","","","",""
"null","../img/tt/1200tt.jpg","null","mooney2","image-keyboard-response","431","1204464","0.0-6.0-5.60","2410158","co37553","norming","","","","","","",""
"1023.8899999530986","","","post_reveal_questions","survey-likert","432","1205491","0.0-6.0-6.60","2410158","co37553","norming","","","{""aha"":3}","[0]","../img/tt/1200tt.jpg","",""
"null","<div style=""font-size:60px;""> </div>","null","fixation","html-keyboard-response","433","1205698","0.0-6.0-0.61","2410158","co37553","norming","","","","","","",""
"null","../img/tt/1226tt.jpg","null","mooney1","image-keyboard-response","434","1208712","0.0-6.0-1.61","2410158","co37553","norming","","","","","","",""
"3902.434999938123","","","post_mooney1_questions","survey-likert","435","1212618","0.0-6.0-2.61","2410158","co37553","norming","","","{""curiosity"":4,""confidence"":0}","[0,1]","../img/tt/1226tt.jpg","",""
"2664.4199999282137","","","recognition","survey-text","436","1215284","0.0-6.0-3.61","2410158","co37553","norming","","","{""guess"":""chickens""}","","../img/tt/1226tt.jpg","",""
"null","../img/gs/1226gs.jpg","null","reveal","image-keyboard-response","437","1217299","0.0-6.0-4.61","2410158","co37553","norming","","","","","","",""
"null","../img/tt/1226tt.jpg","null","mooney2","image-keyboard-response","438","1219301","0.0-6.0-5.61","2410158","co37553","norming","","","","","","",""
"1103.0650000320747","","","post_reveal_questions","survey-likert","439","1220407","0.0-6.0-6.61","2410158","co37553","norming","","","{""aha"":5}","[0]","../img/tt/1226tt.jpg","",""
"null","<div style=""font-size:60px;""> </div>","null","fixation","html-keyboard-response","440","1220619","0.0-6.0-0.62","2410158","co37553","norming","","","","","","",""
"null","../img/tt/515tt.jpg","null","mooney1","image-keyboard-response","441","1223632","0.0-6.0-1.62","2410158","co37553","norming","","","","","","",""
"3244.249999988824","","","post_mooney1_questions","survey-likert","442","1226880","0.0-6.0-2.62","2410158","co37553","norming","","","{""curiosity"":5,""confidence"":1}","[0,1]","../img/tt/515tt.jpg","",""
"1924.265000037849","","","recognition","survey-text","443","1228808","0.0-6.0-3.62","2410158","co37553","norming","","","{""guess"":""gorilla""}","","../img/tt/515tt.jpg","",""
"null","../img/gs/515gs.jpg","null","reveal","image-keyboard-response","444","1230828","0.0-6.0-4.62","2410158","co37553","norming","","","","","","",""
"null","../img/tt/515tt.jpg","null","mooney2","image-keyboard-response","445","1232838","0.0-6.0-5.62","2410158","co37553","norming","","","","","","",""
"877.3550000041723","","","post_reveal_questions","survey-likert","446","1233718","0.0-6.0-6.62","2410158","co37553","norming","","","{""aha"":4}","[0]","../img/tt/515tt.jpg","",""
"null","<div style=""font-size:60px;""> </div>","null","fixation","html-keyboard-response","447","1233922","0.0-6.0-0.63","2410158","co37553","norming","","","","","","",""
"null","../img/tt/189tt.jpg","null","mooney1","image-keyboard-response","448","1236944","0.0-6.0-1.63","2410158","co37553","norming","","","","","","",""
"6350.4099999554455","","","post_mooney1_questions","survey-likert","449","1243297","0.0-6.0-2.63","2410158","co37553","norming","","","{""curiosity"":3,""confidence"":0}","[0,1]","../img/tt/189tt.jpg","",""
"471.53500001877546","","","recognition","survey-text","450","1243771","0.0-6.0-3.63","2410158","co37553","norming","","","{""guess"":""""}","","../img/tt/189tt.jpg","",""
"null","../img/gs/189gs.jpg","null","reveal","image-keyboard-response","451","1245789","0.0-6.0-4.63","2410158","co37553","norming","","","","","","",""
"null","../img/tt/189tt.jpg","null","mooney2","image-keyboard-response","452","1247795","0.0-6.0-5.63","2410158","co37553","norming","","","","","","",""
"1279.8600000096485","","","post_reveal_questions","survey-likert","453","1249078","0.0-6.0-6.63","2410158","co37553","norming","","","{""aha"":0}","[0]","../img/tt/189tt.jpg","",""
"null","<div style=""font-size:60px;""> </div>","null","fixation","html-keyboard-response","454","1249284","0.0-6.0-0.64","2410158","co37553","norming","","","","","","",""
"null","../img/tt/096tt.jpg","null","mooney1","image-keyboard-response","455","1252296","0.0-6.0-1.64","2410158","co37553","norming","","","","","","",""
"4444.145000074059","","","post_mooney1_questions","survey-likert","456","1256743","0.0-6.0-2.64","2410158","co37553","norming","","","{""curiosity"":5,""confidence"":1}","[0,1]","../img/tt/096tt.jpg","",""
"2665.3549999464303","","","recognition","survey-text","457","1259410","0.0-6.0-3.64","2410158","co37553","norming","","","{""guess"":""naaimachine""}","","../img/tt/096tt.jpg","",""
"null","../img/gs/096gs.jpg","null","reveal","image-keyboard-response","458","1261422","0.0-6.0-4.64","2410158","co37553","norming","","","","","","",""
"null","../img/tt/096tt.jpg","null","mooney2","image-keyboard-response","459","1263427","0.0-6.0-5.64","2410158","co37553","norming","","","","","","",""
"1364.9100000038743","","","post_reveal_questions","survey-likert","460","1264794","0.0-6.0-6.64","2410158","co37553","norming","","","{""aha"":1}","[0]","../img/tt/096tt.jpg","",""
"null","<div style=""font-size:60px;""> </div>","null","fixation","html-keyboard-response","461","1265002","0.0-6.0-0.65","2410158","co37553","norming","","","","","","",""
"null","../img/tt/590tt.jpg","null","mooney1","image-keyboard-response","462","1268019","0.0-6.0-1.65","2410158","co37553","norming","","","","","","",""
"2849.7750000096858","","","post_mooney1_questions","survey-likert","463","1270871","0.0-6.0-2.65","2410158","co37553","norming","","","{""curiosity"":0,""confidence"":0}","[0,1]","../img/tt/590tt.jpg","",""
"401.6800000099465","","","recognition","survey-text","464","1271276","0.0-6.0-3.65","2410158","co37553","norming","","","{""guess"":""""}","","../img/tt/590tt.jpg","",""
"null","../img/gs/590gs.jpg","null","reveal","image-keyboard-response","465","1273282","0.0-6.0-4.65","2410158","co37553","norming","","","","","","",""
"null","../img/tt/590tt.jpg","null","mooney2","image-keyboard-response","466","1275284","0.0-6.0-5.65","2410158","co37553","norming","","","","","","",""
"907.5799999991432","","","post_reveal_questions","survey-likert","467","1276194","0.0-6.0-6.65","2410158","co37553","norming","","","{""aha"":1}","[0]","../img/tt/590tt.jpg","",""
"null","<div style=""font-size:60px;""> </div>","null","fixation","html-keyboard-response","468","1276397","0.0-6.0-0.66","2410158","co37553","norming","","","","","","",""
"null","../img/tt/1236tt.jpg","null","mooney1","image-keyboard-response","469","1279409","0.0-6.0-1.66","2410158","co37553","norming","","","","","","",""
"3601.589999976568","","","post_mooney1_questions","survey-likert","470","1283014","0.0-6.0-2.66","2410158","co37553","norming","","","{""curiosity"":1,""confidence"":0}","[0,1]","../img/tt/1236tt.jpg","",""
"1907.2500000474975","","","recognition","survey-text","471","1284926","0.0-6.0-3.66","2410158","co37553","norming","","","{""guess"":""water""}","","../img/tt/1236tt.jpg","",""
"null","../img/gs/1236gs.jpg","null","reveal","image-keyboard-response","472","1286940","0.0-6.0-4.66","2410158","co37553","norming","","","","","","",""
"null","../img/tt/1236tt.jpg","null","mooney2","image-keyboard-response","473","1288955","0.0-6.0-5.66","2410158","co37553","norming","","","","","","",""
"3381.5450000111014","","","post_reveal_questions","survey-likert","474","1292339","0.0-6.0-6.66","2410158","co37553","norming","","","{""aha"":0}","[0]","../img/tt/1236tt.jpg","",""
"null","<div style=""font-size:60px;""> </div>","null","fixation","html-keyboard-response","475","1292552","0.0-6.0-0.67","2410158","co37553","norming","","","","","","",""
"null","../img/tt/1235tt.jpg","null","mooney1","image-keyboard-response","476","1295558","0.0-6.0-1.67","2410158","co37553","norming","","","","","","",""
"3933.5299999220297","","","post_mooney1_questions","survey-likert","477","1299495","0.0-6.0-2.67","2410158","co37553","norming","","","{""curiosity"":1,""confidence"":1}","[0,1]","../img/tt/1235tt.jpg","",""
"2059.665000066161","","","recognition","survey-text","478","1301557","0.0-6.0-3.67","2410158","co37553","norming","","","{""guess"":""fazant""}","","../img/tt/1235tt.jpg","",""
"null","../img/gs/1235gs.jpg","null","reveal","image-keyboard-response","479","1303563","0.0-6.0-4.67","2410158","co37553","norming","","","","","","",""
"null","../img/tt/1235tt.jpg","null","mooney2","image-keyboard-response","480","1305578","0.0-6.0-5.67","2410158","co37553","norming","","","","","","",""
"894.0200000070035","","","post_reveal_questions","survey-likert","481","1306475","0.0-6.0-6.67","2410158","co37553","norming","","","{""aha"":1}","[0]","../img/tt/1235tt.jpg","",""
"null","<div style=""font-size:60px;""> </div>","null","fixation","html-keyboard-response","482","1306686","0.0-6.0-0.68","2410158","co37553","norming","","","","","","",""
"null","../img/tt/064tt.jpg","null","mooney1","image-keyboard-response","483","1309689","0.0-6.0-1.68","2410158","co37553","norming","","","","","","",""
"4280.479999957606","","","post_mooney1_questions","survey-likert","484","1313972","0.0-6.0-2.68","2410158","co37553","norming","","","{""curiosity"":1,""confidence"":0}","[0,1]","../img/tt/064tt.jpg","",""
"1682.924999971874","","","recognition","survey-text","485","1315659","0.0-6.0-3.68","2410158","co37553","norming","","","{""guess"":""snail""}","","../img/tt/064tt.jpg","",""
"null","../img/gs/064gs.jpg","null","reveal","image-keyboard-response","486","1317667","0.0-6.0-4.68","2410158","co37553","norming","","","","","","",""
"null","../img/tt/064tt.jpg","null","mooney2","image-keyboard-response","487","1319679","0.0-6.0-5.68","2410158","co37553","norming","","","","","","",""
"1724.4850000133738","","","post_reveal_questions","survey-likert","488","1321407","0.0-6.0-6.68","2410158","co37553","norming","","","{""aha"":0}","[0]","../img/tt/064tt.jpg","",""
"null","<div style=""font-size:60px;""> </div>","null","fixation","html-keyboard-response","489","1321611","0.0-6.0-0.69","2410158","co37553","norming","","","","","","",""
"null","../img/tt/1055tt.jpg","null","mooney1","image-keyboard-response","490","1324619","0.0-6.0-1.69","2410158","co37553","norming","","","","","","",""
"2215.1949999388307","","","post_mooney1_questions","survey-likert","491","1326837","0.0-6.0-2.69","2410158","co37553","norming","","","{""curiosity"":1,""confidence"":0}","[0,1]","../img/tt/1055tt.jpg","",""
"1688.2849999237806","","","recognition","survey-text","492","1328530","0.0-6.0-3.69","2410158","co37553","norming","","","{""guess"":""cave""}","","../img/tt/1055tt.jpg","",""
"null","../img/gs/1055gs.jpg","null","reveal","image-keyboard-response","493","1330548","0.0-6.0-4.69","2410158","co37553","norming","","","","","","",""
"null","../img/tt/1055tt.jpg","null","mooney2","image-keyboard-response","494","1332561","0.0-6.0-5.69","2410158","co37553","norming","","","","","","",""
"1950.9000000543892","","","post_reveal_questions","survey-likert","495","1334515","0.0-6.0-6.69","2410158","co37553","norming","","","{""aha"":0}","[0]","../img/tt/1055tt.jpg","",""
"null","<div style=""font-size:60px;""> </div>","null","fixation","html-keyboard-response","496","1334725","0.0-6.0-0.70","2410158","co37553","norming","","","","","","",""
"null","../img/tt/001tt.jpg","null","mooney1","image-keyboard-response","497","1337744","0.0-6.0-1.70","2410158","co37553","norming","","","","","","",""
"3991.230000043288","","","post_mooney1_questions","survey-likert","498","1341738","0.0-6.0-2.70","2410158","co37553","norming","","","{""curiosity"":5,""confidence"":1}","[0,1]","../img/tt/001tt.jpg","",""
"1292.7149999886751","","","recognition","survey-text","499","1343033","0.0-6.0-3.70","2410158","co37553","norming","","","{""guess"":""tiger""}","","../img/tt/001tt.jpg","",""
"null","../img/gs/001gs.jpg","null","reveal","image-keyboard-response","500","1345041","0.0-6.0-4.70","2410158","co37553","norming","","","","","","",""
"null","../img/tt/001tt.jpg","null","mooney2","image-keyboard-response","501","1347051","0.0-6.0-5.70","2410158","co37553","norming","","","","","","",""
"1091.4700001012534","","","post_reveal_questions","survey-likert","502","1348145","0.0-6.0-6.70","2410158","co37553","norming","","","{""aha"":0}","[0]","../img/tt/001tt.jpg","",""
"null","<div style=""font-size:60px;""> </div>","null","fixation","html-keyboard-response","503","1348351","0.0-6.0-0.71","2410158","co37553","norming","","","","","","",""
"null","../img/tt/1033tt.jpg","null","mooney1","image-keyboard-response","504","1351369","0.0-6.0-1.71","2410158","co37553","norming","","","","","","",""
"2125.880000065081","","","post_mooney1_questions","survey-likert","505","1353498","0.0-6.0-2.71","2410158","co37553","norming","","","{""curiosity"":1,""confidence"":0}","[0,1]","../img/tt/1033tt.jpg","",""
"2812.184999929741","","","recognition","survey-text","506","1356315","0.0-6.0-3.71","2410158","co37553","norming","","","{""guess"":""arrow""}","","../img/tt/1033tt.jpg","",""
"null","../img/gs/1033gs.jpg","null","reveal","image-keyboard-response","507","1358323","0.0-6.0-4.71","2410158","co37553","norming","","","","","","",""
"null","../img/tt/1033tt.jpg","null","mooney2","image-keyboard-response","508","1360330","0.0-6.0-5.71","2410158","co37553","norming","","","","","","",""
"1239.7999999811873","","","post_reveal_questions","survey-likert","509","1361572","0.0-6.0-6.71","2410158","co37553","norming","","","{""aha"":0}","[0]","../img/tt/1033tt.jpg","",""
"null","<div style=""font-size:60px;""> </div>","null","fixation","html-keyboard-response","510","1361787","0.0-6.0-0.72","2410158","co37553","norming","","","","","","",""
"null","../img/tt/279tt.jpg","null","mooney1","image-keyboard-response","511","1364789","0.0-6.0-1.72","2410158","co37553","norming","","","","","","",""
"4418.80499990657","","","post_mooney1_questions","survey-likert","512","1369211","0.0-6.0-2.72","2410158","co37553","norming","","","{""curiosity"":0,""confidence"":0}","[0,1]","../img/tt/279tt.jpg","",""
"466.16500010713935","","","recognition","survey-text","513","1369679","0.0-6.0-3.72","2410158","co37553","norming","","","{""guess"":""""}","","../img/tt/279tt.jpg","",""
"null","../img/gs/279gs.jpg","null","reveal","image-keyboard-response","514","1371694","0.0-6.0-4.72","2410158","co37553","norming","","","","","","",""
"null","../img/tt/279tt.jpg","null","mooney2","image-keyboard-response","515","1373703","0.0-6.0-5.72","2410158","co37553","norming","","","","","","",""
"1628.4949999535456","","","post_reveal_questions","survey-likert","516","1375334","0.0-6.0-6.72","2410158","co37553","norming","","","{""aha"":2}","[0]","../img/tt/279tt.jpg","",""
"null","<div style=""font-size:60px;""> </div>","null","fixation","html-keyboard-response","517","1375535","0.0-6.0-0.73","2410158","co37553","norming","","","","","","",""
"null","../img/tt/1142tt.jpg","null","mooney1","image-keyboard-response","518","1378540","0.0-6.0-1.73","2410158","co37553","norming","","","","","","",""
"2262.2849999461323","","","post_mooney1_questions","survey-likert","519","1380805","0.0-6.0-2.73","2410158","co37553","norming","","","{""curiosity"":1,""confidence"":1}","[0,1]","../img/tt/1142tt.jpg","",""
"2187.165000010282","","","recognition","survey-text","520","1382997","0.0-6.0-3.73","2410158","co37553","norming","","","{""guess"":""honkbal""}","","../img/tt/1142tt.jpg","",""
"null","../img/gs/1142gs.jpg","null","reveal","image-keyboard-response","521","1385008","0.0-6.0-4.73","2410158","co37553","norming","","","","","","",""
"null","../img/tt/1142tt.jpg","null","mooney2","image-keyboard-response","522","1387027","0.0-6.0-5.73","2410158","co37553","norming","","","","","","",""
"1138.480000081472","","","post_reveal_questions","survey-likert","523","1388168","0.0-6.0-6.73","2410158","co37553","norming","","","{""aha"":0}","[0]","../img/tt/1142tt.jpg","",""
"null","<div style=""font-size:60px;""> </div>","null","fixation","html-keyboard-response","524","1388372","0.0-6.0-0.74","2410158","co37553","norming","","","","","","",""
"null","../img/tt/1084tt.jpg","null","mooney1","image-keyboard-response","525","1391377","0.0-6.0-1.74","2410158","co37553","norming","","","","","","",""
"2743.9899999881163","","","post_mooney1_questions","survey-likert","526","1394124","0.0-6.0-2.74","2410158","co37553","norming","","","{""curiosity"":5,""confidence"":1}","[0,1]","../img/tt/1084tt.jpg","",""
"1996.0900000296533","","","recognition","survey-text","527","1396125","0.0-6.0-3.74","2410158","co37553","norming","","","{""guess"":""pudding""}","","../img/tt/1084tt.jpg","",""
"null","../img/gs/1084gs.jpg","null","reveal","image-keyboard-response","528","1398127","0.0-6.0-4.74","2410158","co37553","norming","","","","","","",""
"null","../img/tt/1084tt.jpg","null","mooney2","image-keyboard-response","529","1400129","0.0-6.0-5.74","2410158","co37553","norming","","","","","","",""
"1037.1499999891967","","","post_reveal_questions","survey-likert","530","1401169","0.0-6.0-6.74","2410158","co37553","norming","","","{""aha"":1}","[0]","../img/tt/1084tt.jpg","",""
"null","<div style=""font-size:60px;""> </div>","null","fixation","html-keyboard-response","531","1401376","0.0-6.0-0.75","2410158","co37553","norming","","","","","","",""
"null","../img/tt/329tt.jpg","null","mooney1","image-keyboard-response","532","1404379","0.0-6.0-1.75","2410158","co37553","norming","","","","","","",""
"2162.7400000579655","","","post_mooney1_questions","survey-likert","533","1406545","0.0-6.0-2.75","2410158","co37553","norming","","","{""curiosity"":2,""confidence"":0}","[0,1]","../img/tt/329tt.jpg","",""
"1720.035000005737","","","recognition","survey-text","534","1408270","0.0-6.0-3.75","2410158","co37553","norming","","","{""guess"":""koets""}","","../img/tt/329tt.jpg","",""
"null","../img/gs/329gs.jpg","null","reveal","image-keyboard-response","535","1410275","0.0-6.0-4.75","2410158","co37553","norming","","","","","","",""
"null","../img/tt/329tt.jpg","null","mooney2","image-keyboard-response","536","1412278","0.0-6.0-5.75","2410158","co37553","norming","","","","","","",""
"875.5349999992177","","","post_reveal_questions","survey-likert","537","1413156","0.0-6.0-6.75","2410158","co37553","norming","","","{""aha"":0}","[0]","../img/tt/329tt.jpg","",""
"null","<div style=""font-size:60px;""> </div>","null","fixation","html-keyboard-response","538","1413360","0.0-6.0-0.76","2410158","co37553","norming","","","","","","",""
"null","../img/tt/517tt.jpg","null","mooney1","image-keyboard-response","539","1416381","0.0-6.0-1.76","2410158","co37553","norming","","","","","","",""
"3426.450000028126","","","post_mooney1_questions","survey-likert","540","1419810","0.0-6.0-2.76","2410158","co37553","norming","","","{""curiosity"":5,""confidence"":1}","[0,1]","../img/tt/517tt.jpg","",""
"2211.4599999040365","","","recognition","survey-text","541","1422024","0.0-6.0-3.76","2410158","co37553","norming","","","{""guess"":""luiaard""}","","../img/tt/517tt.jpg","",""
"null","../img/gs/517gs.jpg","null","reveal","image-keyboard-response","542","1424036","0.0-6.0-4.76","2410158","co37553","norming","","","","","","",""
"null","../img/tt/517tt.jpg","null","mooney2","image-keyboard-response","543","1426050","0.0-6.0-5.76","2410158","co37553","norming","","","","","","",""
"992.9299999494106","","","post_reveal_questions","survey-likert","544","1427044","0.0-6.0-6.76","2410158","co37553","norming","","","{""aha"":0}","[0]","../img/tt/517tt.jpg","",""
"null","<div style=""font-size:60px;""> </div>","null","fixation","html-keyboard-response","545","1427252","0.0-6.0-0.77","2410158","co37553","norming","","","","","","",""
"null","../img/tt/1366tt.jpg","null","mooney1","image-keyboard-response","546","1430258","0.0-6.0-1.77","2410158","co37553","norming","","","","","","",""
"6308.790000039153","","","post_mooney1_questions","survey-likert","547","1436570","0.0-6.0-2.77","2410158","co37553","norming","","","{""curiosity"":4,""confidence"":1}","[0,1]","../img/tt/1366tt.jpg","",""
"1907.8749999171123","","","recognition","survey-text","548","1438481","0.0-6.0-3.77","2410158","co37553","norming","","","{""guess"":""wraps""}","","../img/tt/1366tt.jpg","",""
"null","../img/gs/1366gs.jpg","null","reveal","image-keyboard-response","549","1440491","0.0-6.0-4.77","2410158","co37553","norming","","","","","","",""
"null","../img/tt/1366tt.jpg","null","mooney2","image-keyboard-response","550","1442497","0.0-6.0-5.77","2410158","co37553","norming","","","","","","",""
"1030.07500001695","","","post_reveal_questions","survey-likert","551","1443530","0.0-6.0-6.77","2410158","co37553","norming","","","{""aha"":4}","[0]","../img/tt/1366tt.jpg","",""
"null","<div style=""font-size:60px;""> </div>","null","fixation","html-keyboard-response","552","1443745","0.0-6.0-0.78","2410158","co37553","norming","","","","","","",""
