"rt","stimulus","key_press","test_part","trial_type","trial_index","time_elapsed","internal_node_id","totalTime","subject","experiment_name","button_pressed","success","responses","question_order","currentStim","old","correct"
"2481.625000014901","Welcome to the experiment. This is an online experiment so please don't close the tab/window until we say goodbye.  Press any key to begin.","13","instructions","html-keyboard-response","0","2523","0.0-0.0","2439711","co37852","norming","","","","","","",""
"9162.575000082143","<div style='word-wrap: break-word; width: 900px'><h3>Please consider this information carefully before deciding whether to participate in this research</h3><ul style='text-align: left; font-size: .8em;'><li><b>Purpose of the research</b>: To examine how people process images.</li><li><b>What you will do in this research</b>:  Stimuli (images) will be presented on the computer and you will be asked different questions about them.</li><li><b>Time required</b>: Participation will take between 45 and 60 minutes to complete.</li><li><b>Risks</b>:  There are no anticipated risks associated with participating in this study. The effects of participating should be comparable to those you would experience from viewing a computer monitor for 30 minutes and using a mouse or keyboard.</li><li><b>Benefits</b>:  This study provides no benefits to you individually except for the credit. The study provides important information about the nature of perception and learning.</li><li><b>Confidentiality</b>:  Your participation in this study will remain confidential. No personally identifiable information will be associated with your data. Your de-identified data may be shared with other researchers and used in future projects.</li><li><b>Participation and withdrawal</b>:  Your participation in this study is completely voluntary and you may refuse to participate or you may choose to withdraw at any time without penalty.</li><li><b>How to contact the researchers</b>: If you have questions or concerns about your participation or payment, or want to request a summary of research findings, please contact Sander Van de Cruys (KU Leuven), at sander.vandecruys@kuleuven.be.</li></ul><p>The nature and purpose of this research have been sufficiently explained and I agree to participate in this study.  I understand that I am free to withdraw at any time without incurring any penalty.</p><p>Please consent by clicking the button below to continue. Otherwise, please exit the study at this time.</p></div>","","instructions","html-button-response","1","11688","0.0-1.0","2439711","co37852","norming","0","","","","","",""
"","","","instructions","fullscreen","2","14108","0.0-2.0","2439711","co37852","norming","","true","","","","",""
"39918.595000053756","","","sona","survey-html-form","3","54031","0.0-3.0","2439711","co37852","norming","","","[{""name"":""sonaid"",""value"":""37852""},{""name"":""debrief"",""value"":""no""},{""name"":""datajoin"",""value"":""yes""}]","","","",""
"16151.71000000555","<div style='word-wrap: break-word; width: 900px'><h3>Instructions</h3><p>This experiment will have 3 parts. In the first part you will see a series of distorted images like the one below on the left. As you can see in the righthand image, the distorted images are derived from actual photographs. In what follows, you will <strong>briefly</strong> be presented with <strong>only</strong> the distorted image.</p> <div style='float: left; margin-right: 20px;'><img src='../img/018tt.jpg' height='250' width='250'></img></div><div style='float: right; margin-left: 20px;'><img src='../img/018gs.jpg' height='250' width='250'></img></div><p>Subsequently you will be asked a few questions about the image: One question on how <strong>curious</strong> you are about the solution and one on how <strong>confident</strong> you are that you know the solution.</p>Next, we ask you to make a guess on what is in the image. Note that it is OK to name just the <strong>basic level category</strong>. For example when you see a parrot in the image, 'parrot' will obviously be a correct answer but also correct is 'bird'. However, 'animal' will <strong>not</strong> be counted as a correct response. For the example above, 'rose' would be correct or 'flower', but not 'plant'. When soccer players are depicted, 'soccer', 'football', 'soccer players' will be correct, but not 'humans', 'outdoors', or 'sports'. You do not need to describe the image in full, just name the main object in it <strong>in one or two words</strong>. All images depict objects from one of the following broad level categories: animals, inanimate objects, plants, sports, vehicles, and food. Recognizing means knowing <strong>more</strong> than these broad labels for a given image. But we always encourage you to <strong>make a guess</strong> if you can. Note that you are allowed to use <strong>Dutch and English</strong> in your answers, whatever comes easiest for you.</p><p>Press any key to continue.</p></div>","32","instructions","html-keyboard-response","4","70185","0.0-4.0","2439711","co37852","norming","","","","","","",""
"5634.6449999837205","<div style='word-wrap: break-word; width: 900px'><h3>Instructions</h3> <p>Next, the solution image will be revealed to you and you'll be asked to indicate how strong your <strong>aha-experience</strong> was after seeing the solution. This describes the positive feeling of the 'click' you sometimes experience, when the pieces of the 'puzzle' fall together and you suddenly have 'insight' in the image.</p><img src='aha.jpg' height='188' width='250'></img><p>Note that there are no right or wrong answers. We are interested in what <strong>you</strong> see in the image and how <strong>you</strong> feel about it.</p><p>Press any key to start the experiment.</p></div>","32","instructions","html-keyboard-response","5","75821","0.0-5.0","2439711","co37852","norming","","","","","","",""
"null","<div style=""font-size:60px;""> </div>","null","fixation","html-keyboard-response","6","76023","0.0-6.0-0.0","2439711","co37852","norming","","","","","","",""
"null","../img/tt/1116tt.jpg","null","mooney1","image-keyboard-response","7","79038","0.0-6.0-1.0","2439711","co37852","norming","","","","","","",""
"6762.630000011995","","","post_mooney1_questions","survey-likert","8","85804","0.0-6.0-2.0","2439711","co37852","norming","","","{""curiosity"":3,""confidence"":5}","[0,1]","../img/tt/1116tt.jpg","",""
"13712.924999999814","","","recognition","survey-text","9","99528","0.0-6.0-3.0","2439711","co37852","norming","","","{""guess"":""loopgraaf""}","","../img/tt/1116tt.jpg","",""
"null","../img/gs/1116gs.jpg","null","reveal","image-keyboard-response","10","101545","0.0-6.0-4.0","2439711","co37852","norming","","","","","","",""
"null","../img/tt/1116tt.jpg","null","mooney2","image-keyboard-response","11","103561","0.0-6.0-5.0","2439711","co37852","norming","","","","","","",""
"3684.0050000464544","","","post_reveal_questions","survey-likert","12","107249","0.0-6.0-6.0","2439711","co37852","norming","","","{""aha"":6}","[0]","../img/tt/1116tt.jpg","",""
"null","<div style=""font-size:60px;""> </div>","null","fixation","html-keyboard-response","13","107459","0.0-6.0-0.1","2439711","co37852","norming","","","","","","",""
"null","../img/tt/300tt.jpg","null","mooney1","image-keyboard-response","14","110462","0.0-6.0-1.1","2439711","co37852","norming","","","","","","",""
"4432.970000081696","","","post_mooney1_questions","survey-likert","15","114899","0.0-6.0-2.1","2439711","co37852","norming","","","{""curiosity"":5,""confidence"":0}","[0,1]","../img/tt/300tt.jpg","",""
"5097.470000036992","","","recognition","survey-text","16","120002","0.0-6.0-3.1","2439711","co37852","norming","","","{""guess"":""noot""}","","../img/tt/300tt.jpg","",""
"null","../img/gs/300gs.jpg","null","reveal","image-keyboard-response","17","122005","0.0-6.0-4.1","2439711","co37852","norming","","","","","","",""
"null","../img/tt/300tt.jpg","null","mooney2","image-keyboard-response","18","124007","0.0-6.0-5.1","2439711","co37852","norming","","","","","","",""
"5954.335000016727","","","post_reveal_questions","survey-likert","19","129964","0.0-6.0-6.1","2439711","co37852","norming","","","{""aha"":6}","[0]","../img/tt/300tt.jpg","",""
"null","<div style=""font-size:60px;""> </div>","null","fixation","html-keyboard-response","20","130179","0.0-6.0-0.2","2439711","co37852","norming","","","","","","",""
"null","../img/tt/1250tt.jpg","null","mooney1","image-keyboard-response","21","133185","0.0-6.0-1.2","2439711","co37852","norming","","","","","","",""
"3962.180000031367","","","post_mooney1_questions","survey-likert","22","137150","0.0-6.0-2.2","2439711","co37852","norming","","","{""curiosity"":4,""confidence"":3}","[0,1]","../img/tt/1250tt.jpg","",""
"4266.360000008717","","","recognition","survey-text","23","141422","0.0-6.0-3.2","2439711","co37852","norming","","","{""guess"":""zeehonden""}","","../img/tt/1250tt.jpg","",""
"null","../img/gs/1250gs.jpg","null","reveal","image-keyboard-response","24","143432","0.0-6.0-4.2","2439711","co37852","norming","","","","","","",""
"null","../img/tt/1250tt.jpg","null","mooney2","image-keyboard-response","25","145434","0.0-6.0-5.2","2439711","co37852","norming","","","","","","",""
"2474.0100000053644","","","post_reveal_questions","survey-likert","26","147911","0.0-6.0-6.2","2439711","co37852","norming","","","{""aha"":4}","[0]","../img/tt/1250tt.jpg","",""
"null","<div style=""font-size:60px;""> </div>","null","fixation","html-keyboard-response","27","148126","0.0-6.0-0.3","2439711","co37852","norming","","","","","","",""
"null","../img/tt/1037tt.jpg","null","mooney1","image-keyboard-response","28","151129","0.0-6.0-1.3","2439711","co37852","norming","","","","","","",""
"5707.364999921992","","","post_mooney1_questions","survey-likert","29","156840","0.0-6.0-2.3","2439711","co37852","norming","","","{""curiosity"":4,""confidence"":0}","[0,1]","../img/tt/1037tt.jpg","",""
"7050.760000012815","","","recognition","survey-text","30","163896","0.0-6.0-3.3","2439711","co37852","norming","","","{""guess"":"" boom""}","","../img/tt/1037tt.jpg","",""
"null","../img/gs/1037gs.jpg","null","reveal","image-keyboard-response","31","165899","0.0-6.0-4.3","2439711","co37852","norming","","","","","","",""
"null","../img/tt/1037tt.jpg","null","mooney2","image-keyboard-response","32","167901","0.0-6.0-5.3","2439711","co37852","norming","","","","","","",""
"1873.9999999525025","","","post_reveal_questions","survey-likert","33","169777","0.0-6.0-6.3","2439711","co37852","norming","","","{""aha"":6}","[0]","../img/tt/1037tt.jpg","",""
"null","<div style=""font-size:60px;""> </div>","null","fixation","html-keyboard-response","34","169983","0.0-6.0-0.4","2439711","co37852","norming","","","","","","",""
"null","../img/tt/270tt.jpg","null","mooney1","image-keyboard-response","35","172997","0.0-6.0-1.4","2439711","co37852","norming","","","","","","",""
"5569.770000060089","","","post_mooney1_questions","survey-likert","36","178571","0.0-6.0-2.4","2439711","co37852","norming","","","{""curiosity"":1,""confidence"":1}","[0,1]","../img/tt/270tt.jpg","",""
"4187.069999985397","","","recognition","survey-text","37","182763","0.0-6.0-3.4","2439711","co37852","norming","","","{""guess"":""schilderij""}","","../img/tt/270tt.jpg","",""
"null","../img/gs/270gs.jpg","null","reveal","image-keyboard-response","38","184770","0.0-6.0-4.4","2439711","co37852","norming","","","","","","",""
"null","../img/tt/270tt.jpg","null","mooney2","image-keyboard-response","39","186781","0.0-6.0-5.4","2439711","co37852","norming","","","","","","",""
"2780.224999994971","","","post_reveal_questions","survey-likert","40","189564","0.0-6.0-6.4","2439711","co37852","norming","","","{""aha"":6}","[0]","../img/tt/270tt.jpg","",""
"null","<div style=""font-size:60px;""> </div>","null","fixation","html-keyboard-response","41","189784","0.0-6.0-0.5","2439711","co37852","norming","","","","","","",""
"null","../img/tt/329tt.jpg","null","mooney1","image-keyboard-response","42","192801","0.0-6.0-1.5","2439711","co37852","norming","","","","","","",""
"5185.369999962859","","","post_mooney1_questions","survey-likert","43","197989","0.0-6.0-2.5","2439711","co37852","norming","","","{""curiosity"":4,""confidence"":2}","[0,1]","../img/tt/329tt.jpg","",""
"4450.250000110827","","","recognition","survey-text","44","202445","0.0-6.0-3.5","2439711","co37852","norming","","","{""guess"":""tafel""}","","../img/tt/329tt.jpg","",""
"null","../img/gs/329gs.jpg","null","reveal","image-keyboard-response","45","204457","0.0-6.0-4.5","2439711","co37852","norming","","","","","","",""
"null","../img/tt/329tt.jpg","null","mooney2","image-keyboard-response","46","206474","0.0-6.0-5.5","2439711","co37852","norming","","","","","","",""
"3738.365000113845","","","post_reveal_questions","survey-likert","47","210216","0.0-6.0-6.5","2439711","co37852","norming","","","{""aha"":6}","[0]","../img/tt/329tt.jpg","",""
"null","<div style=""font-size:60px;""> </div>","null","fixation","html-keyboard-response","48","210432","0.0-6.0-0.6","2439711","co37852","norming","","","","","","",""
"null","../img/tt/1128tt.jpg","null","mooney1","image-keyboard-response","49","213437","0.0-6.0-1.6","2439711","co37852","norming","","","","","","",""
"6071.779999998398","","","post_mooney1_questions","survey-likert","50","219513","0.0-6.0-2.6","2439711","co37852","norming","","","{""curiosity"":3,""confidence"":0}","[0,1]","../img/tt/1128tt.jpg","",""
"11826.635000063106","","","recognition","survey-text","51","231345","0.0-6.0-3.6","2439711","co37852","norming","","","{""guess"":""stoel""}","","../img/tt/1128tt.jpg","",""
"null","../img/gs/1128gs.jpg","null","reveal","image-keyboard-response","52","233361","0.0-6.0-4.6","2439711","co37852","norming","","","","","","",""
"null","../img/tt/1128tt.jpg","null","mooney2","image-keyboard-response","53","235372","0.0-6.0-5.6","2439711","co37852","norming","","","","","","",""
"2332.179999910295","","","post_reveal_questions","survey-likert","54","237707","0.0-6.0-6.6","2439711","co37852","norming","","","{""aha"":6}","[0]","../img/tt/1128tt.jpg","",""
"null","<div style=""font-size:60px;""> </div>","null","fixation","html-keyboard-response","55","237923","0.0-6.0-0.7","2439711","co37852","norming","","","","","","",""
"null","../img/tt/1123tt.jpg","null","mooney1","image-keyboard-response","56","240942","0.0-6.0-1.7","2439711","co37852","norming","","","","","","",""
"5987.5400000019","","","post_mooney1_questions","survey-likert","57","246933","0.0-6.0-2.7","2439711","co37852","norming","","","{""curiosity"":5,""confidence"":5}","[0,1]","../img/tt/1123tt.jpg","",""
"4009.695000015199","","","recognition","survey-text","58","250948","0.0-6.0-3.7","2439711","co37852","norming","","","{""guess"":""rugby spel""}","","../img/tt/1123tt.jpg","",""
"null","../img/gs/1123gs.jpg","null","reveal","image-keyboard-response","59","252958","0.0-6.0-4.7","2439711","co37852","norming","","","","","","",""
"null","../img/tt/1123tt.jpg","null","mooney2","image-keyboard-response","60","254960","0.0-6.0-5.7","2439711","co37852","norming","","","","","","",""
"2538.3350000483915","","","post_reveal_questions","survey-likert","61","257501","0.0-6.0-6.7","2439711","co37852","norming","","","{""aha"":0}","[0]","../img/tt/1123tt.jpg","",""
"null","<div style=""font-size:60px;""> </div>","null","fixation","html-keyboard-response","62","257709","0.0-6.0-0.8","2439711","co37852","norming","","","","","","",""
"null","../img/tt/1049tt.jpg","null","mooney1","image-keyboard-response","63","260712","0.0-6.0-1.8","2439711","co37852","norming","","","","","","",""
"15780.985000077635","","","post_mooney1_questions","survey-likert","64","276497","0.0-6.0-2.8","2439711","co37852","norming","","","{""curiosity"":1,""confidence"":0}","[0,1]","../img/tt/1049tt.jpg","",""
"9138.885000022128","","","recognition","survey-text","65","285641","0.0-6.0-3.8","2439711","co37852","norming","","","{""guess"":""dier""}","","../img/tt/1049tt.jpg","",""
"null","../img/gs/1049gs.jpg","null","reveal","image-keyboard-response","66","287643","0.0-6.0-4.8","2439711","co37852","norming","","","","","","",""
"null","../img/tt/1049tt.jpg","null","mooney2","image-keyboard-response","67","289661","0.0-6.0-5.8","2439711","co37852","norming","","","","","","",""
"2234.3000000109896","","","post_reveal_questions","survey-likert","68","291898","0.0-6.0-6.8","2439711","co37852","norming","","","{""aha"":4}","[0]","../img/tt/1049tt.jpg","",""
"null","<div style=""font-size:60px;""> </div>","null","fixation","html-keyboard-response","69","292105","0.0-6.0-0.9","2439711","co37852","norming","","","","","","",""
"null","../img/tt/456tt.jpg","null","mooney1","image-keyboard-response","70","295121","0.0-6.0-1.9","2439711","co37852","norming","","","","","","",""
"3735.3250000160187","","","post_mooney1_questions","survey-likert","71","298860","0.0-6.0-2.9","2439711","co37852","norming","","","{""curiosity"":2,""confidence"":2}","[0,1]","../img/tt/456tt.jpg","",""
"2746.8799999915063","","","recognition","survey-text","72","301612","0.0-6.0-3.9","2439711","co37852","norming","","","{""guess"":""schoen""}","","../img/tt/456tt.jpg","",""
"null","../img/gs/456gs.jpg","null","reveal","image-keyboard-response","73","303614","0.0-6.0-4.9","2439711","co37852","norming","","","","","","",""
"null","../img/tt/456tt.jpg","null","mooney2","image-keyboard-response","74","305616","0.0-6.0-5.9","2439711","co37852","norming","","","","","","",""
"2249.240000033751","","","post_reveal_questions","survey-likert","75","307868","0.0-6.0-6.9","2439711","co37852","norming","","","{""aha"":4}","[0]","../img/tt/456tt.jpg","",""
"null","<div style=""font-size:60px;""> </div>","null","fixation","html-keyboard-response","76","308074","0.0-6.0-0.10","2439711","co37852","norming","","","","","","",""
"null","../img/tt/517tt.jpg","null","mooney1","image-keyboard-response","77","311082","0.0-6.0-1.10","2439711","co37852","norming","","","","","","",""
"3223.9700000500306","","","post_mooney1_questions","survey-likert","78","314310","0.0-6.0-2.10","2439711","co37852","norming","","","{""curiosity"":4,""confidence"":5}","[0,1]","../img/tt/517tt.jpg","",""
"2826.284999959171","","","recognition","survey-text","79","317141","0.0-6.0-3.10","2439711","co37852","norming","","","{""guess"":""beer""}","","../img/tt/517tt.jpg","",""
"null","../img/gs/517gs.jpg","null","reveal","image-keyboard-response","80","319153","0.0-6.0-4.10","2439711","co37852","norming","","","","","","",""
"null","../img/tt/517tt.jpg","null","mooney2","image-keyboard-response","81","321162","0.0-6.0-5.10","2439711","co37852","norming","","","","","","",""
"4099.734999937937","","","post_reveal_questions","survey-likert","82","325263","0.0-6.0-6.10","2439711","co37852","norming","","","{""aha"":1}","[0]","../img/tt/517tt.jpg","",""
"null","<div style=""font-size:60px;""> </div>","null","fixation","html-keyboard-response","83","325472","0.0-6.0-0.11","2439711","co37852","norming","","","","","","",""
"null","../img/tt/1154tt.jpg","null","mooney1","image-keyboard-response","84","328491","0.0-6.0-1.11","2439711","co37852","norming","","","","","","",""
"4786.874999990687","","","post_mooney1_questions","survey-likert","85","333281","0.0-6.0-2.11","2439711","co37852","norming","","","{""curiosity"":3,""confidence"":2}","[0,1]","../img/tt/1154tt.jpg","",""
"3066.084999940358","","","recognition","survey-text","86","336352","0.0-6.0-3.11","2439711","co37852","norming","","","{""guess"":""paard""}","","../img/tt/1154tt.jpg","",""
"null","../img/gs/1154gs.jpg","null","reveal","image-keyboard-response","87","338356","0.0-6.0-4.11","2439711","co37852","norming","","","","","","",""
"null","../img/tt/1154tt.jpg","null","mooney2","image-keyboard-response","88","340368","0.0-6.0-5.11","2439711","co37852","norming","","","","","","",""
"2662.385000032373","","","post_reveal_questions","survey-likert","89","343033","0.0-6.0-6.11","2439711","co37852","norming","","","{""aha"":6}","[0]","../img/tt/1154tt.jpg","",""
"null","<div style=""font-size:60px;""> </div>","null","fixation","html-keyboard-response","90","343250","0.0-6.0-0.12","2439711","co37852","norming","","","","","","",""
"null","../img/tt/053tt.jpg","null","mooney1","image-keyboard-response","91","346254","0.0-6.0-1.12","2439711","co37852","norming","","","","","","",""
"4417.600000044331","","","post_mooney1_questions","survey-likert","92","350675","0.0-6.0-2.12","2439711","co37852","norming","","","{""curiosity"":4,""confidence"":1}","[0,1]","../img/tt/053tt.jpg","",""
"5667.114999960177","","","recognition","survey-text","93","356347","0.0-6.0-3.12","2439711","co37852","norming","","","{""guess"":""ijskegels""}","","../img/tt/053tt.jpg","",""
"null","../img/gs/053gs.jpg","null","reveal","image-keyboard-response","94","358349","0.0-6.0-4.12","2439711","co37852","norming","","","","","","",""
"null","../img/tt/053tt.jpg","null","mooney2","image-keyboard-response","95","360361","0.0-6.0-5.12","2439711","co37852","norming","","","","","","",""
"1984.0350000886247","","","post_reveal_questions","survey-likert","96","362349","0.0-6.0-6.12","2439711","co37852","norming","","","{""aha"":5}","[0]","../img/tt/053tt.jpg","",""
"null","<div style=""font-size:60px;""> </div>","null","fixation","html-keyboard-response","97","362558","0.0-6.0-0.13","2439711","co37852","norming","","","","","","",""
"null","../img/tt/1236tt.jpg","null","mooney1","image-keyboard-response","98","365566","0.0-6.0-1.13","2439711","co37852","norming","","","","","","",""
"3853.2450000056997","","","post_mooney1_questions","survey-likert","99","369422","0.0-6.0-2.13","2439711","co37852","norming","","","{""curiosity"":3,""confidence"":2}","[0,1]","../img/tt/1236tt.jpg","",""
"3960.414999979548","","","recognition","survey-text","100","373389","0.0-6.0-3.13","2439711","co37852","norming","","","{""guess"":""standbeeld""}","","../img/tt/1236tt.jpg","",""
"null","../img/gs/1236gs.jpg","null","reveal","image-keyboard-response","101","375406","0.0-6.0-4.13","2439711","co37852","norming","","","","","","",""
"null","../img/tt/1236tt.jpg","null","mooney2","image-keyboard-response","102","377421","0.0-6.0-5.13","2439711","co37852","norming","","","","","","",""
"3014.2099999357015","","","post_reveal_questions","survey-likert","103","380438","0.0-6.0-6.13","2439711","co37852","norming","","","{""aha"":6}","[0]","../img/tt/1236tt.jpg","",""
"null","<div style=""font-size:60px;""> </div>","null","fixation","html-keyboard-response","104","380658","0.0-6.0-0.14","2439711","co37852","norming","","","","","","",""
"null","../img/tt/1148tt.jpg","null","mooney1","image-keyboard-response","105","383673","0.0-6.0-1.14","2439711","co37852","norming","","","","","","",""
"3411.7000000551343","","","post_mooney1_questions","survey-likert","106","387088","0.0-6.0-2.14","2439711","co37852","norming","","","{""curiosity"":4,""confidence"":3}","[0,1]","../img/tt/1148tt.jpg","",""
"5794.564999989234","","","recognition","survey-text","107","392888","0.0-6.0-3.14","2439711","co37852","norming","","","{""guess"":""persoon vrouw""}","","../img/tt/1148tt.jpg","",""
"null","../img/gs/1148gs.jpg","null","reveal","image-keyboard-response","108","394890","0.0-6.0-4.14","2439711","co37852","norming","","","","","","",""
"null","../img/tt/1148tt.jpg","null","mooney2","image-keyboard-response","109","396902","0.0-6.0-5.14","2439711","co37852","norming","","","","","","",""
"2671.2200000183657","","","post_reveal_questions","survey-likert","110","399576","0.0-6.0-6.14","2439711","co37852","norming","","","{""aha"":4}","[0]","../img/tt/1148tt.jpg","",""
"null","<div style=""font-size:60px;""> </div>","null","fixation","html-keyboard-response","111","399796","0.0-6.0-0.15","2439711","co37852","norming","","","","","","",""
"null","../img/tt/1200tt.jpg","null","mooney1","image-keyboard-response","112","402810","0.0-6.0-1.15","2439711","co37852","norming","","","","","","",""
"3765.1199999963865","","","post_mooney1_questions","survey-likert","113","406579","0.0-6.0-2.15","2439711","co37852","norming","","","{""curiosity"":3,""confidence"":3}","[0,1]","../img/tt/1200tt.jpg","",""
"6601.799999945797","","","recognition","survey-text","114","413186","0.0-6.0-3.15","2439711","co37852","norming","","","{""guess"":""duikboot tank""}","","../img/tt/1200tt.jpg","",""
"null","../img/gs/1200gs.jpg","null","reveal","image-keyboard-response","115","415199","0.0-6.0-4.15","2439711","co37852","norming","","","","","","",""
"null","../img/tt/1200tt.jpg","null","mooney2","image-keyboard-response","116","417210","0.0-6.0-5.15","2439711","co37852","norming","","","","","","",""
"3047.4099999992177","","","post_reveal_questions","survey-likert","117","420260","0.0-6.0-6.15","2439711","co37852","norming","","","{""aha"":5}","[0]","../img/tt/1200tt.jpg","",""
"null","<div style=""font-size:60px;""> </div>","null","fixation","html-keyboard-response","118","420471","0.0-6.0-0.16","2439711","co37852","norming","","","","","","",""
"null","../img/tt/319tt.jpg","null","mooney1","image-keyboard-response","119","423490","0.0-6.0-1.16","2439711","co37852","norming","","","","","","",""
"4056.2299999874085","","","post_mooney1_questions","survey-likert","120","427549","0.0-6.0-2.16","2439711","co37852","norming","","","{""curiosity"":5,""confidence"":5}","[0,1]","../img/tt/319tt.jpg","",""
"2850.095000001602","","","recognition","survey-text","121","430405","0.0-6.0-3.16","2439711","co37852","norming","","","{""guess"":""panda""}","","../img/tt/319tt.jpg","",""
"null","../img/gs/319gs.jpg","null","reveal","image-keyboard-response","122","432418","0.0-6.0-4.16","2439711","co37852","norming","","","","","","",""
"null","../img/tt/319tt.jpg","null","mooney2","image-keyboard-response","123","434420","0.0-6.0-5.16","2439711","co37852","norming","","","","","","",""
"2662.7549999393523","","","post_reveal_questions","survey-likert","124","437086","0.0-6.0-6.16","2439711","co37852","norming","","","{""aha"":6}","[0]","../img/tt/319tt.jpg","",""
"null","<div style=""font-size:60px;""> </div>","null","fixation","html-keyboard-response","125","437300","0.0-6.0-0.17","2439711","co37852","norming","","","","","","",""
"null","../img/tt/1142tt.jpg","null","mooney1","image-keyboard-response","126","440303","0.0-6.0-1.17","2439711","co37852","norming","","","","","","",""
"3716.7849999386817","","","post_mooney1_questions","survey-likert","127","444023","0.0-6.0-2.17","2439711","co37852","norming","","","{""curiosity"":4,""confidence"":3}","[0,1]","../img/tt/1142tt.jpg","",""
"5602.915000054054","","","recognition","survey-text","128","449631","0.0-6.0-3.17","2439711","co37852","norming","","","{""guess"":""boogschieter""}","","../img/tt/1142tt.jpg","",""
"null","../img/gs/1142gs.jpg","null","reveal","image-keyboard-response","129","451639","0.0-6.0-4.17","2439711","co37852","norming","","","","","","",""
"null","../img/tt/1142tt.jpg","null","mooney2","image-keyboard-response","130","453648","0.0-6.0-5.17","2439711","co37852","norming","","","","","","",""
"1660.8499999856576","","","post_reveal_questions","survey-likert","131","455312","0.0-6.0-6.17","2439711","co37852","norming","","","{""aha"":4}","[0]","../img/tt/1142tt.jpg","",""
"null","<div style=""font-size:60px;""> </div>","null","fixation","html-keyboard-response","132","455522","0.0-6.0-0.18","2439711","co37852","norming","","","","","","",""
"null","../img/tt/121tt.jpg","null","mooney1","image-keyboard-response","133","458532","0.0-6.0-1.18","2439711","co37852","norming","","","","","","",""
"3562.2849999926984","","","post_mooney1_questions","survey-likert","134","462097","0.0-6.0-2.18","2439711","co37852","norming","","","{""curiosity"":4,""confidence"":3}","[0,1]","../img/tt/121tt.jpg","",""
"4090.6449999893084","","","recognition","survey-text","135","466193","0.0-6.0-3.18","2439711","co37852","norming","","","{""guess"":""sprinkhaan""}","","../img/tt/121tt.jpg","",""
"null","../img/gs/121gs.jpg","null","reveal","image-keyboard-response","136","468195","0.0-6.0-4.18","2439711","co37852","norming","","","","","","",""
"null","../img/tt/121tt.jpg","null","mooney2","image-keyboard-response","137","470202","0.0-6.0-5.18","2439711","co37852","norming","","","","","","",""
"3510.1550000254065","","","post_reveal_questions","survey-likert","138","473715","0.0-6.0-6.18","2439711","co37852","norming","","","{""aha"":6}","[0]","../img/tt/121tt.jpg","",""
"null","<div style=""font-size:60px;""> </div>","null","fixation","html-keyboard-response","139","473934","0.0-6.0-0.19","2439711","co37852","norming","","","","","","",""
"null","../img/tt/1096tt.jpg","null","mooney1","image-keyboard-response","140","476942","0.0-6.0-1.19","2439711","co37852","norming","","","","","","",""
"3746.6899999417365","","","post_mooney1_questions","survey-likert","141","480692","0.0-6.0-2.19","2439711","co37852","norming","","","{""curiosity"":4,""confidence"":4}","[0,1]","../img/tt/1096tt.jpg","",""
"4954.900000011548","","","recognition","survey-text","142","485653","0.0-6.0-3.19","2439711","co37852","norming","","","{""guess"":""restaurant""}","","../img/tt/1096tt.jpg","",""
"null","../img/gs/1096gs.jpg","null","reveal","image-keyboard-response","143","487668","0.0-6.0-4.19","2439711","co37852","norming","","","","","","",""
"null","../img/tt/1096tt.jpg","null","mooney2","image-keyboard-response","144","489685","0.0-6.0-5.19","2439711","co37852","norming","","","","","","",""
"2828.6699999589473","","","post_reveal_questions","survey-likert","145","492517","0.0-6.0-6.19","2439711","co37852","norming","","","{""aha"":5}","[0]","../img/tt/1096tt.jpg","",""
"null","<div style=""font-size:60px;""> </div>","null","fixation","html-keyboard-response","146","492727","0.0-6.0-0.20","2439711","co37852","norming","","","","","","",""
"null","../img/tt/1046tt.jpg","null","mooney1","image-keyboard-response","147","495732","0.0-6.0-1.20","2439711","co37852","norming","","","","","","",""
"3790.7700000796467","","","post_mooney1_questions","survey-likert","148","499527","0.0-6.0-2.20","2439711","co37852","norming","","","{""curiosity"":1,""confidence"":0}","[0,1]","../img/tt/1046tt.jpg","",""
"7107.944999937899","","","recognition","survey-text","149","506640","0.0-6.0-3.20","2439711","co37852","norming","","","{""guess"":""bol""}","","../img/tt/1046tt.jpg","",""
"null","../img/gs/1046gs.jpg","null","reveal","image-keyboard-response","150","508650","0.0-6.0-4.20","2439711","co37852","norming","","","","","","",""
"null","../img/tt/1046tt.jpg","null","mooney2","image-keyboard-response","151","510667","0.0-6.0-5.20","2439711","co37852","norming","","","","","","",""
"1946.5750000672415","","","post_reveal_questions","survey-likert","152","512616","0.0-6.0-6.20","2439711","co37852","norming","","","{""aha"":3}","[0]","../img/tt/1046tt.jpg","",""
"null","<div style=""font-size:60px;""> </div>","null","fixation","html-keyboard-response","153","512828","0.0-6.0-0.21","2439711","co37852","norming","","","","","","",""
"null","../img/tt/1283tt.jpg","null","mooney1","image-keyboard-response","154","515845","0.0-6.0-1.21","2439711","co37852","norming","","","","","","",""
"7761.935000075027","","","post_mooney1_questions","survey-likert","155","523610","0.0-6.0-2.21","2439711","co37852","norming","","","{""curiosity"":5,""confidence"":6}","[0,1]","../img/tt/1283tt.jpg","",""
"3569.8600000469014","","","recognition","survey-text","156","527186","0.0-6.0-3.21","2439711","co37852","norming","","","{""guess"":""vos boom""}","","../img/tt/1283tt.jpg","",""
"null","../img/gs/1283gs.jpg","null","reveal","image-keyboard-response","157","529197","0.0-6.0-4.21","2439711","co37852","norming","","","","","","",""
"null","../img/tt/1283tt.jpg","null","mooney2","image-keyboard-response","158","531199","0.0-6.0-5.21","2439711","co37852","norming","","","","","","",""
"2745.230000000447","","","post_reveal_questions","survey-likert","159","533947","0.0-6.0-6.21","2439711","co37852","norming","","","{""aha"":1}","[0]","../img/tt/1283tt.jpg","",""
"null","<div style=""font-size:60px;""> </div>","null","fixation","html-keyboard-response","160","534166","0.0-6.0-0.22","2439711","co37852","norming","","","","","","",""
"null","../img/tt/1146tt.jpg","null","mooney1","image-keyboard-response","161","537182","0.0-6.0-1.22","2439711","co37852","norming","","","","","","",""
"3019.6399999549612","","","post_mooney1_questions","survey-likert","162","540205","0.0-6.0-2.22","2439711","co37852","norming","","","{""curiosity"":4,""confidence"":3}","[0,1]","../img/tt/1146tt.jpg","",""
"7827.125000068918","","","recognition","survey-text","163","548037","0.0-6.0-3.22","2439711","co37852","norming","","","{""guess"":""persoon slaap""}","","../img/tt/1146tt.jpg","",""
"null","../img/gs/1146gs.jpg","null","reveal","image-keyboard-response","164","550038","0.0-6.0-4.22","2439711","co37852","norming","","","","","","",""
"null","../img/tt/1146tt.jpg","null","mooney2","image-keyboard-response","165","552050","0.0-6.0-5.22","2439711","co37852","norming","","","","","","",""
"2744.940000004135","","","post_reveal_questions","survey-likert","166","554798","0.0-6.0-6.22","2439711","co37852","norming","","","{""aha"":5}","[0]","../img/tt/1146tt.jpg","",""
"null","<div style=""font-size:60px;""> </div>","null","fixation","html-keyboard-response","167","555006","0.0-6.0-0.23","2439711","co37852","norming","","","","","","",""
"null","../img/tt/1084tt.jpg","null","mooney1","image-keyboard-response","168","558020","0.0-6.0-1.23","2439711","co37852","norming","","","","","","",""
"3175.8799999952316","","","post_mooney1_questions","survey-likert","169","561200","0.0-6.0-2.23","2439711","co37852","norming","","","{""curiosity"":3,""confidence"":2}","[0,1]","../img/tt/1084tt.jpg","",""
"5442.934999940917","","","recognition","survey-text","170","566648","0.0-6.0-3.23","2439711","co37852","norming","","","{""guess"":""theekop""}","","../img/tt/1084tt.jpg","",""
"null","../img/gs/1084gs.jpg","null","reveal","image-keyboard-response","171","568665","0.0-6.0-4.23","2439711","co37852","norming","","","","","","",""
"null","../img/tt/1084tt.jpg","null","mooney2","image-keyboard-response","172","570674","0.0-6.0-5.23","2439711","co37852","norming","","","","","","",""
"2964.464999968186","","","post_reveal_questions","survey-likert","173","573641","0.0-6.0-6.23","2439711","co37852","norming","","","{""aha"":5}","[0]","../img/tt/1084tt.jpg","",""
"null","<div style=""font-size:60px;""> </div>","null","fixation","html-keyboard-response","174","573853","0.0-6.0-0.24","2439711","co37852","norming","","","","","","",""
"null","../img/tt/1004tt.jpg","null","mooney1","image-keyboard-response","175","576871","0.0-6.0-1.24","2439711","co37852","norming","","","","","","",""
"3526.8299999879673","","","post_mooney1_questions","survey-likert","176","580402","0.0-6.0-2.24","2439711","co37852","norming","","","{""curiosity"":4,""confidence"":4}","[0,1]","../img/tt/1004tt.jpg","",""
"4963.005000026897","","","recognition","survey-text","177","585370","0.0-6.0-3.24","2439711","co37852","norming","","","{""guess"":""safari""}","","../img/tt/1004tt.jpg","",""
"null","../img/gs/1004gs.jpg","null","reveal","image-keyboard-response","178","587371","0.0-6.0-4.24","2439711","co37852","norming","","","","","","",""
"null","../img/tt/1004tt.jpg","null","mooney2","image-keyboard-response","179","589387","0.0-6.0-5.24","2439711","co37852","norming","","","","","","",""
"2204.5950000174344","","","post_reveal_questions","survey-likert","180","591595","0.0-6.0-6.24","2439711","co37852","norming","","","{""aha"":2}","[0]","../img/tt/1004tt.jpg","",""
"null","<div style=""font-size:60px;""> </div>","null","fixation","html-keyboard-response","181","591806","0.0-6.0-0.25","2439711","co37852","norming","","","","","","",""
"null","../img/tt/032tt.jpg","null","mooney1","image-keyboard-response","182","594816","0.0-6.0-1.25","2439711","co37852","norming","","","","","","",""
"3033.1050000386313","","","post_mooney1_questions","survey-likert","183","597853","0.0-6.0-2.25","2439711","co37852","norming","","","{""curiosity"":3,""confidence"":3}","[0,1]","../img/tt/032tt.jpg","",""
"5802.475000033155","","","recognition","survey-text","184","603661","0.0-6.0-3.25","2439711","co37852","norming","","","{""guess"":""vogelbekdier""}","","../img/tt/032tt.jpg","",""
"null","../img/gs/032gs.jpg","null","reveal","image-keyboard-response","185","605663","0.0-6.0-4.25","2439711","co37852","norming","","","","","","",""
"null","../img/tt/032tt.jpg","null","mooney2","image-keyboard-response","186","607678","0.0-6.0-5.25","2439711","co37852","norming","","","","","","",""
"2957.1149999974295","","","post_reveal_questions","survey-likert","187","610638","0.0-6.0-6.25","2439711","co37852","norming","","","{""aha"":6}","[0]","../img/tt/032tt.jpg","",""
"null","<div style=""font-size:60px;""> </div>","null","fixation","html-keyboard-response","188","610845","0.0-6.0-0.26","2439711","co37852","norming","","","","","","",""
"null","../img/tt/084tt.jpg","null","mooney1","image-keyboard-response","189","613850","0.0-6.0-1.26","2439711","co37852","norming","","","","","","",""
"4713.86999997776","","","post_mooney1_questions","survey-likert","190","618567","0.0-6.0-2.26","2439711","co37852","norming","","","{""curiosity"":6,""confidence"":0}","[0,1]","../img/tt/084tt.jpg","",""
"6266.964999958873","","","recognition","survey-text","191","624840","0.0-6.0-3.26","2439711","co37852","norming","","","{""guess"":""paaseilandstandbeelden""}","","../img/tt/084tt.jpg","",""
"null","../img/gs/084gs.jpg","null","reveal","image-keyboard-response","192","626848","0.0-6.0-4.26","2439711","co37852","norming","","","","","","",""
"null","../img/tt/084tt.jpg","null","mooney2","image-keyboard-response","193","628858","0.0-6.0-5.26","2439711","co37852","norming","","","","","","",""
"2338.7549999170005","","","post_reveal_questions","survey-likert","194","631200","0.0-6.0-6.26","2439711","co37852","norming","","","{""aha"":6}","[0]","../img/tt/084tt.jpg","",""
"null","<div style=""font-size:60px;""> </div>","null","fixation","html-keyboard-response","195","631416","0.0-6.0-0.27","2439711","co37852","norming","","","","","","",""
"null","../img/tt/055tt.jpg","null","mooney1","image-keyboard-response","196","634434","0.0-6.0-1.27","2439711","co37852","norming","","","","","","",""
"8212.804999900982","","","post_mooney1_questions","survey-likert","197","642650","0.0-6.0-2.27","2439711","co37852","norming","","","{""curiosity"":4,""confidence"":3}","[0,1]","../img/tt/055tt.jpg","",""
"3523.3050000388175","","","recognition","survey-text","198","646179","0.0-6.0-3.27","2439711","co37852","norming","","","{""guess"":""emmer""}","","../img/tt/055tt.jpg","",""
"null","../img/gs/055gs.jpg","null","reveal","image-keyboard-response","199","648181","0.0-6.0-4.27","2439711","co37852","norming","","","","","","",""
"null","../img/tt/055tt.jpg","null","mooney2","image-keyboard-response","200","650197","0.0-6.0-5.27","2439711","co37852","norming","","","","","","",""
"1826.8799999495968","","","post_reveal_questions","survey-likert","201","652027","0.0-6.0-6.27","2439711","co37852","norming","","","{""aha"":3}","[0]","../img/tt/055tt.jpg","",""
"null","<div style=""font-size:60px;""> </div>","null","fixation","html-keyboard-response","202","652245","0.0-6.0-0.28","2439711","co37852","norming","","","","","","",""
"null","../img/tt/140tt.jpg","null","mooney1","image-keyboard-response","203","655252","0.0-6.0-1.28","2439711","co37852","norming","","","","","","",""
"5933.629999984987","","","post_mooney1_questions","survey-likert","204","661189","0.0-6.0-2.28","2439711","co37852","norming","","","{""curiosity"":3,""confidence"":3}","[0,1]","../img/tt/140tt.jpg","",""
"5003.135000006296","","","recognition","survey-text","205","666198","0.0-6.0-3.28","2439711","co37852","norming","","","{""guess"":""trap""}","","../img/tt/140tt.jpg","",""
"null","../img/gs/140gs.jpg","null","reveal","image-keyboard-response","206","668200","0.0-6.0-4.28","2439711","co37852","norming","","","","","","",""
"null","../img/tt/140tt.jpg","null","mooney2","image-keyboard-response","207","670202","0.0-6.0-5.28","2439711","co37852","norming","","","","","","",""
"2569.1700000315905","","","post_reveal_questions","survey-likert","208","672774","0.0-6.0-6.28","2439711","co37852","norming","","","{""aha"":4}","[0]","../img/tt/140tt.jpg","",""
"null","<div style=""font-size:60px;""> </div>","null","fixation","html-keyboard-response","209","672984","0.0-6.0-0.29","2439711","co37852","norming","","","","","","",""
"null","../img/tt/063tt.jpg","null","mooney1","image-keyboard-response","210","675996","0.0-6.0-1.29","2439711","co37852","norming","","","","","","",""
"2823.3249998884276","","","post_mooney1_questions","survey-likert","211","678823","0.0-6.0-2.29","2439711","co37852","norming","","","{""curiosity"":4,""confidence"":3}","[0,1]","../img/tt/063tt.jpg","",""
"4994.709999999031","","","recognition","survey-text","212","683824","0.0-6.0-3.29","2439711","co37852","norming","","","{""guess"":""map boeken""}","","../img/tt/063tt.jpg","",""
"null","../img/gs/063gs.jpg","null","reveal","image-keyboard-response","213","685839","0.0-6.0-4.29","2439711","co37852","norming","","","","","","",""
"null","../img/tt/063tt.jpg","null","mooney2","image-keyboard-response","214","687855","0.0-6.0-5.29","2439711","co37852","norming","","","","","","",""
"2342.9449999239296","","","post_reveal_questions","survey-likert","215","690201","0.0-6.0-6.29","2439711","co37852","norming","","","{""aha"":5}","[0]","../img/tt/063tt.jpg","",""
"null","<div style=""font-size:60px;""> </div>","null","fixation","html-keyboard-response","216","690408","0.0-6.0-0.30","2439711","co37852","norming","","","","","","",""
"null","../img/tt/524tt.jpg","null","mooney1","image-keyboard-response","217","693422","0.0-6.0-1.30","2439711","co37852","norming","","","","","","",""
"4104.479999979958","","","post_mooney1_questions","survey-likert","218","697530","0.0-6.0-2.30","2439711","co37852","norming","","","{""curiosity"":5,""confidence"":4}","[0,1]","../img/tt/524tt.jpg","",""
"2889.4999999320135","","","recognition","survey-text","219","700426","0.0-6.0-3.30","2439711","co37852","norming","","","{""guess"":""olifant""}","","../img/tt/524tt.jpg","",""
"null","../img/gs/524gs.jpg","null","reveal","image-keyboard-response","220","702431","0.0-6.0-4.30","2439711","co37852","norming","","","","","","",""
"null","../img/tt/524tt.jpg","null","mooney2","image-keyboard-response","221","704434","0.0-6.0-5.30","2439711","co37852","norming","","","","","","",""
"3677.5950000155717","","","post_reveal_questions","survey-likert","222","708115","0.0-6.0-6.30","2439711","co37852","norming","","","{""aha"":2}","[0]","../img/tt/524tt.jpg","",""
"null","<div style=""font-size:60px;""> </div>","null","fixation","html-keyboard-response","223","708322","0.0-6.0-0.31","2439711","co37852","norming","","","","","","",""
"null","../img/tt/1353tt.jpg","null","mooney1","image-keyboard-response","224","711339","0.0-6.0-1.31","2439711","co37852","norming","","","","","","",""
"2653.6449999548495","","","post_mooney1_questions","survey-likert","225","713996","0.0-6.0-2.31","2439711","co37852","norming","","","{""curiosity"":3,""confidence"":3}","[0,1]","../img/tt/1353tt.jpg","",""
"5427.03000002075","","","recognition","survey-text","226","719429","0.0-6.0-3.31","2439711","co37852","norming","","","{""guess"":""hand""}","","../img/tt/1353tt.jpg","",""
"null","../img/gs/1353gs.jpg","null","reveal","image-keyboard-response","227","721431","0.0-6.0-4.31","2439711","co37852","norming","","","","","","",""
"null","../img/tt/1353tt.jpg","null","mooney2","image-keyboard-response","228","723447","0.0-6.0-5.31","2439711","co37852","norming","","","","","","",""
"2331.129999947734","","","post_reveal_questions","survey-likert","229","725781","0.0-6.0-6.31","2439711","co37852","norming","","","{""aha"":5}","[0]","../img/tt/1353tt.jpg","",""
"null","<div style=""font-size:60px;""> </div>","null","fixation","html-keyboard-response","230","725994","0.0-6.0-0.32","2439711","co37852","norming","","","","","","",""
"null","../img/tt/222tt.jpg","null","mooney1","image-keyboard-response","231","729011","0.0-6.0-1.32","2439711","co37852","norming","","","","","","",""
"7393.024999997579","","","post_mooney1_questions","survey-likert","232","736408","0.0-6.0-2.32","2439711","co37852","norming","","","{""curiosity"":2,""confidence"":1}","[0,1]","../img/tt/222tt.jpg","",""
"3298.3300000196323","","","recognition","survey-text","233","739712","0.0-6.0-3.32","2439711","co37852","norming","","","{""guess"":""tank""}","","../img/tt/222tt.jpg","",""
"null","../img/gs/222gs.jpg","null","reveal","image-keyboard-response","234","741714","0.0-6.0-4.32","2439711","co37852","norming","","","","","","",""
"null","../img/tt/222tt.jpg","null","mooney2","image-keyboard-response","235","743716","0.0-6.0-5.32","2439711","co37852","norming","","","","","","",""
"2370.6800000509247","","","post_reveal_questions","survey-likert","236","746089","0.0-6.0-6.32","2439711","co37852","norming","","","{""aha"":4}","[0]","../img/tt/222tt.jpg","",""
"null","<div style=""font-size:60px;""> </div>","null","fixation","html-keyboard-response","237","746307","0.0-6.0-0.33","2439711","co37852","norming","","","","","","",""
"null","../img/tt/315tt.jpg","null","mooney1","image-keyboard-response","238","749325","0.0-6.0-1.33","2439711","co37852","norming","","","","","","",""
"4337.339999969117","","","post_mooney1_questions","survey-likert","239","753666","0.0-6.0-2.33","2439711","co37852","norming","","","{""curiosity"":1,""confidence"":0}","[0,1]","../img/tt/315tt.jpg","",""
"2857.8200000338256","","","recognition","survey-text","240","756529","0.0-6.0-3.33","2439711","co37852","norming","","","{""guess"":""pauw""}","","../img/tt/315tt.jpg","",""
"null","../img/gs/315gs.jpg","null","reveal","image-keyboard-response","241","758533","0.0-6.0-4.33","2439711","co37852","norming","","","","","","",""
"null","../img/tt/315tt.jpg","null","mooney2","image-keyboard-response","242","760545","0.0-6.0-5.33","2439711","co37852","norming","","","","","","",""
"2500.804999959655","","","post_reveal_questions","survey-likert","243","763049","0.0-6.0-6.33","2439711","co37852","norming","","","{""aha"":2}","[0]","../img/tt/315tt.jpg","",""
"null","<div style=""font-size:60px;""> </div>","null","fixation","html-keyboard-response","244","763254","0.0-6.0-0.34","2439711","co37852","norming","","","","","","",""
"null","../img/tt/1226tt.jpg","null","mooney1","image-keyboard-response","245","766272","0.0-6.0-1.34","2439711","co37852","norming","","","","","","",""
"6168.414999963716","","","post_mooney1_questions","survey-likert","246","772444","0.0-6.0-2.34","2439711","co37852","norming","","","{""curiosity"":0,""confidence"":6}","[0,1]","../img/tt/1226tt.jpg","",""
"2873.8099999027327","","","recognition","survey-text","247","775323","0.0-6.0-3.34","2439711","co37852","norming","","","{""guess"":""kip""}","","../img/tt/1226tt.jpg","",""
"null","../img/gs/1226gs.jpg","null","reveal","image-keyboard-response","248","777325","0.0-6.0-4.34","2439711","co37852","norming","","","","","","",""
"null","../img/tt/1226tt.jpg","null","mooney2","image-keyboard-response","249","779342","0.0-6.0-5.34","2439711","co37852","norming","","","","","","",""
"3219.75500008557","","","post_reveal_questions","survey-likert","250","782564","0.0-6.0-6.34","2439711","co37852","norming","","","{""aha"":0}","[0]","../img/tt/1226tt.jpg","",""
"null","<div style=""font-size:60px;""> </div>","null","fixation","html-keyboard-response","251","782782","0.0-6.0-0.35","2439711","co37852","norming","","","","","","",""
"null","../img/tt/082tt.jpg","null","mooney1","image-keyboard-response","252","785796","0.0-6.0-1.35","2439711","co37852","norming","","","","","","",""
"4318.469999940135","","","post_mooney1_questions","survey-likert","253","790118","0.0-6.0-2.35","2439711","co37852","norming","","","{""curiosity"":5,""confidence"":6}","[0,1]","../img/tt/082tt.jpg","",""
"3506.855000043288","","","recognition","survey-text","254","793630","0.0-6.0-3.35","2439711","co37852","norming","","","{""guess"":""papegaai""}","","../img/tt/082tt.jpg","",""
"null","../img/gs/082gs.jpg","null","reveal","image-keyboard-response","255","795648","0.0-6.0-4.35","2439711","co37852","norming","","","","","","",""
"null","../img/tt/082tt.jpg","null","mooney2","image-keyboard-response","256","797658","0.0-6.0-5.35","2439711","co37852","norming","","","","","","",""
"1922.1949999919161","","","post_reveal_questions","survey-likert","257","799583","0.0-6.0-6.35","2439711","co37852","norming","","","{""aha"":0}","[0]","../img/tt/082tt.jpg","",""
"null","<div style=""font-size:60px;""> </div>","null","fixation","html-keyboard-response","258","799788","0.0-6.0-0.36","2439711","co37852","norming","","","","","","",""
"null","../img/tt/163tt.jpg","null","mooney1","image-keyboard-response","259","802797","0.0-6.0-1.36","2439711","co37852","norming","","","","","","",""
"3921.5450000483543","","","post_mooney1_questions","survey-likert","260","806720","0.0-6.0-2.36","2439711","co37852","norming","","","{""curiosity"":5,""confidence"":4}","[0,1]","../img/tt/163tt.jpg","",""
"3418.6599999666214","","","recognition","survey-text","261","810144","0.0-6.0-3.36","2439711","co37852","norming","","","{""guess"":""cheetah""}","","../img/tt/163tt.jpg","",""
"null","../img/gs/163gs.jpg","null","reveal","image-keyboard-response","262","812149","0.0-6.0-4.36","2439711","co37852","norming","","","","","","",""
"null","../img/tt/163tt.jpg","null","mooney2","image-keyboard-response","263","814151","0.0-6.0-5.36","2439711","co37852","norming","","","","","","",""
"2423.670000047423","","","post_reveal_questions","survey-likert","264","816577","0.0-6.0-6.36","2439711","co37852","norming","","","{""aha"":5}","[0]","../img/tt/163tt.jpg","",""
"null","<div style=""font-size:60px;""> </div>","null","fixation","html-keyboard-response","265","816793","0.0-6.0-0.37","2439711","co37852","norming","","","","","","",""
"null","../img/tt/1228tt.jpg","null","mooney1","image-keyboard-response","266","819806","0.0-6.0-1.37","2439711","co37852","norming","","","","","","",""
"3577.449999982491","","","post_mooney1_questions","survey-likert","267","823387","0.0-6.0-2.37","2439711","co37852","norming","","","{""curiosity"":2,""confidence"":2}","[0,1]","../img/tt/1228tt.jpg","",""
"3033.779999939725","","","recognition","survey-text","268","826426","0.0-6.0-3.37","2439711","co37852","norming","","","{""guess"":""vlinder""}","","../img/tt/1228tt.jpg","",""
"null","../img/gs/1228gs.jpg","null","reveal","image-keyboard-response","269","828428","0.0-6.0-4.37","2439711","co37852","norming","","","","","","",""
"null","../img/tt/1228tt.jpg","null","mooney2","image-keyboard-response","270","830438","0.0-6.0-5.37","2439711","co37852","norming","","","","","","",""
"2122.319999965839","","","post_reveal_questions","survey-likert","271","832563","0.0-6.0-6.37","2439711","co37852","norming","","","{""aha"":3}","[0]","../img/tt/1228tt.jpg","",""
"null","<div style=""font-size:60px;""> </div>","null","fixation","html-keyboard-response","272","832777","0.0-6.0-0.38","2439711","co37852","norming","","","","","","",""
"null","../img/tt/111tt.jpg","null","mooney1","image-keyboard-response","273","835789","0.0-6.0-1.38","2439711","co37852","norming","","","","","","",""
"4853.080000029877","","","post_mooney1_questions","survey-likert","274","840646","0.0-6.0-2.38","2439711","co37852","norming","","","{""curiosity"":1,""confidence"":6}","[0,1]","../img/tt/111tt.jpg","",""
"6242.809999966994","","","recognition","survey-text","275","846894","0.0-6.0-3.38","2439711","co37852","norming","","","{""guess"":""douche water""}","","../img/tt/111tt.jpg","",""
"null","../img/gs/111gs.jpg","null","reveal","image-keyboard-response","276","848906","0.0-6.0-4.38","2439711","co37852","norming","","","","","","",""
"null","../img/tt/111tt.jpg","null","mooney2","image-keyboard-response","277","850910","0.0-6.0-5.38","2439711","co37852","norming","","","","","","",""
"2630.0699999555945","","","post_reveal_questions","survey-likert","278","853542","0.0-6.0-6.38","2439711","co37852","norming","","","{""aha"":0}","[0]","../img/tt/111tt.jpg","",""
"null","<div style=""font-size:60px;""> </div>","null","fixation","html-keyboard-response","279","853754","0.0-6.0-0.39","2439711","co37852","norming","","","","","","",""
"null","../img/tt/085tt.jpg","null","mooney1","image-keyboard-response","280","856759","0.0-6.0-1.39","2439711","co37852","norming","","","","","","",""
"4045.035000075586","","","post_mooney1_questions","survey-likert","281","860808","0.0-6.0-2.39","2439711","co37852","norming","","","{""curiosity"":2,""confidence"":3}","[0,1]","../img/tt/085tt.jpg","",""
"3099.129999987781","","","recognition","survey-text","282","863912","0.0-6.0-3.39","2439711","co37852","norming","","","{""guess"":""insect""}","","../img/tt/085tt.jpg","",""
"null","../img/gs/085gs.jpg","null","reveal","image-keyboard-response","283","865929","0.0-6.0-4.39","2439711","co37852","norming","","","","","","",""
"null","../img/tt/085tt.jpg","null","mooney2","image-keyboard-response","284","867937","0.0-6.0-5.39","2439711","co37852","norming","","","","","","",""
"2997.2999999299645","","","post_reveal_questions","survey-likert","285","870938","0.0-6.0-6.39","2439711","co37852","norming","","","{""aha"":1}","[0]","../img/tt/085tt.jpg","",""
"null","<div style=""font-size:60px;""> </div>","null","fixation","html-keyboard-response","286","871142","0.0-6.0-0.40","2439711","co37852","norming","","","","","","",""
"null","../img/tt/1241tt.jpg","null","mooney1","image-keyboard-response","287","874159","0.0-6.0-1.40","2439711","co37852","norming","","","","","","",""
"5530.42500000447","","","post_mooney1_questions","survey-likert","288","879691","0.0-6.0-2.40","2439711","co37852","norming","","","{""curiosity"":5,""confidence"":2}","[0,1]","../img/tt/1241tt.jpg","",""
"14636.199999949895","","","recognition","survey-text","289","894333","0.0-6.0-3.40","2439711","co37852","norming","","","{""guess"":""bal""}","","../img/tt/1241tt.jpg","",""
"null","../img/gs/1241gs.jpg","null","reveal","image-keyboard-response","290","896341","0.0-6.0-4.40","2439711","co37852","norming","","","","","","",""
"null","../img/tt/1241tt.jpg","null","mooney2","image-keyboard-response","291","898348","0.0-6.0-5.40","2439711","co37852","norming","","","","","","",""
"6047.239999985322","","","post_reveal_questions","survey-likert","292","904398","0.0-6.0-6.40","2439711","co37852","norming","","","{""aha"":6}","[0]","../img/tt/1241tt.jpg","",""
"null","<div style=""font-size:60px;""> </div>","null","fixation","html-keyboard-response","293","904603","0.0-6.0-0.41","2439711","co37852","norming","","","","","","",""
"null","../img/tt/007tt.jpg","null","mooney1","image-keyboard-response","294","907606","0.0-6.0-1.41","2439711","co37852","norming","","","","","","",""
"3558.1500000553206","","","post_mooney1_questions","survey-likert","295","911167","0.0-6.0-2.41","2439711","co37852","norming","","","{""curiosity"":4,""confidence"":2}","[0,1]","../img/tt/007tt.jpg","",""
"3298.8050000276417","","","recognition","survey-text","296","914471","0.0-6.0-3.41","2439711","co37852","norming","","","{""guess"":""walrus""}","","../img/tt/007tt.jpg","",""
"null","../img/gs/007gs.jpg","null","reveal","image-keyboard-response","297","916479","0.0-6.0-4.41","2439711","co37852","norming","","","","","","",""
"null","../img/tt/007tt.jpg","null","mooney2","image-keyboard-response","298","918483","0.0-6.0-5.41","2439711","co37852","norming","","","","","","",""
"8114.41499995999","","","post_reveal_questions","survey-likert","299","926601","0.0-6.0-6.41","2439711","co37852","norming","","","{""aha"":4}","[0]","../img/tt/007tt.jpg","",""
"null","<div style=""font-size:60px;""> </div>","null","fixation","html-keyboard-response","300","926806","0.0-6.0-0.42","2439711","co37852","norming","","","","","","",""
"null","../img/tt/1173tt.jpg","null","mooney1","image-keyboard-response","301","929821","0.0-6.0-1.42","2439711","co37852","norming","","","","","","",""
"3426.1000000406057","","","post_mooney1_questions","survey-likert","302","933250","0.0-6.0-2.42","2439711","co37852","norming","","","{""curiosity"":4,""confidence"":3}","[0,1]","../img/tt/1173tt.jpg","",""
"4778.500000014901","","","recognition","survey-text","303","938035","0.0-6.0-3.42","2439711","co37852","norming","","","{""guess"":""cheerleader""}","","../img/tt/1173tt.jpg","",""
"null","../img/gs/1173gs.jpg","null","reveal","image-keyboard-response","304","940042","0.0-6.0-4.42","2439711","co37852","norming","","","","","","",""
"null","../img/tt/1173tt.jpg","null","mooney2","image-keyboard-response","305","942053","0.0-6.0-5.42","2439711","co37852","norming","","","","","","",""
"1660.425000009127","","","post_reveal_questions","survey-likert","306","943716","0.0-6.0-6.42","2439711","co37852","norming","","","{""aha"":2}","[0]","../img/tt/1173tt.jpg","",""
"null","<div style=""font-size:60px;""> </div>","null","fixation","html-keyboard-response","307","943931","0.0-6.0-0.43","2439711","co37852","norming","","","","","","",""
"null","../img/tt/1091tt.jpg","null","mooney1","image-keyboard-response","308","946945","0.0-6.0-1.43","2439711","co37852","norming","","","","","","",""
"7601.0049999458715","","","post_mooney1_questions","survey-likert","309","954549","0.0-6.0-2.43","2439711","co37852","norming","","","{""curiosity"":2,""confidence"":6}","[0,1]","../img/tt/1091tt.jpg","",""
"4601.989999995567","","","recognition","survey-text","310","959157","0.0-6.0-3.43","2439711","co37852","norming","","","{""guess"":""paard weide""}","","../img/tt/1091tt.jpg","",""
"null","../img/gs/1091gs.jpg","null","reveal","image-keyboard-response","311","961163","0.0-6.0-4.43","2439711","co37852","norming","","","","","","",""
"null","../img/tt/1091tt.jpg","null","mooney2","image-keyboard-response","312","963167","0.0-6.0-5.43","2439711","co37852","norming","","","","","","",""
"3821.2899999925867","","","post_reveal_questions","survey-likert","313","966991","0.0-6.0-6.43","2439711","co37852","norming","","","{""aha"":0}","[0]","../img/tt/1091tt.jpg","",""
"null","<div style=""font-size:60px;""> </div>","null","fixation","html-keyboard-response","314","967201","0.0-6.0-0.44","2439711","co37852","norming","","","","","","",""
"null","../img/tt/438tt.jpg","null","mooney1","image-keyboard-response","315","970214","0.0-6.0-1.44","2439711","co37852","norming","","","","","","",""
"3497.344999923371","","","post_mooney1_questions","survey-likert","316","973714","0.0-6.0-2.44","2439711","co37852","norming","","","{""curiosity"":3,""confidence"":2}","[0,1]","../img/tt/438tt.jpg","",""
"3338.024999946356","","","recognition","survey-text","317","977058","0.0-6.0-3.44","2439711","co37852","norming","","","{""guess"":""rits""}","","../img/tt/438tt.jpg","",""
"null","../img/gs/438gs.jpg","null","reveal","image-keyboard-response","318","979066","0.0-6.0-4.44","2439711","co37852","norming","","","","","","",""
"null","../img/tt/438tt.jpg","null","mooney2","image-keyboard-response","319","981080","0.0-6.0-5.44","2439711","co37852","norming","","","","","","",""
"4479.5250000897795","","","post_reveal_questions","survey-likert","320","985563","0.0-6.0-6.44","2439711","co37852","norming","","","{""aha"":1}","[0]","../img/tt/438tt.jpg","",""
"null","<div style=""font-size:60px;""> </div>","null","fixation","html-keyboard-response","321","985769","0.0-6.0-0.45","2439711","co37852","norming","","","","","","",""
"null","../img/tt/108tt.jpg","null","mooney1","image-keyboard-response","322","988787","0.0-6.0-1.45","2439711","co37852","norming","","","","","","",""
"2993.6150000430644","","","post_mooney1_questions","survey-likert","323","991784","0.0-6.0-2.45","2439711","co37852","norming","","","{""curiosity"":4,""confidence"":3}","[0,1]","../img/tt/108tt.jpg","",""
"4323.130000033416","","","recognition","survey-text","324","996113","0.0-6.0-3.45","2439711","co37852","norming","","","{""guess"":""beer bos""}","","../img/tt/108tt.jpg","",""
"null","../img/gs/108gs.jpg","null","reveal","image-keyboard-response","325","998115","0.0-6.0-4.45","2439711","co37852","norming","","","","","","",""
"null","../img/tt/108tt.jpg","null","mooney2","image-keyboard-response","326","1000124","0.0-6.0-5.45","2439711","co37852","norming","","","","","","",""
"3363.0850000772625","","","post_reveal_questions","survey-likert","327","1003490","0.0-6.0-6.45","2439711","co37852","norming","","","{""aha"":3}","[0]","../img/tt/108tt.jpg","",""
"null","<div style=""font-size:60px;""> </div>","null","fixation","html-keyboard-response","328","1003699","0.0-6.0-0.46","2439711","co37852","norming","","","","","","",""
"null","../img/tt/599tt.jpg","null","mooney1","image-keyboard-response","329","1006709","0.0-6.0-1.46","2439711","co37852","norming","","","","","","",""
"6066.36499997694","","","post_mooney1_questions","survey-likert","330","1012779","0.0-6.0-2.46","2439711","co37852","norming","","","{""curiosity"":4,""confidence"":0}","[0,1]","../img/tt/599tt.jpg","",""
"3353.2849999610335","","","recognition","survey-text","331","1016139","0.0-6.0-3.46","2439711","co37852","norming","","","{""guess"":""slang""}","","../img/tt/599tt.jpg","",""
"null","../img/gs/599gs.jpg","null","reveal","image-keyboard-response","332","1018140","0.0-6.0-4.46","2439711","co37852","norming","","","","","","",""
"null","../img/tt/599tt.jpg","null","mooney2","image-keyboard-response","333","1020152","0.0-6.0-5.46","2439711","co37852","norming","","","","","","",""
"2290.419999975711","","","post_reveal_questions","survey-likert","334","1022445","0.0-6.0-6.46","2439711","co37852","norming","","","{""aha"":3}","[0]","../img/tt/599tt.jpg","",""
"null","<div style=""font-size:60px;""> </div>","null","fixation","html-keyboard-response","335","1022660","0.0-6.0-0.47","2439711","co37852","norming","","","","","","",""
"null","../img/tt/1063tt.jpg","null","mooney1","image-keyboard-response","336","1025671","0.0-6.0-1.47","2439711","co37852","norming","","","","","","",""
"3098.7500000046566","","","post_mooney1_questions","survey-likert","337","1028773","0.0-6.0-2.47","2439711","co37852","norming","","","{""curiosity"":3,""confidence"":3}","[0,1]","../img/tt/1063tt.jpg","",""
"3219.2100000102073","","","recognition","survey-text","338","1031998","0.0-6.0-3.47","2439711","co37852","norming","","","{""guess"":""koe""}","","../img/tt/1063tt.jpg","",""
"null","../img/gs/1063gs.jpg","null","reveal","image-keyboard-response","339","1034008","0.0-6.0-4.47","2439711","co37852","norming","","","","","","",""
"null","../img/tt/1063tt.jpg","null","mooney2","image-keyboard-response","340","1036011","0.0-6.0-5.47","2439711","co37852","norming","","","","","","",""
"3448.659999994561","","","post_reveal_questions","survey-likert","341","1039463","0.0-6.0-6.47","2439711","co37852","norming","","","{""aha"":4}","[0]","../img/tt/1063tt.jpg","",""
"null","<div style=""font-size:60px;""> </div>","null","fixation","html-keyboard-response","342","1039668","0.0-6.0-0.48","2439711","co37852","norming","","","","","","",""
"null","../img/tt/534tt.jpg","null","mooney1","image-keyboard-response","343","1042687","0.0-6.0-1.48","2439711","co37852","norming","","","","","","",""
"4109.670000034384","","","post_mooney1_questions","survey-likert","344","1046800","0.0-6.0-2.48","2439711","co37852","norming","","","{""curiosity"":4,""confidence"":4}","[0,1]","../img/tt/534tt.jpg","",""
"3570.010000024922","","","recognition","survey-text","345","1050376","0.0-6.0-3.48","2439711","co37852","norming","","","{""guess"":""natuur""}","","../img/tt/534tt.jpg","",""
"null","../img/gs/534gs.jpg","null","reveal","image-keyboard-response","346","1052381","0.0-6.0-4.48","2439711","co37852","norming","","","","","","",""
"null","../img/tt/534tt.jpg","null","mooney2","image-keyboard-response","347","1054383","0.0-6.0-5.48","2439711","co37852","norming","","","","","","",""
"11304.009999963455","","","post_reveal_questions","survey-likert","348","1065690","0.0-6.0-6.48","2439711","co37852","norming","","","{""aha"":1}","[0]","../img/tt/534tt.jpg","",""
"null","<div style=""font-size:60px;""> </div>","null","fixation","html-keyboard-response","349","1065897","0.0-6.0-0.49","2439711","co37852","norming","","","","","","",""
"null","../img/tt/1107tt.jpg","null","mooney1","image-keyboard-response","350","1068912","0.0-6.0-1.49","2439711","co37852","norming","","","","","","",""
"3567.9400000954047","","","post_mooney1_questions","survey-likert","351","1072483","0.0-6.0-2.49","2439711","co37852","norming","","","{""curiosity"":4,""confidence"":3}","[0,1]","../img/tt/1107tt.jpg","",""
"5571.055000065826","","","recognition","survey-text","352","1078060","0.0-6.0-3.49","2439711","co37852","norming","","","{""guess"":""vleeruis""}","","../img/tt/1107tt.jpg","",""
"null","../img/gs/1107gs.jpg","null","reveal","image-keyboard-response","353","1080072","0.0-6.0-4.49","2439711","co37852","norming","","","","","","",""
"null","../img/tt/1107tt.jpg","null","mooney2","image-keyboard-response","354","1082074","0.0-6.0-5.49","2439711","co37852","norming","","","","","","",""
"1591.9350000331178","","","post_reveal_questions","survey-likert","355","1083669","0.0-6.0-6.49","2439711","co37852","norming","","","{""aha"":3}","[0]","../img/tt/1107tt.jpg","",""
"null","<div style=""font-size:60px;""> </div>","null","fixation","html-keyboard-response","356","1083876","0.0-6.0-0.50","2439711","co37852","norming","","","","","","",""
"null","../img/tt/497tt.jpg","null","mooney1","image-keyboard-response","357","1086883","0.0-6.0-1.50","2439711","co37852","norming","","","","","","",""
"4343.489999999292","","","post_mooney1_questions","survey-likert","358","1091230","0.0-6.0-2.50","2439711","co37852","norming","","","{""curiosity"":4,""confidence"":4}","[0,1]","../img/tt/497tt.jpg","",""
"4378.04999994114","","","recognition","survey-text","359","1095614","0.0-6.0-3.50","2439711","co37852","norming","","","{""guess"":""platendraier""}","","../img/tt/497tt.jpg","",""
"null","../img/gs/497gs.jpg","null","reveal","image-keyboard-response","360","1097625","0.0-6.0-4.50","2439711","co37852","norming","","","","","","",""
"null","../img/tt/497tt.jpg","null","mooney2","image-keyboard-response","361","1099630","0.0-6.0-5.50","2439711","co37852","norming","","","","","","",""
"2894.0899999579415","","","post_reveal_questions","survey-likert","362","1102527","0.0-6.0-6.50","2439711","co37852","norming","","","{""aha"":2}","[0]","../img/tt/497tt.jpg","",""
"null","<div style=""font-size:60px;""> </div>","null","fixation","html-keyboard-response","363","1102731","0.0-6.0-0.51","2439711","co37852","norming","","","","","","",""
"null","../img/tt/1080tt.jpg","null","mooney1","image-keyboard-response","364","1105735","0.0-6.0-1.51","2439711","co37852","norming","","","","","","",""
"2766.0600000526756","","","post_mooney1_questions","survey-likert","365","1108504","0.0-6.0-2.51","2439711","co37852","norming","","","{""curiosity"":1,""confidence"":1}","[0,1]","../img/tt/1080tt.jpg","",""
"5899.109999998473","","","recognition","survey-text","366","1114408","0.0-6.0-3.51","2439711","co37852","norming","","","{""guess"":""glijbaan""}","","../img/tt/1080tt.jpg","",""
"null","../img/gs/1080gs.jpg","null","reveal","image-keyboard-response","367","1116424","0.0-6.0-4.51","2439711","co37852","norming","","","","","","",""
"null","../img/tt/1080tt.jpg","null","mooney2","image-keyboard-response","368","1118441","0.0-6.0-5.51","2439711","co37852","norming","","","","","","",""
"1901.6999999294057","","","post_reveal_questions","survey-likert","369","1120345","0.0-6.0-6.51","2439711","co37852","norming","","","{""aha"":2}","[0]","../img/tt/1080tt.jpg","",""
"null","<div style=""font-size:60px;""> </div>","null","fixation","html-keyboard-response","370","1120563","0.0-6.0-0.52","2439711","co37852","norming","","","","","","",""
"null","../img/tt/1181tt.jpg","null","mooney1","image-keyboard-response","371","1123572","0.0-6.0-1.52","2439711","co37852","norming","","","","","","",""
"3018.9750000135973","","","post_mooney1_questions","survey-likert","372","1126595","0.0-6.0-2.52","2439711","co37852","norming","","","{""curiosity"":1,""confidence"":1}","[0,1]","../img/tt/1181tt.jpg","",""
"929.5949999941513","","","recognition","survey-text","373","1127530","0.0-6.0-3.52","2439711","co37852","norming","","","{""guess"":""""}","","../img/tt/1181tt.jpg","",""
"null","../img/gs/1181gs.jpg","null","reveal","image-keyboard-response","374","1129547","0.0-6.0-4.52","2439711","co37852","norming","","","","","","",""
"null","../img/tt/1181tt.jpg","null","mooney2","image-keyboard-response","375","1131558","0.0-6.0-5.52","2439711","co37852","norming","","","","","","",""
"4162.729999981821","","","post_reveal_questions","survey-likert","376","1135724","0.0-6.0-6.52","2439711","co37852","norming","","","{""aha"":5}","[0]","../img/tt/1181tt.jpg","",""
"null","<div style=""font-size:60px;""> </div>","null","fixation","html-keyboard-response","377","1135937","0.0-6.0-0.53","2439711","co37852","norming","","","","","","",""
"null","../img/tt/603tt.jpg","null","mooney1","image-keyboard-response","378","1138941","0.0-6.0-1.53","2439711","co37852","norming","","","","","","",""
"2619.4050000049174","","","post_mooney1_questions","survey-likert","379","1141564","0.0-6.0-2.53","2439711","co37852","norming","","","{""curiosity"":2,""confidence"":2}","[0,1]","../img/tt/603tt.jpg","",""
"2339.019999955781","","","recognition","survey-text","380","1143908","0.0-6.0-3.53","2439711","co37852","norming","","","{""guess"":""dier""}","","../img/tt/603tt.jpg","",""
"null","../img/gs/603gs.jpg","null","reveal","image-keyboard-response","381","1145918","0.0-6.0-4.53","2439711","co37852","norming","","","","","","",""
"null","../img/tt/603tt.jpg","null","mooney2","image-keyboard-response","382","1147928","0.0-6.0-5.53","2439711","co37852","norming","","","","","","",""
"3034.719999996014","","","post_reveal_questions","survey-likert","383","1150965","0.0-6.0-6.53","2439711","co37852","norming","","","{""aha"":3}","[0]","../img/tt/603tt.jpg","",""
"null","<div style=""font-size:60px;""> </div>","null","fixation","html-keyboard-response","384","1151182","0.0-6.0-0.54","2439711","co37852","norming","","","","","","",""
"null","../img/tt/1242tt.jpg","null","mooney1","image-keyboard-response","385","1154186","0.0-6.0-1.54","2439711","co37852","norming","","","","","","",""
"4377.934999996796","","","post_mooney1_questions","survey-likert","386","1158567","0.0-6.0-2.54","2439711","co37852","norming","","","{""curiosity"":0,""confidence"":6}","[0,1]","../img/tt/1242tt.jpg","",""
"2347.094999975525","","","recognition","survey-text","387","1160919","0.0-6.0-3.54","2439711","co37852","norming","","","{""guess"":""vos""}","","../img/tt/1242tt.jpg","",""
"null","../img/gs/1242gs.jpg","null","reveal","image-keyboard-response","388","1162921","0.0-6.0-4.54","2439711","co37852","norming","","","","","","",""
"null","../img/tt/1242tt.jpg","null","mooney2","image-keyboard-response","389","1164926","0.0-6.0-5.54","2439711","co37852","norming","","","","","","",""
"4735.839999979362","","","post_reveal_questions","survey-likert","390","1169664","0.0-6.0-6.54","2439711","co37852","norming","","","{""aha"":0}","[0]","../img/tt/1242tt.jpg","",""
"null","<div style=""font-size:60px;""> </div>","null","fixation","html-keyboard-response","391","1169870","0.0-6.0-0.55","2439711","co37852","norming","","","","","","",""
"null","../img/tt/010tt.jpg","null","mooney1","image-keyboard-response","392","1172879","0.0-6.0-1.55","2439711","co37852","norming","","","","","","",""
"3719.2800000775605","","","post_mooney1_questions","survey-likert","393","1176602","0.0-6.0-2.55","2439711","co37852","norming","","","{""curiosity"":1,""confidence"":0}","[0,1]","../img/tt/010tt.jpg","",""
"689.8600000422448","","","recognition","survey-text","394","1177298","0.0-6.0-3.55","2439711","co37852","norming","","","{""guess"":""""}","","../img/tt/010tt.jpg","",""
"null","../img/gs/010gs.jpg","null","reveal","image-keyboard-response","395","1179303","0.0-6.0-4.55","2439711","co37852","norming","","","","","","",""
"null","../img/tt/010tt.jpg","null","mooney2","image-keyboard-response","396","1181309","0.0-6.0-5.55","2439711","co37852","norming","","","","","","",""
"2018.110000062734","","","post_reveal_questions","survey-likert","397","1183330","0.0-6.0-6.55","2439711","co37852","norming","","","{""aha"":2}","[0]","../img/tt/010tt.jpg","",""
"null","<div style=""font-size:60px;""> </div>","null","fixation","html-keyboard-response","398","1183543","0.0-6.0-0.56","2439711","co37852","norming","","","","","","",""
"null","../img/tt/1227tt.jpg","null","mooney1","image-keyboard-response","399","1186546","0.0-6.0-1.56","2439711","co37852","norming","","","","","","",""
"2734.6700000343844","","","post_mooney1_questions","survey-likert","400","1189284","0.0-6.0-2.56","2439711","co37852","norming","","","{""curiosity"":3,""confidence"":3}","[0,1]","../img/tt/1227tt.jpg","",""
"3057.8649999806657","","","recognition","survey-text","401","1192348","0.0-6.0-3.56","2439711","co37852","norming","","","{""guess"":""land""}","","../img/tt/1227tt.jpg","",""
"null","../img/gs/1227gs.jpg","null","reveal","image-keyboard-response","402","1194358","0.0-6.0-4.56","2439711","co37852","norming","","","","","","",""
"null","../img/tt/1227tt.jpg","null","mooney2","image-keyboard-response","403","1196375","0.0-6.0-5.56","2439711","co37852","norming","","","","","","",""
"2953.56999989599","","","post_reveal_questions","survey-likert","404","1199332","0.0-6.0-6.56","2439711","co37852","norming","","","{""aha"":3}","[0]","../img/tt/1227tt.jpg","",""
"null","<div style=""font-size:60px;""> </div>","null","fixation","html-keyboard-response","405","1199547","0.0-6.0-0.57","2439711","co37852","norming","","","","","","",""
"null","../img/tt/549tt.jpg","null","mooney1","image-keyboard-response","406","1202550","0.0-6.0-1.57","2439711","co37852","norming","","","","","","",""
"3982.175000011921","","","post_mooney1_questions","survey-likert","407","1206536","0.0-6.0-2.57","2439711","co37852","norming","","","{""curiosity"":2,""confidence"":4}","[0,1]","../img/tt/549tt.jpg","",""
"3599.320000037551","","","recognition","survey-text","408","1210142","0.0-6.0-3.57","2439711","co37852","norming","","","{""guess"":""plank""}","","../img/tt/549tt.jpg","",""
"null","../img/gs/549gs.jpg","null","reveal","image-keyboard-response","409","1212149","0.0-6.0-4.57","2439711","co37852","norming","","","","","","",""
"null","../img/tt/549tt.jpg","null","mooney2","image-keyboard-response","410","1214165","0.0-6.0-5.57","2439711","co37852","norming","","","","","","",""
"4742.910000029951","","","post_reveal_questions","survey-likert","411","1218911","0.0-6.0-6.57","2439711","co37852","norming","","","{""aha"":4}","[0]","../img/tt/549tt.jpg","",""
"null","<div style=""font-size:60px;""> </div>","null","fixation","html-keyboard-response","412","1219116","0.0-6.0-0.58","2439711","co37852","norming","","","","","","",""
"null","../img/tt/559tt.jpg","null","mooney1","image-keyboard-response","413","1222132","0.0-6.0-1.58","2439711","co37852","norming","","","","","","",""
"4168.745000031777","","","post_mooney1_questions","survey-likert","414","1226304","0.0-6.0-2.58","2439711","co37852","norming","","","{""curiosity"":3,""confidence"":3}","[0,1]","../img/tt/559tt.jpg","",""
"1195.0199999846518","","","recognition","survey-text","415","1227505","0.0-6.0-3.58","2439711","co37852","norming","","","{""guess"":""""}","","../img/tt/559tt.jpg","",""
"null","../img/gs/559gs.jpg","null","reveal","image-keyboard-response","416","1229509","0.0-6.0-4.58","2439711","co37852","norming","","","","","","",""
"null","../img/tt/559tt.jpg","null","mooney2","image-keyboard-response","417","1231515","0.0-6.0-5.58","2439711","co37852","norming","","","","","","",""
"2410.799999954179","","","post_reveal_questions","survey-likert","418","1233929","0.0-6.0-6.58","2439711","co37852","norming","","","{""aha"":1}","[0]","../img/tt/559tt.jpg","",""
"null","<div style=""font-size:60px;""> </div>","null","fixation","html-keyboard-response","419","1234147","0.0-6.0-0.59","2439711","co37852","norming","","","","","","",""
"null","../img/tt/081tt.jpg","null","mooney1","image-keyboard-response","420","1237151","0.0-6.0-1.59","2439711","co37852","norming","","","","","","",""
"2869.315000018105","","","post_mooney1_questions","survey-likert","421","1240026","0.0-6.0-2.59","2439711","co37852","norming","","","{""curiosity"":2,""confidence"":4}","[0,1]","../img/tt/081tt.jpg","",""
"2866.68999993708","","","recognition","survey-text","422","1242898","0.0-6.0-3.59","2439711","co37852","norming","","","{""guess"":""hond""}","","../img/tt/081tt.jpg","",""
"null","../img/gs/081gs.jpg","null","reveal","image-keyboard-response","423","1244913","0.0-6.0-4.59","2439711","co37852","norming","","","","","","",""
"null","../img/tt/081tt.jpg","null","mooney2","image-keyboard-response","424","1246931","0.0-6.0-5.59","2439711","co37852","norming","","","","","","",""
"3252.790000056848","","","post_reveal_questions","survey-likert","425","1250187","0.0-6.0-6.59","2439711","co37852","norming","","","{""aha"":3}","[0]","../img/tt/081tt.jpg","",""
"null","<div style=""font-size:60px;""> </div>","null","fixation","html-keyboard-response","426","1250402","0.0-6.0-0.60","2439711","co37852","norming","","","","","","",""
"null","../img/tt/124tt.jpg","null","mooney1","image-keyboard-response","427","1253406","0.0-6.0-1.60","2439711","co37852","norming","","","","","","",""
"3795.5000000074506","","","post_mooney1_questions","survey-likert","428","1257205","0.0-6.0-2.60","2439711","co37852","norming","","","{""curiosity"":4,""confidence"":6}","[0,1]","../img/tt/124tt.jpg","",""
"4170.090000028722","","","recognition","survey-text","429","1261380","0.0-6.0-3.60","2439711","co37852","norming","","","{""guess"":""aap jungle""}","","../img/tt/124tt.jpg","",""
"null","../img/gs/124gs.jpg","null","reveal","image-keyboard-response","430","1263384","0.0-6.0-4.60","2439711","co37852","norming","","","","","","",""
"null","../img/tt/124tt.jpg","null","mooney2","image-keyboard-response","431","1265389","0.0-6.0-5.60","2439711","co37852","norming","","","","","","",""
"3094.64999998454","","","post_reveal_questions","survey-likert","432","1268486","0.0-6.0-6.60","2439711","co37852","norming","","","{""aha"":0}","[0]","../img/tt/124tt.jpg","",""
"null","<div style=""font-size:60px;""> </div>","null","fixation","html-keyboard-response","433","1268698","0.0-6.0-0.61","2439711","co37852","norming","","","","","","",""
"null","../img/tt/436tt.jpg","null","mooney1","image-keyboard-response","434","1271712","0.0-6.0-1.61","2439711","co37852","norming","","","","","","",""
"2659.230000106618","","","post_mooney1_questions","survey-likert","435","1274375","0.0-6.0-2.61","2439711","co37852","norming","","","{""curiosity"":4,""confidence"":4}","[0,1]","../img/tt/436tt.jpg","",""
"13347.564999945462","","","recognition","survey-text","436","1287728","0.0-6.0-3.61","2439711","co37852","norming","","","{""guess"":""reptiel leguaan""}","","../img/tt/436tt.jpg","",""
"null","../img/gs/436gs.jpg","null","reveal","image-keyboard-response","437","1289731","0.0-6.0-4.61","2439711","co37852","norming","","","","","","",""
"null","../img/tt/436tt.jpg","null","mooney2","image-keyboard-response","438","1291743","0.0-6.0-5.61","2439711","co37852","norming","","","","","","",""
"11200.255000032485","","","post_reveal_questions","survey-likert","439","1302946","0.0-6.0-6.61","2439711","co37852","norming","","","{""aha"":3}","[0]","../img/tt/436tt.jpg","",""
"null","<div style=""font-size:60px;""> </div>","null","fixation","html-keyboard-response","440","1303151","0.0-6.0-0.62","2439711","co37852","norming","","","","","","",""
"null","../img/tt/1309tt.jpg","null","mooney1","image-keyboard-response","441","1306163","0.0-6.0-1.62","2439711","co37852","norming","","","","","","",""
"3981.59000009764","","","post_mooney1_questions","survey-likert","442","1310148","0.0-6.0-2.62","2439711","co37852","norming","","","{""curiosity"":0,""confidence"":0}","[0,1]","../img/tt/1309tt.jpg","",""
"585.7349999714643","","","recognition","survey-text","443","1310739","0.0-6.0-3.62","2439711","co37852","norming","","","{""guess"":""""}","","../img/tt/1309tt.jpg","",""
"null","../img/gs/1309gs.jpg","null","reveal","image-keyboard-response","444","1312753","0.0-6.0-4.62","2439711","co37852","norming","","","","","","",""
"null","../img/tt/1309tt.jpg","null","mooney2","image-keyboard-response","445","1314764","0.0-6.0-5.62","2439711","co37852","norming","","","","","","",""
"2460.8199999202043","","","post_reveal_questions","survey-likert","446","1317228","0.0-6.0-6.62","2439711","co37852","norming","","","{""aha"":3}","[0]","../img/tt/1309tt.jpg","",""
"null","<div style=""font-size:60px;""> </div>","null","fixation","html-keyboard-response","447","1317444","0.0-6.0-0.63","2439711","co37852","norming","","","","","","",""
"null","../img/tt/296tt.jpg","null","mooney1","image-keyboard-response","448","1320448","0.0-6.0-1.63","2439711","co37852","norming","","","","","","",""
"2994.7950000641868","","","post_mooney1_questions","survey-likert","449","1323446","0.0-6.0-2.63","2439711","co37852","norming","","","{""curiosity"":2,""confidence"":2}","[0,1]","../img/tt/296tt.jpg","",""
"2813.8050000416115","","","recognition","survey-text","450","1326265","0.0-6.0-3.63","2439711","co37852","norming","","","{""guess"":""labo""}","","../img/tt/296tt.jpg","",""
"null","../img/gs/296gs.jpg","null","reveal","image-keyboard-response","451","1328271","0.0-6.0-4.63","2439711","co37852","norming","","","","","","",""
"null","../img/tt/296tt.jpg","null","mooney2","image-keyboard-response","452","1330274","0.0-6.0-5.63","2439711","co37852","norming","","","","","","",""
"2480.905000003986","","","post_reveal_questions","survey-likert","453","1332758","0.0-6.0-6.63","2439711","co37852","norming","","","{""aha"":3}","[0]","../img/tt/296tt.jpg","",""
"null","<div style=""font-size:60px;""> </div>","null","fixation","html-keyboard-response","454","1332965","0.0-6.0-0.64","2439711","co37852","norming","","","","","","",""
"null","../img/tt/076tt.jpg","null","mooney1","image-keyboard-response","455","1335983","0.0-6.0-1.64","2439711","co37852","norming","","","","","","",""
"5133.220000076108","","","post_mooney1_questions","survey-likert","456","1341120","0.0-6.0-2.64","2439711","co37852","norming","","","{""curiosity"":4,""confidence"":3}","[0,1]","../img/tt/076tt.jpg","",""
"5519.529999932274","","","recognition","survey-text","457","1346645","0.0-6.0-3.64","2439711","co37852","norming","","","{""guess"":""rolschaatsen""}","","../img/tt/076tt.jpg","",""
"null","../img/gs/076gs.jpg","null","reveal","image-keyboard-response","458","1348647","0.0-6.0-4.64","2439711","co37852","norming","","","","","","",""
"null","../img/tt/076tt.jpg","null","mooney2","image-keyboard-response","459","1350649","0.0-6.0-5.64","2439711","co37852","norming","","","","","","",""
"2005.1349999848753","","","post_reveal_questions","survey-likert","460","1352657","0.0-6.0-6.64","2439711","co37852","norming","","","{""aha"":4}","[0]","../img/tt/076tt.jpg","",""
"null","<div style=""font-size:60px;""> </div>","null","fixation","html-keyboard-response","461","1352864","0.0-6.0-0.65","2439711","co37852","norming","","","","","","",""
"null","../img/tt/096tt.jpg","null","mooney1","image-keyboard-response","462","1355874","0.0-6.0-1.65","2439711","co37852","norming","","","","","","",""
"2630.2799999248236","","","post_mooney1_questions","survey-likert","463","1358507","0.0-6.0-2.65","2439711","co37852","norming","","","{""curiosity"":3,""confidence"":3}","[0,1]","../img/tt/096tt.jpg","",""
"657.7899999683723","","","recognition","survey-text","464","1359170","0.0-6.0-3.65","2439711","co37852","norming","","","{""guess"":""""}","","../img/tt/096tt.jpg","",""
"null","../img/gs/096gs.jpg","null","reveal","image-keyboard-response","465","1361181","0.0-6.0-4.65","2439711","co37852","norming","","","","","","",""
"null","../img/tt/096tt.jpg","null","mooney2","image-keyboard-response","466","1363188","0.0-6.0-5.65","2439711","co37852","norming","","","","","","",""
"1923.6350000137463","","","post_reveal_questions","survey-likert","467","1365114","0.0-6.0-6.65","2439711","co37852","norming","","","{""aha"":3}","[0]","../img/tt/096tt.jpg","",""
"null","<div style=""font-size:60px;""> </div>","null","fixation","html-keyboard-response","468","1365326","0.0-6.0-0.66","2439711","co37852","norming","","","","","","",""
"null","../img/tt/358tt.jpg","null","mooney1","image-keyboard-response","469","1368330","0.0-6.0-1.66","2439711","co37852","norming","","","","","","",""
"2943.5750000411645","","","post_mooney1_questions","survey-likert","470","1371277","0.0-6.0-2.66","2439711","co37852","norming","","","{""curiosity"":2,""confidence"":2}","[0,1]","../img/tt/358tt.jpg","",""
"1782.829999923706","","","recognition","survey-text","471","1373065","0.0-6.0-3.66","2439711","co37852","norming","","","{""guess"":""dier""}","","../img/tt/358tt.jpg","",""
"null","../img/gs/358gs.jpg","null","reveal","image-keyboard-response","472","1375068","0.0-6.0-4.66","2439711","co37852","norming","","","","","","",""
"null","../img/tt/358tt.jpg","null","mooney2","image-keyboard-response","473","1377082","0.0-6.0-5.66","2439711","co37852","norming","","","","","","",""
"1888.2999999914318","","","post_reveal_questions","survey-likert","474","1378974","0.0-6.0-6.66","2439711","co37852","norming","","","{""aha"":3}","[0]","../img/tt/358tt.jpg","",""
"null","<div style=""font-size:60px;""> </div>","null","fixation","html-keyboard-response","475","1379188","0.0-6.0-0.67","2439711","co37852","norming","","","","","","",""
"null","../img/tt/1122tt.jpg","null","mooney1","image-keyboard-response","476","1382206","0.0-6.0-1.67","2439711","co37852","norming","","","","","","",""
"4212.019999977201","","","post_mooney1_questions","survey-likert","477","1386422","0.0-6.0-2.67","2439711","co37852","norming","","","{""curiosity"":0,""confidence"":6}","[0,1]","../img/tt/1122tt.jpg","",""
"7307.499999995343","","","recognition","survey-text","478","1393735","0.0-6.0-3.67","2439711","co37852","norming","","","{""guess"":""jachthaven""}","","../img/tt/1122tt.jpg","",""
"null","../img/gs/1122gs.jpg","null","reveal","image-keyboard-response","479","1395749","0.0-6.0-4.67","2439711","co37852","norming","","","","","","",""
"null","../img/tt/1122tt.jpg","null","mooney2","image-keyboard-response","480","1397763","0.0-6.0-5.67","2439711","co37852","norming","","","","","","",""
"12579.004999948665","","","post_reveal_questions","survey-likert","481","1410345","0.0-6.0-6.67","2439711","co37852","norming","","","{""aha"":3}","[0]","../img/tt/1122tt.jpg","",""
"null","<div style=""font-size:60px;""> </div>","null","fixation","html-keyboard-response","482","1410554","0.0-6.0-0.68","2439711","co37852","norming","","","","","","",""
"null","../img/tt/078tt.jpg","null","mooney1","image-keyboard-response","483","1413570","0.0-6.0-1.68","2439711","co37852","norming","","","","","","",""
"2883.930000010878","","","post_mooney1_questions","survey-likert","484","1416458","0.0-6.0-2.68","2439711","co37852","norming","","","{""curiosity"":3,""confidence"":3}","[0,1]","../img/tt/078tt.jpg","",""
"3995.4199999338016","","","recognition","survey-text","485","1420459","0.0-6.0-3.68","2439711","co37852","norming","","","{""guess"":""spikkels""}","","../img/tt/078tt.jpg","",""
"null","../img/gs/078gs.jpg","null","reveal","image-keyboard-response","486","1422465","0.0-6.0-4.68","2439711","co37852","norming","","","","","","",""
"null","../img/tt/078tt.jpg","null","mooney2","image-keyboard-response","487","1424467","0.0-6.0-5.68","2439711","co37852","norming","","","","","","",""
"3381.779999937862","","","post_reveal_questions","survey-likert","488","1427851","0.0-6.0-6.68","2439711","co37852","norming","","","{""aha"":4}","[0]","../img/tt/078tt.jpg","",""
"null","<div style=""font-size:60px;""> </div>","null","fixation","html-keyboard-response","489","1428070","0.0-6.0-0.69","2439711","co37852","norming","","","","","","",""
"null","../img/tt/1171tt.jpg","null","mooney1","image-keyboard-response","490","1431081","0.0-6.0-1.69","2439711","co37852","norming","","","","","","",""
"3208.6350000463426","","","post_mooney1_questions","survey-likert","491","1434293","0.0-6.0-2.69","2439711","co37852","norming","","","{""curiosity"":2,""confidence"":0}","[0,1]","../img/tt/1171tt.jpg","",""
"881.9049999583513","","","recognition","survey-text","492","1435180","0.0-6.0-3.69","2439711","co37852","norming","","","{""guess"":""""}","","../img/tt/1171tt.jpg","",""
"null","../img/gs/1171gs.jpg","null","reveal","image-keyboard-response","493","1437191","0.0-6.0-4.69","2439711","co37852","norming","","","","","","",""
"null","../img/tt/1171tt.jpg","null","mooney2","image-keyboard-response","494","1439203","0.0-6.0-5.69","2439711","co37852","norming","","","","","","",""
"3959.6600000513718","","","post_reveal_questions","survey-likert","495","1443166","0.0-6.0-6.69","2439711","co37852","norming","","","{""aha"":0}","[0]","../img/tt/1171tt.jpg","",""
"null","<div style=""font-size:60px;""> </div>","null","fixation","html-keyboard-response","496","1443380","0.0-6.0-0.70","2439711","co37852","norming","","","","","","",""
"null","../img/tt/552tt.jpg","null","mooney1","image-keyboard-response","497","1446384","0.0-6.0-1.70","2439711","co37852","norming","","","","","","",""
"4659.40500004217","","","post_mooney1_questions","survey-likert","498","1451047","0.0-6.0-2.70","2439711","co37852","norming","","","{""curiosity"":1,""confidence"":1}","[0,1]","../img/tt/552tt.jpg","",""
"2400.675000040792","","","recognition","survey-text","499","1453453","0.0-6.0-3.70","2439711","co37852","norming","","","{""guess"":""stoel""}","","../img/tt/552tt.jpg","",""
"null","../img/gs/552gs.jpg","null","reveal","image-keyboard-response","500","1455468","0.0-6.0-4.70","2439711","co37852","norming","","","","","","",""
"null","../img/tt/552tt.jpg","null","mooney2","image-keyboard-response","501","1457474","0.0-6.0-5.70","2439711","co37852","norming","","","","","","",""
"3098.82000007201","","","post_reveal_questions","survey-likert","502","1460576","0.0-6.0-6.70","2439711","co37852","norming","","","{""aha"":4}","[0]","../img/tt/552tt.jpg","",""
"null","<div style=""font-size:60px;""> </div>","null","fixation","html-keyboard-response","503","1460787","0.0-6.0-0.71","2439711","co37852","norming","","","","","","",""
"null","../img/tt/318tt.jpg","null","mooney1","image-keyboard-response","504","1463805","0.0-6.0-1.71","2439711","co37852","norming","","","","","","",""
"4664.449999923818","","","post_mooney1_questions","survey-likert","505","1468473","0.0-6.0-2.71","2439711","co37852","norming","","","{""curiosity"":3,""confidence"":3}","[0,1]","../img/tt/318tt.jpg","",""
"1998.6499999649823","","","recognition","survey-text","506","1470477","0.0-6.0-3.71","2439711","co37852","norming","","","{""guess"":""kind""}","","../img/tt/318tt.jpg","",""
"null","../img/gs/318gs.jpg","null","reveal","image-keyboard-response","507","1472479","0.0-6.0-4.71","2439711","co37852","norming","","","","","","",""
"null","../img/tt/318tt.jpg","null","mooney2","image-keyboard-response","508","1474489","0.0-6.0-5.71","2439711","co37852","norming","","","","","","",""
"1654.839999973774","","","post_reveal_questions","survey-likert","509","1476146","0.0-6.0-6.71","2439711","co37852","norming","","","{""aha"":4}","[0]","../img/tt/318tt.jpg","",""
"null","<div style=""font-size:60px;""> </div>","null","fixation","html-keyboard-response","510","1476354","0.0-6.0-0.72","2439711","co37852","norming","","","","","","",""
"null","../img/tt/098tt.jpg","null","mooney1","image-keyboard-response","511","1479366","0.0-6.0-1.72","2439711","co37852","norming","","","","","","",""
"4058.184999972582","","","post_mooney1_questions","survey-likert","512","1483427","0.0-6.0-2.72","2439711","co37852","norming","","","{""curiosity"":3,""confidence"":1}","[0,1]","../img/tt/098tt.jpg","",""
"2520.284999976866","","","recognition","survey-text","513","1485954","0.0-6.0-3.72","2439711","co37852","norming","","","{""guess"":""geweer""}","","../img/tt/098tt.jpg","",""
"null","../img/gs/098gs.jpg","null","reveal","image-keyboard-response","514","1487956","0.0-6.0-4.72","2439711","co37852","norming","","","","","","",""
"null","../img/tt/098tt.jpg","null","mooney2","image-keyboard-response","515","1489973","0.0-6.0-5.72","2439711","co37852","norming","","","","","","",""
"1812.804999994114","","","post_reveal_questions","survey-likert","516","1491789","0.0-6.0-6.72","2439711","co37852","norming","","","{""aha"":2}","[0]","../img/tt/098tt.jpg","",""
"null","<div style=""font-size:60px;""> </div>","null","fixation","html-keyboard-response","517","1492001","0.0-6.0-0.73","2439711","co37852","norming","","","","","","",""
"null","../img/tt/1270tt.jpg","null","mooney1","image-keyboard-response","518","1495015","0.0-6.0-1.73","2439711","co37852","norming","","","","","","",""
"2851.974999997765","","","post_mooney1_questions","survey-likert","519","1497870","0.0-6.0-2.73","2439711","co37852","norming","","","{""curiosity"":4,""confidence"":4}","[0,1]","../img/tt/1270tt.jpg","",""
"2381.805000011809","","","recognition","survey-text","520","1500258","0.0-6.0-3.73","2439711","co37852","norming","","","{""guess"":""stier""}","","../img/tt/1270tt.jpg","",""
"null","../img/gs/1270gs.jpg","null","reveal","image-keyboard-response","521","1502260","0.0-6.0-4.73","2439711","co37852","norming","","","","","","",""
"null","../img/tt/1270tt.jpg","null","mooney2","image-keyboard-response","522","1504262","0.0-6.0-5.73","2439711","co37852","norming","","","","","","",""
"1638.0749999079853","","","post_reveal_questions","survey-likert","523","1505903","0.0-6.0-6.73","2439711","co37852","norming","","","{""aha"":3}","[0]","../img/tt/1270tt.jpg","",""
"null","<div style=""font-size:60px;""> </div>","null","fixation","html-keyboard-response","524","1506115","0.0-6.0-0.74","2439711","co37852","norming","","","","","","",""
"null","../img/tt/1101tt.jpg","null","mooney1","image-keyboard-response","525","1509118","0.0-6.0-1.74","2439711","co37852","norming","","","","","","",""
"4510.580000001937","","","post_mooney1_questions","survey-likert","526","1513632","0.0-6.0-2.74","2439711","co37852","norming","","","{""curiosity"":6,""confidence"":0}","[0,1]","../img/tt/1101tt.jpg","",""
"2799.349999986589","","","recognition","survey-text","527","1516438","0.0-6.0-3.74","2439711","co37852","norming","","","{""guess"":""man ""}","","../img/tt/1101tt.jpg","",""
"null","../img/gs/1101gs.jpg","null","reveal","image-keyboard-response","528","1518450","0.0-6.0-4.74","2439711","co37852","norming","","","","","","",""
"null","../img/tt/1101tt.jpg","null","mooney2","image-keyboard-response","529","1520452","0.0-6.0-5.74","2439711","co37852","norming","","","","","","",""
"4001.644999952987","","","post_reveal_questions","survey-likert","530","1524457","0.0-6.0-6.74","2439711","co37852","norming","","","{""aha"":6}","[0]","../img/tt/1101tt.jpg","",""
"null","<div style=""font-size:60px;""> </div>","null","fixation","html-keyboard-response","531","1524673","0.0-6.0-0.75","2439711","co37852","norming","","","","","","",""
"null","../img/tt/1055tt.jpg","null","mooney1","image-keyboard-response","532","1527684","0.0-6.0-1.75","2439711","co37852","norming","","","","","","",""
"3394.819999928586","","","post_mooney1_questions","survey-likert","533","1531082","0.0-6.0-2.75","2439711","co37852","norming","","","{""curiosity"":4,""confidence"":1}","[0,1]","../img/tt/1055tt.jpg","",""
"1889.5499999634922","","","recognition","survey-text","534","1532978","0.0-6.0-3.75","2439711","co37852","norming","","","{""guess"":""riool""}","","../img/tt/1055tt.jpg","",""
"null","../img/gs/1055gs.jpg","null","reveal","image-keyboard-response","535","1534995","0.0-6.0-4.75","2439711","co37852","norming","","","","","","",""
"null","../img/tt/1055tt.jpg","null","mooney2","image-keyboard-response","536","1537009","0.0-6.0-5.75","2439711","co37852","norming","","","","","","",""
"6833.450000034645","","","post_reveal_questions","survey-likert","537","1543844","0.0-6.0-6.75","2439711","co37852","norming","","","{""aha"":3}","[0]","../img/tt/1055tt.jpg","",""
"null","<div style=""font-size:60px;""> </div>","null","fixation","html-keyboard-response","538","1544057","0.0-6.0-0.76","2439711","co37852","norming","","","","","","",""
"null","../img/tt/019tt.jpg","null","mooney1","image-keyboard-response","539","1547061","0.0-6.0-1.76","2439711","co37852","norming","","","","","","",""
"4044.8050000704825","","","post_mooney1_questions","survey-likert","540","1551109","0.0-6.0-2.76","2439711","co37852","norming","","","{""curiosity"":4,""confidence"":2}","[0,1]","../img/tt/019tt.jpg","",""
"2118.7550000613555","","","recognition","survey-text","541","1553234","0.0-6.0-3.76","2439711","co37852","norming","","","{""guess"":""zaag""}","","../img/tt/019tt.jpg","",""
"null","../img/gs/019gs.jpg","null","reveal","image-keyboard-response","542","1555240","0.0-6.0-4.76","2439711","co37852","norming","","","","","","",""
"null","../img/tt/019tt.jpg","null","mooney2","image-keyboard-response","543","1557243","0.0-6.0-5.76","2439711","co37852","norming","","","","","","",""
"4291.519999969751","","","post_reveal_questions","survey-likert","544","1561538","0.0-6.0-6.76","2439711","co37852","norming","","","{""aha"":2}","[0]","../img/tt/019tt.jpg","",""
"null","<div style=""font-size:60px;""> </div>","null","fixation","html-keyboard-response","545","1561757","0.0-6.0-0.77","2439711","co37852","norming","","","","","","",""
"null","../img/tt/590tt.jpg","null","mooney1","image-keyboard-response","546","1564769","0.0-6.0-1.77","2439711","co37852","norming","","","","","","",""
"3279.53499997966","","","post_mooney1_questions","survey-likert","547","1568052","0.0-6.0-2.77","2439711","co37852","norming","","","{""curiosity"":5,""confidence"":3}","[0,1]","../img/tt/590tt.jpg","",""
"2491.7799999238923","","","recognition","survey-text","548","1570550","0.0-6.0-3.77","2439711","co37852","norming","","","{""guess"":""tafel""}","","../img/tt/590tt.jpg","",""
"null","../img/gs/590gs.jpg","null","reveal","image-keyboard-response","549","1572553","0.0-6.0-4.77","2439711","co37852","norming","","","","","","",""
"null","../img/tt/590tt.jpg","null","mooney2","image-keyboard-response","550","1574565","0.0-6.0-5.77","2439711","co37852","norming","","","","","","",""
"15645.569999935105","","","post_reveal_questions","survey-likert","551","1590214","0.0-6.0-6.77","2439711","co37852","norming","","","{""aha"":3}","[0]","../img/tt/590tt.jpg","",""
