"rt","stimulus","key_press","test_part","trial_type","trial_index","time_elapsed","internal_node_id","totalTime","subject","experiment_name","button_pressed","success","responses","question_order","currentStim","old","correct"
"5251.424999998562","Welcome to the experiment. This is an online experiment so please don't close the tab/window until we say goodbye.  Press any key to begin.","32","instructions","html-keyboard-response","0","5268","0.0-0.0","3121631","co37621","norming","","","","","","",""
"17957.055000000764","<div style='word-wrap: break-word; width: 900px'><h3>Please consider this information carefully before deciding whether to participate in this research</h3><ul style='text-align: left; font-size: .8em;'><li><b>Purpose of the research</b>: To examine how people process images.</li><li><b>What you will do in this research</b>:  Stimuli (images) will be presented on the computer and you will be asked different questions about them.</li><li><b>Time required</b>: Participation will take between 45 and 60 minutes to complete.</li><li><b>Risks</b>:  There are no anticipated risks associated with participating in this study. The effects of participating should be comparable to those you would experience from viewing a computer monitor for 30 minutes and using a mouse or keyboard.</li><li><b>Benefits</b>:  This study provides no benefits to you individually except for the credit. The study provides important information about the nature of perception and learning.</li><li><b>Confidentiality</b>:  Your participation in this study will remain confidential. No personally identifiable information will be associated with your data. Your de-identified data may be shared with other researchers and used in future projects.</li><li><b>Participation and withdrawal</b>:  Your participation in this study is completely voluntary and you may refuse to participate or you may choose to withdraw at any time without penalty.</li><li><b>How to contact the researchers</b>: If you have questions or concerns about your participation or payment, or want to request a summary of research findings, please contact Sander Van de Cruys (KU Leuven), at sander.vandecruys@kuleuven.be.</li></ul><p>The nature and purpose of this research have been sufficiently explained and I agree to participate in this study.  I understand that I am free to withdraw at any time without incurring any penalty.</p><p>Please consent by clicking the button below to continue. Otherwise, please exit the study at this time.</p></div>","","instructions","html-button-response","1","23229","0.0-1.0","3121631","co37621","norming","0","","","","","",""
"","","","instructions","fullscreen","2","56684","0.0-2.0","3121631","co37621","norming","","true","","","","",""
"48864.840000000186","","","sona","survey-html-form","3","105553","0.0-3.0","3121631","co37621","norming","","","[{""name"":""sonaid"",""value"":""37621""},{""name"":""debrief"",""value"":""yes""},{""name"":""datajoin"",""value"":""yes""}]","","","",""
"85897.97499999987","<div style='word-wrap: break-word; width: 900px'><h3>Instructions</h3><p>This experiment will have 3 parts. In the first part you will see a series of distorted images like the one below on the left. As you can see in the righthand image, the distorted images are derived from actual photographs. In what follows, you will <strong>briefly</strong> be presented with <strong>only</strong> the distorted image.</p> <div style='float: left; margin-right: 20px;'><img src='../img/018tt.jpg' height='250' width='250'></img></div><div style='float: right; margin-left: 20px;'><img src='../img/018gs.jpg' height='250' width='250'></img></div><p>Subsequently you will be asked a few questions about the image: One question on how <strong>curious</strong> you are about the solution and one on how <strong>confident</strong> you are that you know the solution.</p>Next, we ask you to make a guess on what is in the image. Note that it is OK to name just the <strong>basic level category</strong>. For example when you see a parrot in the image, 'parrot' will obviously be a correct answer but also correct is 'bird'. However, 'animal' will <strong>not</strong> be counted as a correct response. For the example above, 'rose' would be correct or 'flower', but not 'plant'. When soccer players are depicted, 'soccer', 'football', 'soccer players' will be correct, but not 'humans', 'outdoors', or 'sports'. You do not need to describe the image in full, just name the main object in it <strong>in one or two words</strong>. All images depict objects from one of the following broad level categories: animals, inanimate objects, plants, sports, vehicles, and food. Recognizing means knowing <strong>more</strong> than these broad labels for a given image. But we always encourage you to <strong>make a guess</strong> if you can. Note that you are allowed to use <strong>Dutch and English</strong> in your answers, whatever comes easiest for you.</p><p>Press any key to continue.</p></div>","32","instructions","html-keyboard-response","4","191455","0.0-4.0","3121631","co37621","norming","","","","","","",""
"27695.074999999633","<div style='word-wrap: break-word; width: 900px'><h3>Instructions</h3> <p>Next, the solution image will be revealed to you and you'll be asked to indicate how strong your <strong>aha-experience</strong> was after seeing the solution. This describes the positive feeling of the 'click' you sometimes experience, when the pieces of the 'puzzle' fall together and you suddenly have 'insight' in the image.</p><img src='aha.jpg' height='188' width='250'></img><p>Note that there are no right or wrong answers. We are interested in what <strong>you</strong> see in the image and how <strong>you</strong> feel about it.</p><p>Press any key to start the experiment.</p></div>","32","instructions","html-keyboard-response","5","219152","0.0-5.0","3121631","co37621","norming","","","","","","",""
"null","<div style=""font-size:60px;""> </div>","null","fixation","html-keyboard-response","6","219354","0.0-6.0-0.0","3121631","co37621","norming","","","","","","",""
"null","../img/tt/1159tt.jpg","null","mooney1","image-keyboard-response","7","222361","0.0-6.0-1.0","3121631","co37621","norming","","","","","","",""
"26003.140000000712","","","post_mooney1_questions","survey-likert","8","248368","0.0-6.0-2.0","3121631","co37621","norming","","","{""curiosity"":4,""confidence"":1}","[0,1]","../img/tt/1159tt.jpg","",""
"3883.594999999332","","","recognition","survey-text","9","252257","0.0-6.0-3.0","3121631","co37621","norming","","","{""guess"":""street""}","","../img/tt/1159tt.jpg","",""
"null","../img/gs/1159gs.jpg","null","reveal","image-keyboard-response","10","254263","0.0-6.0-4.0","3121631","co37621","norming","","","","","","",""
"null","../img/tt/1159tt.jpg","null","mooney2","image-keyboard-response","11","256268","0.0-6.0-5.0","3121631","co37621","norming","","","","","","",""
"5319.419999999809","","","post_reveal_questions","survey-likert","12","261589","0.0-6.0-6.0","3121631","co37621","norming","","","{""aha"":1}","[0]","../img/tt/1159tt.jpg","",""
"null","<div style=""font-size:60px;""> </div>","null","fixation","html-keyboard-response","13","261792","0.0-6.0-0.1","3121631","co37621","norming","","","","","","",""
"null","../img/tt/1146tt.jpg","null","mooney1","image-keyboard-response","14","264798","0.0-6.0-1.1","3121631","co37621","norming","","","","","","",""
"8973.98000000068","","","post_mooney1_questions","survey-likert","15","273775","0.0-6.0-2.1","3121631","co37621","norming","","","{""curiosity"":4,""confidence"":1}","[0,1]","../img/tt/1146tt.jpg","",""
"5471.895000000601","","","recognition","survey-text","16","279250","0.0-6.0-3.1","3121631","co37621","norming","","","{""guess"":""fishing""}","","../img/tt/1146tt.jpg","",""
"null","../img/gs/1146gs.jpg","null","reveal","image-keyboard-response","17","281256","0.0-6.0-4.1","3121631","co37621","norming","","","","","","",""
"null","../img/tt/1146tt.jpg","null","mooney2","image-keyboard-response","18","283261","0.0-6.0-5.1","3121631","co37621","norming","","","","","","",""
"2745.614999999816","","","post_reveal_questions","survey-likert","19","286008","0.0-6.0-6.1","3121631","co37621","norming","","","{""aha"":1}","[0]","../img/tt/1146tt.jpg","",""
"null","<div style=""font-size:60px;""> </div>","null","fixation","html-keyboard-response","20","286214","0.0-6.0-0.2","3121631","co37621","norming","","","","","","",""
"null","../img/tt/1049tt.jpg","null","mooney1","image-keyboard-response","21","289218","0.0-6.0-1.2","3121631","co37621","norming","","","","","","",""
"5575.0200000002515","","","post_mooney1_questions","survey-likert","22","294795","0.0-6.0-2.2","3121631","co37621","norming","","","{""curiosity"":5,""confidence"":0}","[0,1]","../img/tt/1049tt.jpg","",""
"5205.325000000827","","","recognition","survey-text","23","300004","0.0-6.0-3.2","3121631","co37621","norming","","","{""guess"":""""}","","../img/tt/1049tt.jpg","",""
"null","../img/gs/1049gs.jpg","null","reveal","image-keyboard-response","24","302011","0.0-6.0-4.2","3121631","co37621","norming","","","","","","",""
"null","../img/tt/1049tt.jpg","null","mooney2","image-keyboard-response","25","304017","0.0-6.0-5.2","3121631","co37621","norming","","","","","","",""
"2540.085000000545","","","post_reveal_questions","survey-likert","26","306559","0.0-6.0-6.2","3121631","co37621","norming","","","{""aha"":0}","[0]","../img/tt/1049tt.jpg","",""
"null","<div style=""font-size:60px;""> </div>","null","fixation","html-keyboard-response","27","306766","0.0-6.0-0.3","3121631","co37621","norming","","","","","","",""
"null","../img/tt/060tt.jpg","null","mooney1","image-keyboard-response","28","309773","0.0-6.0-1.3","3121631","co37621","norming","","","","","","",""
"11786.070000000123","","","post_mooney1_questions","survey-likert","29","321561","0.0-6.0-2.3","3121631","co37621","norming","","","{""curiosity"":4,""confidence"":1}","[0,1]","../img/tt/060tt.jpg","",""
"3368.050000000978","","","recognition","survey-text","30","324931","0.0-6.0-3.3","3121631","co37621","norming","","","{""guess"":""bread""}","","../img/tt/060tt.jpg","",""
"null","../img/gs/060gs.jpg","null","reveal","image-keyboard-response","31","326936","0.0-6.0-4.3","3121631","co37621","norming","","","","","","",""
"null","../img/tt/060tt.jpg","null","mooney2","image-keyboard-response","32","328943","0.0-6.0-5.3","3121631","co37621","norming","","","","","","",""
"4324.489999999059","","","post_reveal_questions","survey-likert","33","333268","0.0-6.0-6.3","3121631","co37621","norming","","","{""aha"":1}","[0]","../img/tt/060tt.jpg","",""
"null","<div style=""font-size:60px;""> </div>","null","fixation","html-keyboard-response","34","333474","0.0-6.0-0.4","3121631","co37621","norming","","","","","","",""
"null","../img/tt/507tt.jpg","null","mooney1","image-keyboard-response","35","336481","0.0-6.0-1.4","3121631","co37621","norming","","","","","","",""
"10214.154999999679","","","post_mooney1_questions","survey-likert","36","346697","0.0-6.0-2.4","3121631","co37621","norming","","","{""curiosity"":4,""confidence"":1}","[0,1]","../img/tt/507tt.jpg","",""
"4866.560000000405","","","recognition","survey-text","37","351566","0.0-6.0-3.4","3121631","co37621","norming","","","{""guess"":""singer""}","","../img/tt/507tt.jpg","",""
"null","../img/gs/507gs.jpg","null","reveal","image-keyboard-response","38","353573","0.0-6.0-4.4","3121631","co37621","norming","","","","","","",""
"null","../img/tt/507tt.jpg","null","mooney2","image-keyboard-response","39","355580","0.0-6.0-5.4","3121631","co37621","norming","","","","","","",""
"4438.495000000286","","","post_reveal_questions","survey-likert","40","360020","0.0-6.0-6.4","3121631","co37621","norming","","","{""aha"":2}","[0]","../img/tt/507tt.jpg","",""
"null","<div style=""font-size:60px;""> </div>","null","fixation","html-keyboard-response","41","360227","0.0-6.0-0.5","3121631","co37621","norming","","","","","","",""
"null","../img/tt/105tt.jpg","null","mooney1","image-keyboard-response","42","363233","0.0-6.0-1.5","3121631","co37621","norming","","","","","","",""
"7339.335000000545","","","post_mooney1_questions","survey-likert","43","370575","0.0-6.0-2.5","3121631","co37621","norming","","","{""curiosity"":4,""confidence"":2}","[0,1]","../img/tt/105tt.jpg","",""
"3907.4299999992945","","","recognition","survey-text","44","374485","0.0-6.0-3.5","3121631","co37621","norming","","","{""guess"":""paperclips""}","","../img/tt/105tt.jpg","",""
"null","../img/gs/105gs.jpg","null","reveal","image-keyboard-response","45","376491","0.0-6.0-4.5","3121631","co37621","norming","","","","","","",""
"null","../img/tt/105tt.jpg","null","mooney2","image-keyboard-response","46","378497","0.0-6.0-5.5","3121631","co37621","norming","","","","","","",""
"4991.00499999983","","","post_reveal_questions","survey-likert","47","383490","0.0-6.0-6.5","3121631","co37621","norming","","","{""aha"":4}","[0]","../img/tt/105tt.jpg","",""
"null","<div style=""font-size:60px;""> </div>","null","fixation","html-keyboard-response","48","383696","0.0-6.0-0.6","3121631","co37621","norming","","","","","","",""
"null","../img/tt/084tt.jpg","null","mooney1","image-keyboard-response","49","386703","0.0-6.0-1.6","3121631","co37621","norming","","","","","","",""
"19665.33999999956","","","post_mooney1_questions","survey-likert","50","406371","0.0-6.0-2.6","3121631","co37621","norming","","","{""curiosity"":4,""confidence"":4}","[0,1]","../img/tt/084tt.jpg","",""
"3422.6899999994203","","","recognition","survey-text","51","409796","0.0-6.0-3.6","3121631","co37621","norming","","","{""guess"":""duck""}","","../img/tt/084tt.jpg","",""
"null","../img/gs/084gs.jpg","null","reveal","image-keyboard-response","52","411797","0.0-6.0-4.6","3121631","co37621","norming","","","","","","",""
"null","../img/tt/084tt.jpg","null","mooney2","image-keyboard-response","53","413800","0.0-6.0-5.6","3121631","co37621","norming","","","","","","",""
"3116.9099999988102","","","post_reveal_questions","survey-likert","54","416918","0.0-6.0-6.6","3121631","co37621","norming","","","{""aha"":5}","[0]","../img/tt/084tt.jpg","",""
"null","<div style=""font-size:60px;""> </div>","null","fixation","html-keyboard-response","55","417125","0.0-6.0-0.7","3121631","co37621","norming","","","","","","",""
"null","../img/tt/1251tt.jpg","null","mooney1","image-keyboard-response","56","420131","0.0-6.0-1.7","3121631","co37621","norming","","","","","","",""
"11354.370000000927","","","post_mooney1_questions","survey-likert","57","431488","0.0-6.0-2.7","3121631","co37621","norming","","","{""curiosity"":4,""confidence"":1}","[0,1]","../img/tt/1251tt.jpg","",""
"3178.4250000000466","","","recognition","survey-text","58","434669","0.0-6.0-3.7","3121631","co37621","norming","","","{""guess"":""bear""}","","../img/tt/1251tt.jpg","",""
"null","../img/gs/1251gs.jpg","null","reveal","image-keyboard-response","59","436675","0.0-6.0-4.7","3121631","co37621","norming","","","","","","",""
"null","../img/tt/1251tt.jpg","null","mooney2","image-keyboard-response","60","438681","0.0-6.0-5.7","3121631","co37621","norming","","","","","","",""
"8639.060000001336","","","post_reveal_questions","survey-likert","61","447322","0.0-6.0-6.7","3121631","co37621","norming","","","{""aha"":0}","[0]","../img/tt/1251tt.jpg","",""
"null","<div style=""font-size:60px;""> </div>","null","fixation","html-keyboard-response","62","447524","0.0-6.0-0.8","3121631","co37621","norming","","","","","","",""
"null","../img/tt/405tt.jpg","null","mooney1","image-keyboard-response","63","450531","0.0-6.0-1.8","3121631","co37621","norming","","","","","","",""
"8082.0999999996275","","","post_mooney1_questions","survey-likert","64","458615","0.0-6.0-2.8","3121631","co37621","norming","","","{""curiosity"":3,""confidence"":1}","[0,1]","../img/tt/405tt.jpg","",""
"6003.785000000789","","","recognition","survey-text","65","464622","0.0-6.0-3.8","3121631","co37621","norming","","","{""guess"":""puppies""}","","../img/tt/405tt.jpg","",""
"null","../img/gs/405gs.jpg","null","reveal","image-keyboard-response","66","466629","0.0-6.0-4.8","3121631","co37621","norming","","","","","","",""
"null","../img/tt/405tt.jpg","null","mooney2","image-keyboard-response","67","468635","0.0-6.0-5.8","3121631","co37621","norming","","","","","","",""
"3446.024999999325","","","post_reveal_questions","survey-likert","68","472083","0.0-6.0-6.8","3121631","co37621","norming","","","{""aha"":0}","[0]","../img/tt/405tt.jpg","",""
"null","<div style=""font-size:60px;""> </div>","null","fixation","html-keyboard-response","69","472287","0.0-6.0-0.9","3121631","co37621","norming","","","","","","",""
"null","../img/tt/301tt.jpg","null","mooney1","image-keyboard-response","70","475292","0.0-6.0-1.9","3121631","co37621","norming","","","","","","",""
"14789.240000000107","","","post_mooney1_questions","survey-likert","71","490084","0.0-6.0-2.9","3121631","co37621","norming","","","{""curiosity"":4,""confidence"":0}","[0,1]","../img/tt/301tt.jpg","",""
"6802.724999999569","","","recognition","survey-text","72","496889","0.0-6.0-3.9","3121631","co37621","norming","","","{""guess"":""""}","","../img/tt/301tt.jpg","",""
"null","../img/gs/301gs.jpg","null","reveal","image-keyboard-response","73","498893","0.0-6.0-4.9","3121631","co37621","norming","","","","","","",""
"null","../img/tt/301tt.jpg","null","mooney2","image-keyboard-response","74","500895","0.0-6.0-5.9","3121631","co37621","norming","","","","","","",""
"2325.2099999990896","","","post_reveal_questions","survey-likert","75","503222","0.0-6.0-6.9","3121631","co37621","norming","","","{""aha"":0}","[0]","../img/tt/301tt.jpg","",""
"null","<div style=""font-size:60px;""> </div>","null","fixation","html-keyboard-response","76","503428","0.0-6.0-0.10","3121631","co37621","norming","","","","","","",""
"null","../img/tt/1066tt.jpg","null","mooney1","image-keyboard-response","77","506435","0.0-6.0-1.10","3121631","co37621","norming","","","","","","",""
"6615.795000001497","","","post_mooney1_questions","survey-likert","78","513053","0.0-6.0-2.10","3121631","co37621","norming","","","{""curiosity"":4,""confidence"":4}","[0,1]","../img/tt/1066tt.jpg","",""
"2178.275000000198","","","recognition","survey-text","79","515233","0.0-6.0-3.10","3121631","co37621","norming","","","{""guess"":""bus""}","","../img/tt/1066tt.jpg","",""
"null","../img/gs/1066gs.jpg","null","reveal","image-keyboard-response","80","517238","0.0-6.0-4.10","3121631","co37621","norming","","","","","","",""
"null","../img/tt/1066tt.jpg","null","mooney2","image-keyboard-response","81","519244","0.0-6.0-5.10","3121631","co37621","norming","","","","","","",""
"1892.0799999996088","","","post_reveal_questions","survey-likert","82","521138","0.0-6.0-6.10","3121631","co37621","norming","","","{""aha"":5}","[0]","../img/tt/1066tt.jpg","",""
"null","<div style=""font-size:60px;""> </div>","null","fixation","html-keyboard-response","83","521344","0.0-6.0-0.11","3121631","co37621","norming","","","","","","",""
"null","../img/tt/435tt.jpg","null","mooney1","image-keyboard-response","84","524351","0.0-6.0-1.11","3121631","co37621","norming","","","","","","",""
"14617.130000000587","","","post_mooney1_questions","survey-likert","85","538970","0.0-6.0-2.11","3121631","co37621","norming","","","{""curiosity"":4,""confidence"":4}","[0,1]","../img/tt/435tt.jpg","",""
"3954.2450000008103","","","recognition","survey-text","86","542927","0.0-6.0-3.11","3121631","co37621","norming","","","{""guess"":""pool table""}","","../img/tt/435tt.jpg","",""
"null","../img/gs/435gs.jpg","null","reveal","image-keyboard-response","87","544934","0.0-6.0-4.11","3121631","co37621","norming","","","","","","",""
"null","../img/tt/435tt.jpg","null","mooney2","image-keyboard-response","88","546937","0.0-6.0-5.11","3121631","co37621","norming","","","","","","",""
"1644.1450000002515","","","post_reveal_questions","survey-likert","89","548583","0.0-6.0-6.11","3121631","co37621","norming","","","{""aha"":6}","[0]","../img/tt/435tt.jpg","",""
"null","<div style=""font-size:60px;""> </div>","null","fixation","html-keyboard-response","90","548789","0.0-6.0-0.12","3121631","co37621","norming","","","","","","",""
"null","../img/tt/567tt.jpg","null","mooney1","image-keyboard-response","91","551795","0.0-6.0-1.12","3121631","co37621","norming","","","","","","",""
"4891.230000001029","","","post_mooney1_questions","survey-likert","92","556688","0.0-6.0-2.12","3121631","co37621","norming","","","{""curiosity"":4,""confidence"":6}","[0,1]","../img/tt/567tt.jpg","",""
"3873.0699999995995","","","recognition","survey-text","93","560564","0.0-6.0-3.12","3121631","co37621","norming","","","{""guess"":""toaster""}","","../img/tt/567tt.jpg","",""
"null","../img/gs/567gs.jpg","null","reveal","image-keyboard-response","94","562566","0.0-6.0-4.12","3121631","co37621","norming","","","","","","",""
"null","../img/tt/567tt.jpg","null","mooney2","image-keyboard-response","95","564573","0.0-6.0-5.12","3121631","co37621","norming","","","","","","",""
"1696.1849999988917","","","post_reveal_questions","survey-likert","96","566271","0.0-6.0-6.12","3121631","co37621","norming","","","{""aha"":6}","[0]","../img/tt/567tt.jpg","",""
"null","<div style=""font-size:60px;""> </div>","null","fixation","html-keyboard-response","97","566472","0.0-6.0-0.13","3121631","co37621","norming","","","","","","",""
"null","../img/tt/135tt.jpg","null","mooney1","image-keyboard-response","98","569477","0.0-6.0-1.13","3121631","co37621","norming","","","","","","",""
"7150.395000000484","","","post_mooney1_questions","survey-likert","99","576629","0.0-6.0-2.13","3121631","co37621","norming","","","{""curiosity"":4,""confidence"":6}","[0,1]","../img/tt/135tt.jpg","",""
"5093.375000000349","","","recognition","survey-text","100","581725","0.0-6.0-3.13","3121631","co37621","norming","","","{""guess"":""toilet""}","","../img/tt/135tt.jpg","",""
"null","../img/gs/135gs.jpg","null","reveal","image-keyboard-response","101","583726","0.0-6.0-4.13","3121631","co37621","norming","","","","","","",""
"null","../img/tt/135tt.jpg","null","mooney2","image-keyboard-response","102","585731","0.0-6.0-5.13","3121631","co37621","norming","","","","","","",""
"1600.0600000007544","","","post_reveal_questions","survey-likert","103","587333","0.0-6.0-6.13","3121631","co37621","norming","","","{""aha"":6}","[0]","../img/tt/135tt.jpg","",""
"null","<div style=""font-size:60px;""> </div>","null","fixation","html-keyboard-response","104","587539","0.0-6.0-0.14","3121631","co37621","norming","","","","","","",""
"null","../img/tt/1269tt.jpg","null","mooney1","image-keyboard-response","105","590546","0.0-6.0-1.14","3121631","co37621","norming","","","","","","",""
"6510.279999998631","","","post_mooney1_questions","survey-likert","106","597058","0.0-6.0-2.14","3121631","co37621","norming","","","{""curiosity"":4,""confidence"":1}","[0,1]","../img/tt/1269tt.jpg","",""
"6924.850000001257","","","recognition","survey-text","107","603985","0.0-6.0-3.14","3121631","co37621","norming","","","{""guess"":""dog""}","","../img/tt/1269tt.jpg","",""
"null","../img/gs/1269gs.jpg","null","reveal","image-keyboard-response","108","605991","0.0-6.0-4.14","3121631","co37621","norming","","","","","","",""
"null","../img/tt/1269tt.jpg","null","mooney2","image-keyboard-response","109","607993","0.0-6.0-5.14","3121631","co37621","norming","","","","","","",""
"2533.465000000433","","","post_reveal_questions","survey-likert","110","610528","0.0-6.0-6.14","3121631","co37621","norming","","","{""aha"":3}","[0]","../img/tt/1269tt.jpg","",""
"null","<div style=""font-size:60px;""> </div>","null","fixation","html-keyboard-response","111","610734","0.0-6.0-0.15","3121631","co37621","norming","","","","","","",""
"null","../img/tt/078tt.jpg","null","mooney1","image-keyboard-response","112","613741","0.0-6.0-1.15","3121631","co37621","norming","","","","","","",""
"4592.09999999986","","","post_mooney1_questions","survey-likert","113","618335","0.0-6.0-2.15","3121631","co37621","norming","","","{""curiosity"":3,""confidence"":1}","[0,1]","../img/tt/078tt.jpg","",""
"2937.364999999758","","","recognition","survey-text","114","621276","0.0-6.0-3.15","3121631","co37621","norming","","","{""guess"":""leaf""}","","../img/tt/078tt.jpg","",""
"null","../img/gs/078gs.jpg","null","reveal","image-keyboard-response","115","623282","0.0-6.0-4.15","3121631","co37621","norming","","","","","","",""
"null","../img/tt/078tt.jpg","null","mooney2","image-keyboard-response","116","625288","0.0-6.0-5.15","3121631","co37621","norming","","","","","","",""
"3010.2200000000885","","","post_reveal_questions","survey-likert","117","628301","0.0-6.0-6.15","3121631","co37621","norming","","","{""aha"":2}","[0]","../img/tt/078tt.jpg","",""
"null","<div style=""font-size:60px;""> </div>","null","fixation","html-keyboard-response","118","628507","0.0-6.0-0.16","3121631","co37621","norming","","","","","","",""
"null","../img/tt/1061tt.jpg","null","mooney1","image-keyboard-response","119","631514","0.0-6.0-1.16","3121631","co37621","norming","","","","","","",""
"6205.174999999232","","","post_mooney1_questions","survey-likert","120","637721","0.0-6.0-2.16","3121631","co37621","norming","","","{""curiosity"":4,""confidence"":4}","[0,1]","../img/tt/1061tt.jpg","",""
"2467.115000003134","","","recognition","survey-text","121","640190","0.0-6.0-3.16","3121631","co37621","norming","","","{""guess"":""park""}","","../img/tt/1061tt.jpg","",""
"null","../img/gs/1061gs.jpg","null","reveal","image-keyboard-response","122","642197","0.0-6.0-4.16","3121631","co37621","norming","","","","","","",""
"null","../img/tt/1061tt.jpg","null","mooney2","image-keyboard-response","123","644198","0.0-6.0-5.16","3121631","co37621","norming","","","","","","",""
"2195.299999999348","","","post_reveal_questions","survey-likert","124","646395","0.0-6.0-6.16","3121631","co37621","norming","","","{""aha"":5}","[0]","../img/tt/1061tt.jpg","",""
"null","<div style=""font-size:60px;""> </div>","null","fixation","html-keyboard-response","125","646599","0.0-6.0-0.17","3121631","co37621","norming","","","","","","",""
"null","../img/tt/1217tt.jpg","null","mooney1","image-keyboard-response","126","649605","0.0-6.0-1.17","3121631","co37621","norming","","","","","","",""
"5272.79500000074","","","post_mooney1_questions","survey-likert","127","654880","0.0-6.0-2.17","3121631","co37621","norming","","","{""curiosity"":4,""confidence"":1}","[0,1]","../img/tt/1217tt.jpg","",""
"2668.505000001518","","","recognition","survey-text","128","657551","0.0-6.0-3.17","3121631","co37621","norming","","","{""guess"":""cow""}","","../img/tt/1217tt.jpg","",""
"null","../img/gs/1217gs.jpg","null","reveal","image-keyboard-response","129","659557","0.0-6.0-4.17","3121631","co37621","norming","","","","","","",""
"null","../img/tt/1217tt.jpg","null","mooney2","image-keyboard-response","130","661562","0.0-6.0-5.17","3121631","co37621","norming","","","","","","",""
"6576.189999999711","","","post_reveal_questions","survey-likert","131","668139","0.0-6.0-6.17","3121631","co37621","norming","","","{""aha"":1}","[0]","../img/tt/1217tt.jpg","",""
"null","<div style=""font-size:60px;""> </div>","null","fixation","html-keyboard-response","132","668346","0.0-6.0-0.18","3121631","co37621","norming","","","","","","",""
"null","../img/tt/1202tt.jpg","null","mooney1","image-keyboard-response","133","671352","0.0-6.0-1.18","3121631","co37621","norming","","","","","","",""
"4545.930000000168","","","post_mooney1_questions","survey-likert","134","675900","0.0-6.0-2.18","3121631","co37621","norming","","","{""curiosity"":3,""confidence"":0}","[0,1]","../img/tt/1202tt.jpg","",""
"839.7000000004191","","","recognition","survey-text","135","676744","0.0-6.0-3.18","3121631","co37621","norming","","","{""guess"":""""}","","../img/tt/1202tt.jpg","",""
"null","../img/gs/1202gs.jpg","null","reveal","image-keyboard-response","136","678750","0.0-6.0-4.18","3121631","co37621","norming","","","","","","",""
"null","../img/tt/1202tt.jpg","null","mooney2","image-keyboard-response","137","680754","0.0-6.0-5.18","3121631","co37621","norming","","","","","","",""
"2022.500000002794","","","post_reveal_questions","survey-likert","138","682778","0.0-6.0-6.18","3121631","co37621","norming","","","{""aha"":0}","[0]","../img/tt/1202tt.jpg","",""
"null","<div style=""font-size:60px;""> </div>","null","fixation","html-keyboard-response","139","682979","0.0-6.0-0.19","3121631","co37621","norming","","","","","","",""
"null","../img/tt/1127tt.jpg","null","mooney1","image-keyboard-response","140","685986","0.0-6.0-1.19","3121631","co37621","norming","","","","","","",""
"9754.595000002184","","","post_mooney1_questions","survey-likert","141","695743","0.0-6.0-2.19","3121631","co37621","norming","","","{""curiosity"":5,""confidence"":1}","[0,1]","../img/tt/1127tt.jpg","",""
"2722.7649999985006","","","recognition","survey-text","142","698468","0.0-6.0-3.19","3121631","co37621","norming","","","{""guess"":""sport""}","","../img/tt/1127tt.jpg","",""
"null","../img/gs/1127gs.jpg","null","reveal","image-keyboard-response","143","700474","0.0-6.0-4.19","3121631","co37621","norming","","","","","","",""
"null","../img/tt/1127tt.jpg","null","mooney2","image-keyboard-response","144","702481","0.0-6.0-5.19","3121631","co37621","norming","","","","","","",""
"2845.559999997844","","","post_reveal_questions","survey-likert","145","705328","0.0-6.0-6.19","3121631","co37621","norming","","","{""aha"":0}","[0]","../img/tt/1127tt.jpg","",""
"null","<div style=""font-size:60px;""> </div>","null","fixation","html-keyboard-response","146","705534","0.0-6.0-0.20","3121631","co37621","norming","","","","","","",""
"null","../img/tt/1123tt.jpg","null","mooney1","image-keyboard-response","147","708541","0.0-6.0-1.20","3121631","co37621","norming","","","","","","",""
"9022.874999998836","","","post_mooney1_questions","survey-likert","148","717565","0.0-6.0-2.20","3121631","co37621","norming","","","{""curiosity"":5,""confidence"":1}","[0,1]","../img/tt/1123tt.jpg","",""
"4803.014999997802","","","recognition","survey-text","149","722371","0.0-6.0-3.20","3121631","co37621","norming","","","{""guess"":""volleyball""}","","../img/tt/1123tt.jpg","",""
"null","../img/gs/1123gs.jpg","null","reveal","image-keyboard-response","150","724372","0.0-6.0-4.20","3121631","co37621","norming","","","","","","",""
"null","../img/tt/1123tt.jpg","null","mooney2","image-keyboard-response","151","726378","0.0-6.0-5.20","3121631","co37621","norming","","","","","","",""
"2121.2300000005635","","","post_reveal_questions","survey-likert","152","728501","0.0-6.0-6.20","3121631","co37621","norming","","","{""aha"":1}","[0]","../img/tt/1123tt.jpg","",""
"null","<div style=""font-size:60px;""> </div>","null","fixation","html-keyboard-response","153","728703","0.0-6.0-0.21","3121631","co37621","norming","","","","","","",""
"null","../img/tt/1196tt.jpg","null","mooney1","image-keyboard-response","154","731704","0.0-6.0-1.21","3121631","co37621","norming","","","","","","",""
"4575.764999997802","","","post_mooney1_questions","survey-likert","155","736282","0.0-6.0-2.21","3121631","co37621","norming","","","{""curiosity"":5,""confidence"":0}","[0,1]","../img/tt/1196tt.jpg","",""
"815.0749999985565","","","recognition","survey-text","156","737099","0.0-6.0-3.21","3121631","co37621","norming","","","{""guess"":""""}","","../img/tt/1196tt.jpg","",""
"null","../img/gs/1196gs.jpg","null","reveal","image-keyboard-response","157","739102","0.0-6.0-4.21","3121631","co37621","norming","","","","","","",""
"null","../img/tt/1196tt.jpg","null","mooney2","image-keyboard-response","158","741108","0.0-6.0-5.21","3121631","co37621","norming","","","","","","",""
"2503.5549999992363","","","post_reveal_questions","survey-likert","159","743614","0.0-6.0-6.21","3121631","co37621","norming","","","{""aha"":0}","[0]","../img/tt/1196tt.jpg","",""
"null","<div style=""font-size:60px;""> </div>","null","fixation","html-keyboard-response","160","743818","0.0-6.0-0.22","3121631","co37621","norming","","","","","","",""
"null","../img/tt/1125tt.jpg","null","mooney1","image-keyboard-response","161","746824","0.0-6.0-1.22","3121631","co37621","norming","","","","","","",""
"4148.465000002063","","","post_mooney1_questions","survey-likert","162","750974","0.0-6.0-2.22","3121631","co37621","norming","","","{""curiosity"":4,""confidence"":3}","[0,1]","../img/tt/1125tt.jpg","",""
"4717.079999998561","","","recognition","survey-text","163","755619","0.0-6.0-3.22","3121631","co37621","norming","","","{""guess"":""piano""}","","../img/tt/1125tt.jpg","",""
"null","../img/gs/1125gs.jpg","null","reveal","image-keyboard-response","164","757620","0.0-6.0-4.22","3121631","co37621","norming","","","","","","",""
"null","../img/tt/1125tt.jpg","null","mooney2","image-keyboard-response","165","759622","0.0-6.0-5.22","3121631","co37621","norming","","","","","","",""
"3154.4199999988778","","","post_reveal_questions","survey-likert","166","762778","0.0-6.0-6.22","3121631","co37621","norming","","","{""aha"":2}","[0]","../img/tt/1125tt.jpg","",""
"null","<div style=""font-size:60px;""> </div>","null","fixation","html-keyboard-response","167","762981","0.0-6.0-0.23","3121631","co37621","norming","","","","","","",""
"null","../img/tt/1243tt.jpg","null","mooney1","image-keyboard-response","168","765988","0.0-6.0-1.23","3121631","co37621","norming","","","","","","",""
"5120.539999999921","","","post_mooney1_questions","survey-likert","169","771110","0.0-6.0-2.23","3121631","co37621","norming","","","{""curiosity"":4,""confidence"":1}","[0,1]","../img/tt/1243tt.jpg","",""
"5300.865000001155","","","recognition","survey-text","170","776413","0.0-6.0-3.23","3121631","co37621","norming","","","{""guess"":""animal""}","","../img/tt/1243tt.jpg","",""
"null","../img/gs/1243gs.jpg","null","reveal","image-keyboard-response","171","778419","0.0-6.0-4.23","3121631","co37621","norming","","","","","","",""
"null","../img/tt/1243tt.jpg","null","mooney2","image-keyboard-response","172","780425","0.0-6.0-5.23","3121631","co37621","norming","","","","","","",""
"4314.174999999581","","","post_reveal_questions","survey-likert","173","784741","0.0-6.0-6.23","3121631","co37621","norming","","","{""aha"":2}","[0]","../img/tt/1243tt.jpg","",""
"null","<div style=""font-size:60px;""> </div>","null","fixation","html-keyboard-response","174","784947","0.0-6.0-0.24","3121631","co37621","norming","","","","","","",""
"null","../img/tt/477tt.jpg","null","mooney1","image-keyboard-response","175","787954","0.0-6.0-1.24","3121631","co37621","norming","","","","","","",""
"6007.1699999971315","","","post_mooney1_questions","survey-likert","176","793963","0.0-6.0-2.24","3121631","co37621","norming","","","{""curiosity"":5,""confidence"":1}","[0,1]","../img/tt/477tt.jpg","",""
"3935.2599999983795","","","recognition","survey-text","177","797900","0.0-6.0-3.24","3121631","co37621","norming","","","{""guess"":""""}","","../img/tt/477tt.jpg","",""
"null","../img/gs/477gs.jpg","null","reveal","image-keyboard-response","178","799907","0.0-6.0-4.24","3121631","co37621","norming","","","","","","",""
"null","../img/tt/477tt.jpg","null","mooney2","image-keyboard-response","179","801913","0.0-6.0-5.24","3121631","co37621","norming","","","","","","",""
"2775.5049999977928","","","post_reveal_questions","survey-likert","180","804690","0.0-6.0-6.24","3121631","co37621","norming","","","{""aha"":0}","[0]","../img/tt/477tt.jpg","",""
"null","<div style=""font-size:60px;""> </div>","null","fixation","html-keyboard-response","181","804895","0.0-6.0-0.25","3121631","co37621","norming","","","","","","",""
"null","../img/tt/1260tt.jpg","null","mooney1","image-keyboard-response","182","807897","0.0-6.0-1.25","3121631","co37621","norming","","","","","","",""
"6691.305000000284","","","post_mooney1_questions","survey-likert","183","814590","0.0-6.0-2.25","3121631","co37621","norming","","","{""curiosity"":5,""confidence"":0}","[0,1]","../img/tt/1260tt.jpg","",""
"853.4900000012713","","","recognition","survey-text","184","815447","0.0-6.0-3.25","3121631","co37621","norming","","","{""guess"":""""}","","../img/tt/1260tt.jpg","",""
"null","../img/gs/1260gs.jpg","null","reveal","image-keyboard-response","185","817453","0.0-6.0-4.25","3121631","co37621","norming","","","","","","",""
"null","../img/tt/1260tt.jpg","null","mooney2","image-keyboard-response","186","819458","0.0-6.0-5.25","3121631","co37621","norming","","","","","","",""
"1840.6749999994645","","","post_reveal_questions","survey-likert","187","821300","0.0-6.0-6.25","3121631","co37621","norming","","","{""aha"":0}","[0]","../img/tt/1260tt.jpg","",""
"null","<div style=""font-size:60px;""> </div>","null","fixation","html-keyboard-response","188","821506","0.0-6.0-0.26","3121631","co37621","norming","","","","","","",""
"null","../img/tt/273tt.jpg","null","mooney1","image-keyboard-response","189","824513","0.0-6.0-1.26","3121631","co37621","norming","","","","","","",""
"11621.970000000088","","","post_mooney1_questions","survey-likert","190","836138","0.0-6.0-2.26","3121631","co37621","norming","","","{""curiosity"":1,""confidence"":6}","[0,1]","../img/tt/273tt.jpg","",""
"21464.999999996508","","","recognition","survey-text","191","857609","0.0-6.0-3.26","3121631","co37621","norming","","","{""guess"":""smiling wide""}","","../img/tt/273tt.jpg","",""
"null","../img/gs/273gs.jpg","null","reveal","image-keyboard-response","192","859615","0.0-6.0-4.26","3121631","co37621","norming","","","","","","",""
"null","../img/tt/273tt.jpg","null","mooney2","image-keyboard-response","193","861620","0.0-6.0-5.26","3121631","co37621","norming","","","","","","",""
"3381.5100000028033","","","post_reveal_questions","survey-likert","194","865003","0.0-6.0-6.26","3121631","co37621","norming","","","{""aha"":5}","[0]","../img/tt/273tt.jpg","",""
"null","<div style=""font-size:60px;""> </div>","null","fixation","html-keyboard-response","195","865207","0.0-6.0-0.27","3121631","co37621","norming","","","","","","",""
"null","../img/tt/580tt.jpg","null","mooney1","image-keyboard-response","196","868214","0.0-6.0-1.27","3121631","co37621","norming","","","","","","",""
"5918.375000001048","","","post_mooney1_questions","survey-likert","197","874134","0.0-6.0-2.27","3121631","co37621","norming","","","{""curiosity"":5,""confidence"":0}","[0,1]","../img/tt/580tt.jpg","",""
"848.4950000019744","","","recognition","survey-text","198","874985","0.0-6.0-3.27","3121631","co37621","norming","","","{""guess"":""""}","","../img/tt/580tt.jpg","",""
"null","../img/gs/580gs.jpg","null","reveal","image-keyboard-response","199","876992","0.0-6.0-4.27","3121631","co37621","norming","","","","","","",""
"null","../img/tt/580tt.jpg","null","mooney2","image-keyboard-response","200","878998","0.0-6.0-5.27","3121631","co37621","norming","","","","","","",""
"2950.784999997355","","","post_reveal_questions","survey-likert","201","881952","0.0-6.0-6.27","3121631","co37621","norming","","","{""aha"":0}","[0]","../img/tt/580tt.jpg","",""
"null","<div style=""font-size:60px;""> </div>","null","fixation","html-keyboard-response","202","882156","0.0-6.0-0.28","3121631","co37621","norming","","","","","","",""
"null","../img/tt/082tt.jpg","null","mooney1","image-keyboard-response","203","885162","0.0-6.0-1.28","3121631","co37621","norming","","","","","","",""
"6652.464999999269","","","post_mooney1_questions","survey-likert","204","891817","0.0-6.0-2.28","3121631","co37621","norming","","","{""curiosity"":5,""confidence"":1}","[0,1]","../img/tt/082tt.jpg","",""
"2578.7549999986077","","","recognition","survey-text","205","894398","0.0-6.0-3.28","3121631","co37621","norming","","","{""guess"":""horse""}","","../img/tt/082tt.jpg","",""
"null","../img/gs/082gs.jpg","null","reveal","image-keyboard-response","206","896404","0.0-6.0-4.28","3121631","co37621","norming","","","","","","",""
"null","../img/tt/082tt.jpg","null","mooney2","image-keyboard-response","207","898410","0.0-6.0-5.28","3121631","co37621","norming","","","","","","",""
"2429.099999997532","","","post_reveal_questions","survey-likert","208","900841","0.0-6.0-6.28","3121631","co37621","norming","","","{""aha"":0}","[0]","../img/tt/082tt.jpg","",""
"null","<div style=""font-size:60px;""> </div>","null","fixation","html-keyboard-response","209","901043","0.0-6.0-0.29","3121631","co37621","norming","","","","","","",""
"null","../img/tt/1048tt.jpg","null","mooney1","image-keyboard-response","210","904050","0.0-6.0-1.29","3121631","co37621","norming","","","","","","",""
"5203.315000002505","","","post_mooney1_questions","survey-likert","211","909255","0.0-6.0-2.29","3121631","co37621","norming","","","{""curiosity"":5,""confidence"":0}","[0,1]","../img/tt/1048tt.jpg","",""
"833.0199999982724","","","recognition","survey-text","212","910090","0.0-6.0-3.29","3121631","co37621","norming","","","{""guess"":""""}","","../img/tt/1048tt.jpg","",""
"null","../img/gs/1048gs.jpg","null","reveal","image-keyboard-response","213","912097","0.0-6.0-4.29","3121631","co37621","norming","","","","","","",""
"null","../img/tt/1048tt.jpg","null","mooney2","image-keyboard-response","214","914103","0.0-6.0-5.29","3121631","co37621","norming","","","","","","",""
"1822.1100000009174","","","post_reveal_questions","survey-likert","215","915926","0.0-6.0-6.29","3121631","co37621","norming","","","{""aha"":0}","[0]","../img/tt/1048tt.jpg","",""
"null","<div style=""font-size:60px;""> </div>","null","fixation","html-keyboard-response","216","916131","0.0-6.0-0.30","3121631","co37621","norming","","","","","","",""
"null","../img/tt/329tt.jpg","null","mooney1","image-keyboard-response","217","919134","0.0-6.0-1.30","3121631","co37621","norming","","","","","","",""
"6575.454999998328","","","post_mooney1_questions","survey-likert","218","925711","0.0-6.0-2.30","3121631","co37621","norming","","","{""curiosity"":4,""confidence"":1}","[0,1]","../img/tt/329tt.jpg","",""
"3267.8649999980116","","","recognition","survey-text","219","928983","0.0-6.0-3.30","3121631","co37621","norming","","","{""guess"":""old man""}","","../img/tt/329tt.jpg","",""
"null","../img/gs/329gs.jpg","null","reveal","image-keyboard-response","220","930986","0.0-6.0-4.30","3121631","co37621","norming","","","","","","",""
"null","../img/tt/329tt.jpg","null","mooney2","image-keyboard-response","221","932992","0.0-6.0-5.30","3121631","co37621","norming","","","","","","",""
"3679.715000002063","","","post_reveal_questions","survey-likert","222","936674","0.0-6.0-6.30","3121631","co37621","norming","","","{""aha"":2}","[0]","../img/tt/329tt.jpg","",""
"null","<div style=""font-size:60px;""> </div>","null","fixation","html-keyboard-response","223","936880","0.0-6.0-0.31","3121631","co37621","norming","","","","","","",""
"null","../img/tt/020tt.jpg","null","mooney1","image-keyboard-response","224","939884","0.0-6.0-1.31","3121631","co37621","norming","","","","","","",""
"4099.9100000008475","","","post_mooney1_questions","survey-likert","225","943986","0.0-6.0-2.31","3121631","co37621","norming","","","{""curiosity"":3,""confidence"":0}","[0,1]","../img/tt/020tt.jpg","",""
"695.2800000035204","","","recognition","survey-text","226","944683","0.0-6.0-3.31","3121631","co37621","norming","","","{""guess"":""""}","","../img/tt/020tt.jpg","",""
"null","../img/gs/020gs.jpg","null","reveal","image-keyboard-response","227","946690","0.0-6.0-4.31","3121631","co37621","norming","","","","","","",""
"null","../img/tt/020tt.jpg","null","mooney2","image-keyboard-response","228","948693","0.0-6.0-5.31","3121631","co37621","norming","","","","","","",""
"1819.564999997965","","","post_reveal_questions","survey-likert","229","950514","0.0-6.0-6.31","3121631","co37621","norming","","","{""aha"":0}","[0]","../img/tt/020tt.jpg","",""
"null","<div style=""font-size:60px;""> </div>","null","fixation","html-keyboard-response","230","950718","0.0-6.0-0.32","3121631","co37621","norming","","","","","","",""
"null","../img/tt/307tt.jpg","null","mooney1","image-keyboard-response","231","953722","0.0-6.0-1.32","3121631","co37621","norming","","","","","","",""
"7522.849999997648","","","post_mooney1_questions","survey-likert","232","961247","0.0-6.0-2.32","3121631","co37621","norming","","","{""curiosity"":4,""confidence"":1}","[0,1]","../img/tt/307tt.jpg","",""
"2810.890000000596","","","recognition","survey-text","233","964061","0.0-6.0-3.32","3121631","co37621","norming","","","{""guess"":""mice""}","","../img/tt/307tt.jpg","",""
"null","../img/gs/307gs.jpg","null","reveal","image-keyboard-response","234","966065","0.0-6.0-4.32","3121631","co37621","norming","","","","","","",""
"null","../img/tt/307tt.jpg","null","mooney2","image-keyboard-response","235","968071","0.0-6.0-5.32","3121631","co37621","norming","","","","","","",""
"3420.9999999984866","","","post_reveal_questions","survey-likert","236","971493","0.0-6.0-6.32","3121631","co37621","norming","","","{""aha"":1}","[0]","../img/tt/307tt.jpg","",""
"null","<div style=""font-size:60px;""> </div>","null","fixation","html-keyboard-response","237","971699","0.0-6.0-0.33","3121631","co37621","norming","","","","","","",""
"null","../img/tt/098tt.jpg","null","mooney1","image-keyboard-response","238","974706","0.0-6.0-1.33","3121631","co37621","norming","","","","","","",""
"5728.579999999027","","","post_mooney1_questions","survey-likert","239","980436","0.0-6.0-2.33","3121631","co37621","norming","","","{""curiosity"":3,""confidence"":0}","[0,1]","../img/tt/098tt.jpg","",""
"767.4100000003818","","","recognition","survey-text","240","981206","0.0-6.0-3.33","3121631","co37621","norming","","","{""guess"":""""}","","../img/tt/098tt.jpg","",""
"null","../img/gs/098gs.jpg","null","reveal","image-keyboard-response","241","983211","0.0-6.0-4.33","3121631","co37621","norming","","","","","","",""
"null","../img/tt/098tt.jpg","null","mooney2","image-keyboard-response","242","985217","0.0-6.0-5.33","3121631","co37621","norming","","","","","","",""
"1817.5249999985099","","","post_reveal_questions","survey-likert","243","987036","0.0-6.0-6.33","3121631","co37621","norming","","","{""aha"":0}","[0]","../img/tt/098tt.jpg","",""
"null","<div style=""font-size:60px;""> </div>","null","fixation","html-keyboard-response","244","987240","0.0-6.0-0.34","3121631","co37621","norming","","","","","","",""
"null","../img/tt/1189tt.jpg","null","mooney1","image-keyboard-response","245","990246","0.0-6.0-1.34","3121631","co37621","norming","","","","","","",""
"7510.584999999963","","","post_mooney1_questions","survey-likert","246","997759","0.0-6.0-2.34","3121631","co37621","norming","","","{""curiosity"":2,""confidence"":2}","[0,1]","../img/tt/1189tt.jpg","",""
"2324.560000000871","","","recognition","survey-text","247","1000086","0.0-6.0-3.34","3121631","co37621","norming","","","{""guess"":""bird ""}","","../img/tt/1189tt.jpg","",""
"null","../img/gs/1189gs.jpg","null","reveal","image-keyboard-response","248","1002092","0.0-6.0-4.34","3121631","co37621","norming","","","","","","",""
"null","../img/tt/1189tt.jpg","null","mooney2","image-keyboard-response","249","1004099","0.0-6.0-5.34","3121631","co37621","norming","","","","","","",""
"2318.2099999976344","","","post_reveal_questions","survey-likert","250","1006418","0.0-6.0-6.34","3121631","co37621","norming","","","{""aha"":0}","[0]","../img/tt/1189tt.jpg","",""
"null","<div style=""font-size:60px;""> </div>","null","fixation","html-keyboard-response","251","1006625","0.0-6.0-0.35","3121631","co37621","norming","","","","","","",""
"null","../img/tt/112tt.jpg","null","mooney1","image-keyboard-response","252","1009631","0.0-6.0-1.35","3121631","co37621","norming","","","","","","",""
"10269.75999999931","","","post_mooney1_questions","survey-likert","253","1019903","0.0-6.0-2.35","3121631","co37621","norming","","","{""curiosity"":4,""confidence"":1}","[0,1]","../img/tt/112tt.jpg","",""
"3659.2049999998417","","","recognition","survey-text","254","1023565","0.0-6.0-3.35","3121631","co37621","norming","","","{""guess"":""penguin""}","","../img/tt/112tt.jpg","",""
"null","../img/gs/112gs.jpg","null","reveal","image-keyboard-response","255","1025571","0.0-6.0-4.35","3121631","co37621","norming","","","","","","",""
"null","../img/tt/112tt.jpg","null","mooney2","image-keyboard-response","256","1027577","0.0-6.0-5.35","3121631","co37621","norming","","","","","","",""
"2587.00499999756","","","post_reveal_questions","survey-likert","257","1030166","0.0-6.0-6.35","3121631","co37621","norming","","","{""aha"":1}","[0]","../img/tt/112tt.jpg","",""
"null","<div style=""font-size:60px;""> </div>","null","fixation","html-keyboard-response","258","1030372","0.0-6.0-0.36","3121631","co37621","norming","","","","","","",""
"null","../img/tt/406tt.jpg","null","mooney1","image-keyboard-response","259","1033379","0.0-6.0-1.36","3121631","co37621","norming","","","","","","",""
"7715.560000000638","","","post_mooney1_questions","survey-likert","260","1041096","0.0-6.0-2.36","3121631","co37621","norming","","","{""curiosity"":4,""confidence"":0}","[0,1]","../img/tt/406tt.jpg","",""
"957.2000000006519","","","recognition","survey-text","261","1042056","0.0-6.0-3.36","3121631","co37621","norming","","","{""guess"":""""}","","../img/tt/406tt.jpg","",""
"null","../img/gs/406gs.jpg","null","reveal","image-keyboard-response","262","1044059","0.0-6.0-4.36","3121631","co37621","norming","","","","","","",""
"null","../img/tt/406tt.jpg","null","mooney2","image-keyboard-response","263","1046064","0.0-6.0-5.36","3121631","co37621","norming","","","","","","",""
"2090.329999999143","","","post_reveal_questions","survey-likert","264","1048156","0.0-6.0-6.36","3121631","co37621","norming","","","{""aha"":0}","[0]","../img/tt/406tt.jpg","",""
"null","<div style=""font-size:60px;""> </div>","null","fixation","html-keyboard-response","265","1048362","0.0-6.0-0.37","3121631","co37621","norming","","","","","","",""
"null","../img/tt/049tt.jpg","null","mooney1","image-keyboard-response","266","1051369","0.0-6.0-1.37","3121631","co37621","norming","","","","","","",""
"9212.285000001546","","","post_mooney1_questions","survey-likert","267","1060583","0.0-6.0-2.37","3121631","co37621","norming","","","{""curiosity"":4,""confidence"":1}","[0,1]","../img/tt/049tt.jpg","",""
"5817.100000000326","","","recognition","survey-text","268","1066404","0.0-6.0-3.37","3121631","co37621","norming","","","{""guess"":""whale""}","","../img/tt/049tt.jpg","",""
"null","../img/gs/049gs.jpg","null","reveal","image-keyboard-response","269","1068411","0.0-6.0-4.37","3121631","co37621","norming","","","","","","",""
"null","../img/tt/049tt.jpg","null","mooney2","image-keyboard-response","270","1070413","0.0-6.0-5.37","3121631","co37621","norming","","","","","","",""
"1703.294999999227","","","post_reveal_questions","survey-likert","271","1072118","0.0-6.0-6.37","3121631","co37621","norming","","","{""aha"":0}","[0]","../img/tt/049tt.jpg","",""
"null","<div style=""font-size:60px;""> </div>","null","fixation","html-keyboard-response","272","1072325","0.0-6.0-0.38","3121631","co37621","norming","","","","","","",""
"null","../img/tt/184tt.jpg","null","mooney1","image-keyboard-response","273","1075330","0.0-6.0-1.38","3121631","co37621","norming","","","","","","",""
"5209.1400000026915","","","post_mooney1_questions","survey-likert","274","1080541","0.0-6.0-2.38","3121631","co37621","norming","","","{""curiosity"":3,""confidence"":1}","[0,1]","../img/tt/184tt.jpg","",""
"2057.1700000001583","","","recognition","survey-text","275","1082601","0.0-6.0-3.38","3121631","co37621","norming","","","{""guess"":""koala""}","","../img/tt/184tt.jpg","",""
"null","../img/gs/184gs.jpg","null","reveal","image-keyboard-response","276","1084607","0.0-6.0-4.38","3121631","co37621","norming","","","","","","",""
"null","../img/tt/184tt.jpg","null","mooney2","image-keyboard-response","277","1086613","0.0-6.0-5.38","3121631","co37621","norming","","","","","","",""
"4499.009999999544","","","post_reveal_questions","survey-likert","278","1091114","0.0-6.0-6.38","3121631","co37621","norming","","","{""aha"":1}","[0]","../img/tt/184tt.jpg","",""
"null","<div style=""font-size:60px;""> </div>","null","fixation","html-keyboard-response","279","1091316","0.0-6.0-0.39","3121631","co37621","norming","","","","","","",""
"null","../img/tt/040tt.jpg","null","mooney1","image-keyboard-response","280","1094322","0.0-6.0-1.39","3121631","co37621","norming","","","","","","",""
"4053.8200000009965","","","post_mooney1_questions","survey-likert","281","1098378","0.0-6.0-2.39","3121631","co37621","norming","","","{""curiosity"":2,""confidence"":0}","[0,1]","../img/tt/040tt.jpg","",""
"937.8749999997672","","","recognition","survey-text","282","1099319","0.0-6.0-3.39","3121631","co37621","norming","","","{""guess"":""""}","","../img/tt/040tt.jpg","",""
"null","../img/gs/040gs.jpg","null","reveal","image-keyboard-response","283","1101325","0.0-6.0-4.39","3121631","co37621","norming","","","","","","",""
"null","../img/tt/040tt.jpg","null","mooney2","image-keyboard-response","284","1103332","0.0-6.0-5.39","3121631","co37621","norming","","","","","","",""
"2056.29000000027","","","post_reveal_questions","survey-likert","285","1105390","0.0-6.0-6.39","3121631","co37621","norming","","","{""aha"":0}","[0]","../img/tt/040tt.jpg","",""
"null","<div style=""font-size:60px;""> </div>","null","fixation","html-keyboard-response","286","1105597","0.0-6.0-0.40","3121631","co37621","norming","","","","","","",""
"null","../img/tt/1173tt.jpg","null","mooney1","image-keyboard-response","287","1108603","0.0-6.0-1.40","3121631","co37621","norming","","","","","","",""
"13206.884999999544","","","post_mooney1_questions","survey-likert","288","1121812","0.0-6.0-2.40","3121631","co37621","norming","","","{""curiosity"":4,""confidence"":4}","[0,1]","../img/tt/1173tt.jpg","",""
"7807.094999999972","","","recognition","survey-text","289","1129622","0.0-6.0-3.40","3121631","co37621","norming","","","{""guess"":""voetball""}","","../img/tt/1173tt.jpg","",""
"null","../img/gs/1173gs.jpg","null","reveal","image-keyboard-response","290","1131628","0.0-6.0-4.40","3121631","co37621","norming","","","","","","",""
"null","../img/tt/1173tt.jpg","null","mooney2","image-keyboard-response","291","1133633","0.0-6.0-5.40","3121631","co37621","norming","","","","","","",""
"2206.2950000001583","","","post_reveal_questions","survey-likert","292","1135841","0.0-6.0-6.40","3121631","co37621","norming","","","{""aha"":4}","[0]","../img/tt/1173tt.jpg","",""
"null","<div style=""font-size:60px;""> </div>","null","fixation","html-keyboard-response","293","1136047","0.0-6.0-0.41","3121631","co37621","norming","","","","","","",""
"null","../img/tt/194tt.jpg","null","mooney1","image-keyboard-response","294","1139051","0.0-6.0-1.41","3121631","co37621","norming","","","","","","",""
"6224.459999997634","","","post_mooney1_questions","survey-likert","295","1145277","0.0-6.0-2.41","3121631","co37621","norming","","","{""curiosity"":4,""confidence"":4}","[0,1]","../img/tt/194tt.jpg","",""
"4643.135000002105","","","recognition","survey-text","296","1149923","0.0-6.0-3.41","3121631","co37621","norming","","","{""guess"":""playing harp""}","","../img/tt/194tt.jpg","",""
"null","../img/gs/194gs.jpg","null","reveal","image-keyboard-response","297","1151929","0.0-6.0-4.41","3121631","co37621","norming","","","","","","",""
"null","../img/tt/194tt.jpg","null","mooney2","image-keyboard-response","298","1153931","0.0-6.0-5.41","3121631","co37621","norming","","","","","","",""
"1819.0099999993108","","","post_reveal_questions","survey-likert","299","1155752","0.0-6.0-6.41","3121631","co37621","norming","","","{""aha"":5}","[0]","../img/tt/194tt.jpg","",""
"null","<div style=""font-size:60px;""> </div>","null","fixation","html-keyboard-response","300","1155955","0.0-6.0-0.42","3121631","co37621","norming","","","","","","",""
"null","../img/tt/1116tt.jpg","null","mooney1","image-keyboard-response","301","1158958","0.0-6.0-1.42","3121631","co37621","norming","","","","","","",""
"4783.610000002198","","","post_mooney1_questions","survey-likert","302","1163744","0.0-6.0-2.42","3121631","co37621","norming","","","{""curiosity"":4,""confidence"":2}","[0,1]","../img/tt/1116tt.jpg","",""
"2404.810000000056","","","recognition","survey-text","303","1166151","0.0-6.0-3.42","3121631","co37621","norming","","","{""guess"":""boats""}","","../img/tt/1116tt.jpg","",""
"null","../img/gs/1116gs.jpg","null","reveal","image-keyboard-response","304","1168153","0.0-6.0-4.42","3121631","co37621","norming","","","","","","",""
"null","../img/tt/1116tt.jpg","null","mooney2","image-keyboard-response","305","1170159","0.0-6.0-5.42","3121631","co37621","norming","","","","","","",""
"2809.8000000026077","","","post_reveal_questions","survey-likert","306","1172970","0.0-6.0-6.42","3121631","co37621","norming","","","{""aha"":4}","[0]","../img/tt/1116tt.jpg","",""
"null","<div style=""font-size:60px;""> </div>","null","fixation","html-keyboard-response","307","1173176","0.0-6.0-0.43","3121631","co37621","norming","","","","","","",""
"null","../img/tt/319tt.jpg","null","mooney1","image-keyboard-response","308","1176185","0.0-6.0-1.43","3121631","co37621","norming","","","","","","",""
"7109.144999998622","","","post_mooney1_questions","survey-likert","309","1183296","0.0-6.0-2.43","3121631","co37621","norming","","","{""curiosity"":4,""confidence"":1}","[0,1]","../img/tt/319tt.jpg","",""
"3175.7900000009686","","","recognition","survey-text","310","1186474","0.0-6.0-3.43","3121631","co37621","norming","","","{""guess"":""cow""}","","../img/tt/319tt.jpg","",""
"null","../img/gs/319gs.jpg","null","reveal","image-keyboard-response","311","1188478","0.0-6.0-4.43","3121631","co37621","norming","","","","","","",""
"null","../img/tt/319tt.jpg","null","mooney2","image-keyboard-response","312","1190479","0.0-6.0-5.43","3121631","co37621","norming","","","","","","",""
"1997.7999999972526","","","post_reveal_questions","survey-likert","313","1192479","0.0-6.0-6.43","3121631","co37621","norming","","","{""aha"":2}","[0]","../img/tt/319tt.jpg","",""
"null","<div style=""font-size:60px;""> </div>","null","fixation","html-keyboard-response","314","1192683","0.0-6.0-0.44","3121631","co37621","norming","","","","","","",""
"null","../img/tt/442tt.jpg","null","mooney1","image-keyboard-response","315","1195689","0.0-6.0-1.44","3121631","co37621","norming","","","","","","",""
"4276.144999999786","","","post_mooney1_questions","survey-likert","316","1199968","0.0-6.0-2.44","3121631","co37621","norming","","","{""curiosity"":4,""confidence"":0}","[0,1]","../img/tt/442tt.jpg","",""
"704.3000000012107","","","recognition","survey-text","317","1200675","0.0-6.0-3.44","3121631","co37621","norming","","","{""guess"":""""}","","../img/tt/442tt.jpg","",""
"null","../img/gs/442gs.jpg","null","reveal","image-keyboard-response","318","1202681","0.0-6.0-4.44","3121631","co37621","norming","","","","","","",""
"null","../img/tt/442tt.jpg","null","mooney2","image-keyboard-response","319","1204688","0.0-6.0-5.44","3121631","co37621","norming","","","","","","",""
"2053.3200000026263","","","post_reveal_questions","survey-likert","320","1206742","0.0-6.0-6.44","3121631","co37621","norming","","","{""aha"":0}","[0]","../img/tt/442tt.jpg","",""
"null","<div style=""font-size:60px;""> </div>","null","fixation","html-keyboard-response","321","1206948","0.0-6.0-0.45","3121631","co37621","norming","","","","","","",""
"null","../img/tt/1211tt.jpg","null","mooney1","image-keyboard-response","322","1209955","0.0-6.0-1.45","3121631","co37621","norming","","","","","","",""
"5046.674999997718","","","post_mooney1_questions","survey-likert","323","1215004","0.0-6.0-2.45","3121631","co37621","norming","","","{""curiosity"":1,""confidence"":0}","[0,1]","../img/tt/1211tt.jpg","",""
"2336.2899999993388","","","recognition","survey-text","324","1217343","0.0-6.0-3.45","3121631","co37621","norming","","","{""guess"":""lake""}","","../img/tt/1211tt.jpg","",""
"null","../img/gs/1211gs.jpg","null","reveal","image-keyboard-response","325","1219347","0.0-6.0-4.45","3121631","co37621","norming","","","","","","",""
"null","../img/tt/1211tt.jpg","null","mooney2","image-keyboard-response","326","1221348","0.0-6.0-5.45","3121631","co37621","norming","","","","","","",""
"2691.2799999990966","","","post_reveal_questions","survey-likert","327","1224041","0.0-6.0-6.45","3121631","co37621","norming","","","{""aha"":0}","[0]","../img/tt/1211tt.jpg","",""
"null","<div style=""font-size:60px;""> </div>","null","fixation","html-keyboard-response","328","1224246","0.0-6.0-0.46","3121631","co37621","norming","","","","","","",""
"null","../img/tt/1191tt.jpg","null","mooney1","image-keyboard-response","329","1227252","0.0-6.0-1.46","3121631","co37621","norming","","","","","","",""
"5963.719999999739","","","post_mooney1_questions","survey-likert","330","1233218","0.0-6.0-2.46","3121631","co37621","norming","","","{""curiosity"":3,""confidence"":1}","[0,1]","../img/tt/1191tt.jpg","",""
"5332.979999999283","","","recognition","survey-text","331","1238553","0.0-6.0-3.46","3121631","co37621","norming","","","{""guess"":""walking ""}","","../img/tt/1191tt.jpg","",""
"null","../img/gs/1191gs.jpg","null","reveal","image-keyboard-response","332","1240560","0.0-6.0-4.46","3121631","co37621","norming","","","","","","",""
"null","../img/tt/1191tt.jpg","null","mooney2","image-keyboard-response","333","1242566","0.0-6.0-5.46","3121631","co37621","norming","","","","","","",""
"2781.0700000007637","","","post_reveal_questions","survey-likert","334","1245348","0.0-6.0-6.46","3121631","co37621","norming","","","{""aha"":1}","[0]","../img/tt/1191tt.jpg","",""
"null","<div style=""font-size:60px;""> </div>","null","fixation","html-keyboard-response","335","1245555","0.0-6.0-0.47","3121631","co37621","norming","","","","","","",""
"null","../img/tt/121tt.jpg","null","mooney1","image-keyboard-response","336","1248560","0.0-6.0-1.47","3121631","co37621","norming","","","","","","",""
"4481.094999999274","","","post_mooney1_questions","survey-likert","337","1253042","0.0-6.0-2.47","3121631","co37621","norming","","","{""curiosity"":3,""confidence"":2}","[0,1]","../img/tt/121tt.jpg","",""
"7045.194999998668","","","recognition","survey-text","338","1260090","0.0-6.0-3.47","3121631","co37621","norming","","","{""guess"":""kangeroe""}","","../img/tt/121tt.jpg","",""
"null","../img/gs/121gs.jpg","null","reveal","image-keyboard-response","339","1262096","0.0-6.0-4.47","3121631","co37621","norming","","","","","","",""
"null","../img/tt/121tt.jpg","null","mooney2","image-keyboard-response","340","1264102","0.0-6.0-5.47","3121631","co37621","norming","","","","","","",""
"1916.4299999973737","","","post_reveal_questions","survey-likert","341","1266020","0.0-6.0-6.47","3121631","co37621","norming","","","{""aha"":5}","[0]","../img/tt/121tt.jpg","",""
"null","<div style=""font-size:60px;""> </div>","null","fixation","html-keyboard-response","342","1266227","0.0-6.0-0.48","3121631","co37621","norming","","","","","","",""
"null","../img/tt/456tt.jpg","null","mooney1","image-keyboard-response","343","1269233","0.0-6.0-1.48","3121631","co37621","norming","","","","","","",""
"4346.130000001751","","","post_mooney1_questions","survey-likert","344","1273581","0.0-6.0-2.48","3121631","co37621","norming","","","{""curiosity"":1,""confidence"":0}","[0,1]","../img/tt/456tt.jpg","",""
"671.0499999972526","","","recognition","survey-text","345","1274254","0.0-6.0-3.48","3121631","co37621","norming","","","{""guess"":""""}","","../img/tt/456tt.jpg","",""
"null","../img/gs/456gs.jpg","null","reveal","image-keyboard-response","346","1276261","0.0-6.0-4.48","3121631","co37621","norming","","","","","","",""
"null","../img/tt/456tt.jpg","null","mooney2","image-keyboard-response","347","1278262","0.0-6.0-5.48","3121631","co37621","norming","","","","","","",""
"2176.9150000000373","","","post_reveal_questions","survey-likert","348","1280441","0.0-6.0-6.48","3121631","co37621","norming","","","{""aha"":0}","[0]","../img/tt/456tt.jpg","",""
"null","<div style=""font-size:60px;""> </div>","null","fixation","html-keyboard-response","349","1280647","0.0-6.0-0.49","3121631","co37621","norming","","","","","","",""
"null","../img/tt/008tt.jpg","null","mooney1","image-keyboard-response","350","1283654","0.0-6.0-1.49","3121631","co37621","norming","","","","","","",""
"6871.805000002496","","","post_mooney1_questions","survey-likert","351","1290527","0.0-6.0-2.49","3121631","co37621","norming","","","{""curiosity"":4,""confidence"":1}","[0,1]","../img/tt/008tt.jpg","",""
"2927.8749999976717","","","recognition","survey-text","352","1293458","0.0-6.0-3.49","3121631","co37621","norming","","","{""guess"":""gun""}","","../img/tt/008tt.jpg","",""
"null","../img/gs/008gs.jpg","null","reveal","image-keyboard-response","353","1295463","0.0-6.0-4.49","3121631","co37621","norming","","","","","","",""
"null","../img/tt/008tt.jpg","null","mooney2","image-keyboard-response","354","1297469","0.0-6.0-5.49","3121631","co37621","norming","","","","","","",""
"2360.0450000013225","","","post_reveal_questions","survey-likert","355","1299830","0.0-6.0-6.49","3121631","co37621","norming","","","{""aha"":3}","[0]","../img/tt/008tt.jpg","",""
"null","<div style=""font-size:60px;""> </div>","null","fixation","html-keyboard-response","356","1300036","0.0-6.0-0.50","3121631","co37621","norming","","","","","","",""
"null","../img/tt/1255tt.jpg","null","mooney1","image-keyboard-response","357","1303043","0.0-6.0-1.50","3121631","co37621","norming","","","","","","",""
"5629.049999999581","","","post_mooney1_questions","survey-likert","358","1308674","0.0-6.0-2.50","3121631","co37621","norming","","","{""curiosity"":2,""confidence"":2}","[0,1]","../img/tt/1255tt.jpg","",""
"2824.9400000022724","","","recognition","survey-text","359","1311502","0.0-6.0-3.50","3121631","co37621","norming","","","{""guess"":""bunny""}","","../img/tt/1255tt.jpg","",""
"null","../img/gs/1255gs.jpg","null","reveal","image-keyboard-response","360","1313509","0.0-6.0-4.50","3121631","co37621","norming","","","","","","",""
"null","../img/tt/1255tt.jpg","null","mooney2","image-keyboard-response","361","1315510","0.0-6.0-5.50","3121631","co37621","norming","","","","","","",""
"6095.199999999721","","","post_reveal_questions","survey-likert","362","1321607","0.0-6.0-6.50","3121631","co37621","norming","","","{""aha"":3}","[0]","../img/tt/1255tt.jpg","",""
"null","<div style=""font-size:60px;""> </div>","null","fixation","html-keyboard-response","363","1321813","0.0-6.0-0.51","3121631","co37621","norming","","","","","","",""
"null","../img/tt/1024tt.jpg","null","mooney1","image-keyboard-response","364","1324816","0.0-6.0-1.51","3121631","co37621","norming","","","","","","",""
"7512.854999997187","","","post_mooney1_questions","survey-likert","365","1332331","0.0-6.0-2.51","3121631","co37621","norming","","","{""curiosity"":4,""confidence"":2}","[0,1]","../img/tt/1024tt.jpg","",""
"2923.3199999979697","","","recognition","survey-text","366","1335258","0.0-6.0-3.51","3121631","co37621","norming","","","{""guess"":""monkey""}","","../img/tt/1024tt.jpg","",""
"null","../img/gs/1024gs.jpg","null","reveal","image-keyboard-response","367","1337265","0.0-6.0-4.51","3121631","co37621","norming","","","","","","",""
"null","../img/tt/1024tt.jpg","null","mooney2","image-keyboard-response","368","1339271","0.0-6.0-5.51","3121631","co37621","norming","","","","","","",""
"4297.370000000345","","","post_reveal_questions","survey-likert","369","1343570","0.0-6.0-6.51","3121631","co37621","norming","","","{""aha"":0}","[0]","../img/tt/1024tt.jpg","",""
"null","<div style=""font-size:60px;""> </div>","null","fixation","html-keyboard-response","370","1343777","0.0-6.0-0.52","3121631","co37621","norming","","","","","","",""
"null","../img/tt/603tt.jpg","null","mooney1","image-keyboard-response","371","1346783","0.0-6.0-1.52","3121631","co37621","norming","","","","","","",""
"6744.525000002002","","","post_mooney1_questions","survey-likert","372","1353530","0.0-6.0-2.52","3121631","co37621","norming","","","{""curiosity"":2,""confidence"":0}","[0,1]","../img/tt/603tt.jpg","",""
"1951.4850000014994","","","recognition","survey-text","373","1355484","0.0-6.0-3.52","3121631","co37621","norming","","","{""guess"":""bird""}","","../img/tt/603tt.jpg","",""
"null","../img/gs/603gs.jpg","null","reveal","image-keyboard-response","374","1357490","0.0-6.0-4.52","3121631","co37621","norming","","","","","","",""
"null","../img/tt/603tt.jpg","null","mooney2","image-keyboard-response","375","1359496","0.0-6.0-5.52","3121631","co37621","norming","","","","","","",""
"3926.514999999199","","","post_reveal_questions","survey-likert","376","1363424","0.0-6.0-6.52","3121631","co37621","norming","","","{""aha"":2}","[0]","../img/tt/603tt.jpg","",""
"null","<div style=""font-size:60px;""> </div>","null","fixation","html-keyboard-response","377","1363631","0.0-6.0-0.53","3121631","co37621","norming","","","","","","",""
"null","../img/tt/1190tt.jpg","null","mooney1","image-keyboard-response","378","1366637","0.0-6.0-1.53","3121631","co37621","norming","","","","","","",""
"4602.804999998538","","","post_mooney1_questions","survey-likert","379","1371242","0.0-6.0-2.53","3121631","co37621","norming","","","{""curiosity"":4,""confidence"":0}","[0,1]","../img/tt/1190tt.jpg","",""
"1811.805000001099","","","recognition","survey-text","380","1373056","0.0-6.0-3.53","3121631","co37621","norming","","","{""guess"":""""}","","../img/tt/1190tt.jpg","",""
"null","../img/gs/1190gs.jpg","null","reveal","image-keyboard-response","381","1375063","0.0-6.0-4.53","3121631","co37621","norming","","","","","","",""
"null","../img/tt/1190tt.jpg","null","mooney2","image-keyboard-response","382","1377064","0.0-6.0-5.53","3121631","co37621","norming","","","","","","",""
"1842.9400000022724","","","post_reveal_questions","survey-likert","383","1378910","0.0-6.0-6.53","3121631","co37621","norming","","","{""aha"":0}","[0]","../img/tt/1190tt.jpg","",""
"null","<div style=""font-size:60px;""> </div>","null","fixation","html-keyboard-response","384","1379117","0.0-6.0-0.54","3121631","co37621","norming","","","","","","",""
"null","../img/tt/1084tt.jpg","null","mooney1","image-keyboard-response","385","1382123","0.0-6.0-1.54","3121631","co37621","norming","","","","","","",""
"4999.264999998501","","","post_mooney1_questions","survey-likert","386","1387124","0.0-6.0-2.54","3121631","co37621","norming","","","{""curiosity"":4,""confidence"":5}","[0,1]","../img/tt/1084tt.jpg","",""
"2330.9399999997113","","","recognition","survey-text","387","1389458","0.0-6.0-3.54","3121631","co37621","norming","","","{""guess"":""cake""}","","../img/tt/1084tt.jpg","",""
"null","../img/gs/1084gs.jpg","null","reveal","image-keyboard-response","388","1391463","0.0-6.0-4.54","3121631","co37621","norming","","","","","","",""
"null","../img/tt/1084tt.jpg","null","mooney2","image-keyboard-response","389","1393465","0.0-6.0-5.54","3121631","co37621","norming","","","","","","",""
"2306.54499999946","","","post_reveal_questions","survey-likert","390","1395773","0.0-6.0-6.54","3121631","co37621","norming","","","{""aha"":2}","[0]","../img/tt/1084tt.jpg","",""
"null","<div style=""font-size:60px;""> </div>","null","fixation","html-keyboard-response","391","1395979","0.0-6.0-0.55","3121631","co37621","norming","","","","","","",""
"null","../img/tt/279tt.jpg","null","mooney1","image-keyboard-response","392","1398986","0.0-6.0-1.55","3121631","co37621","norming","","","","","","",""
"4922.819999999832","","","post_mooney1_questions","survey-likert","393","1403911","0.0-6.0-2.55","3121631","co37621","norming","","","{""curiosity"":4,""confidence"":2}","[0,1]","../img/tt/279tt.jpg","",""
"2540.409999997588","","","recognition","survey-text","394","1406454","0.0-6.0-3.55","3121631","co37621","norming","","","{""guess"":""koala""}","","../img/tt/279tt.jpg","",""
"null","../img/gs/279gs.jpg","null","reveal","image-keyboard-response","395","1408460","0.0-6.0-4.55","3121631","co37621","norming","","","","","","",""
"null","../img/tt/279tt.jpg","null","mooney2","image-keyboard-response","396","1410467","0.0-6.0-5.55","3121631","co37621","norming","","","","","","",""
"1728.3949999983888","","","post_reveal_questions","survey-likert","397","1412196","0.0-6.0-6.55","3121631","co37621","norming","","","{""aha"":4}","[0]","../img/tt/279tt.jpg","",""
"null","<div style=""font-size:60px;""> </div>","null","fixation","html-keyboard-response","398","1412403","0.0-6.0-0.56","3121631","co37621","norming","","","","","","",""
"null","../img/tt/1101tt.jpg","null","mooney1","image-keyboard-response","399","1415409","0.0-6.0-1.56","3121631","co37621","norming","","","","","","",""
"8320.12499999837","","","post_mooney1_questions","survey-likert","400","1423731","0.0-6.0-2.56","3121631","co37621","norming","","","{""curiosity"":4,""confidence"":2}","[0,1]","../img/tt/1101tt.jpg","",""
"2948.945000000065","","","recognition","survey-text","401","1426683","0.0-6.0-3.56","3121631","co37621","norming","","","{""guess"":""hockey""}","","../img/tt/1101tt.jpg","",""
"null","../img/gs/1101gs.jpg","null","reveal","image-keyboard-response","402","1428689","0.0-6.0-4.56","3121631","co37621","norming","","","","","","",""
"null","../img/tt/1101tt.jpg","null","mooney2","image-keyboard-response","403","1430695","0.0-6.0-5.56","3121631","co37621","norming","","","","","","",""
"2724.2049999986775","","","post_reveal_questions","survey-likert","404","1433421","0.0-6.0-6.56","3121631","co37621","norming","","","{""aha"":4}","[0]","../img/tt/1101tt.jpg","",""
"null","<div style=""font-size:60px;""> </div>","null","fixation","html-keyboard-response","405","1433627","0.0-6.0-0.57","3121631","co37621","norming","","","","","","",""
"null","../img/tt/300tt.jpg","null","mooney1","image-keyboard-response","406","1436634","0.0-6.0-1.57","3121631","co37621","norming","","","","","","",""
"4906.360000000801","","","post_mooney1_questions","survey-likert","407","1441542","0.0-6.0-2.57","3121631","co37621","norming","","","{""curiosity"":4,""confidence"":0}","[0,1]","../img/tt/300tt.jpg","",""
"736.3149999983143","","","recognition","survey-text","408","1442281","0.0-6.0-3.57","3121631","co37621","norming","","","{""guess"":""""}","","../img/tt/300tt.jpg","",""
"null","../img/gs/300gs.jpg","null","reveal","image-keyboard-response","409","1444287","0.0-6.0-4.57","3121631","co37621","norming","","","","","","",""
"null","../img/tt/300tt.jpg","null","mooney2","image-keyboard-response","410","1446292","0.0-6.0-5.57","3121631","co37621","norming","","","","","","",""
"2143.7649999971036","","","post_reveal_questions","survey-likert","411","1448438","0.0-6.0-6.57","3121631","co37621","norming","","","{""aha"":0}","[0]","../img/tt/300tt.jpg","",""
"null","<div style=""font-size:60px;""> </div>","null","fixation","html-keyboard-response","412","1448644","0.0-6.0-0.58","3121631","co37621","norming","","","","","","",""
"null","../img/tt/1224tt.jpg","null","mooney1","image-keyboard-response","413","1451651","0.0-6.0-1.58","3121631","co37621","norming","","","","","","",""
"6366.245000001043","","","post_mooney1_questions","survey-likert","414","1458019","0.0-6.0-2.58","3121631","co37621","norming","","","{""curiosity"":3,""confidence"":4}","[0,1]","../img/tt/1224tt.jpg","",""
"4254.849999997532","","","recognition","survey-text","415","1462276","0.0-6.0-3.58","3121631","co37621","norming","","","{""guess"":""basketball""}","","../img/tt/1224tt.jpg","",""
"null","../img/gs/1224gs.jpg","null","reveal","image-keyboard-response","416","1464278","0.0-6.0-4.58","3121631","co37621","norming","","","","","","",""
"null","../img/tt/1224tt.jpg","null","mooney2","image-keyboard-response","417","1466279","0.0-6.0-5.58","3121631","co37621","norming","","","","","","",""
"7449.62999999919","","","post_reveal_questions","survey-likert","418","1473730","0.0-6.0-6.58","3121631","co37621","norming","","","{""aha"":6}","[0]","../img/tt/1224tt.jpg","",""
"null","<div style=""font-size:60px;""> </div>","null","fixation","html-keyboard-response","419","1473937","0.0-6.0-0.59","3121631","co37621","norming","","","","","","",""
"null","../img/tt/1186tt.jpg","null","mooney1","image-keyboard-response","420","1476943","0.0-6.0-1.59","3121631","co37621","norming","","","","","","",""
"10449.805000000168","","","post_mooney1_questions","survey-likert","421","1487395","0.0-6.0-2.59","3121631","co37621","norming","","","{""curiosity"":4,""confidence"":1}","[0,1]","../img/tt/1186tt.jpg","",""
"7286.485000000568","","","recognition","survey-text","422","1494684","0.0-6.0-3.59","3121631","co37621","norming","","","{""guess"":""man walking""}","","../img/tt/1186tt.jpg","",""
"null","../img/gs/1186gs.jpg","null","reveal","image-keyboard-response","423","1496687","0.0-6.0-4.59","3121631","co37621","norming","","","","","","",""
"null","../img/tt/1186tt.jpg","null","mooney2","image-keyboard-response","424","1498692","0.0-6.0-5.59","3121631","co37621","norming","","","","","","",""
"2353.125000001397","","","post_reveal_questions","survey-likert","425","1501047","0.0-6.0-6.59","3121631","co37621","norming","","","{""aha"":2}","[0]","../img/tt/1186tt.jpg","",""
"null","<div style=""font-size:60px;""> </div>","null","fixation","html-keyboard-response","426","1501253","0.0-6.0-0.60","3121631","co37621","norming","","","","","","",""
"null","../img/tt/085tt.jpg","null","mooney1","image-keyboard-response","427","1504260","0.0-6.0-1.60","3121631","co37621","norming","","","","","","",""
"5642.424999998184","","","post_mooney1_questions","survey-likert","428","1509904","0.0-6.0-2.60","3121631","co37621","norming","","","{""curiosity"":4,""confidence"":0}","[0,1]","../img/tt/085tt.jpg","",""
"2664.345000001136","","","recognition","survey-text","429","1512571","0.0-6.0-3.60","3121631","co37621","norming","","","{""guess"":""""}","","../img/tt/085tt.jpg","",""
"null","../img/gs/085gs.jpg","null","reveal","image-keyboard-response","430","1514575","0.0-6.0-4.60","3121631","co37621","norming","","","","","","",""
"null","../img/tt/085tt.jpg","null","mooney2","image-keyboard-response","431","1516582","0.0-6.0-5.60","3121631","co37621","norming","","","","","","",""
"2236.4500000001863","","","post_reveal_questions","survey-likert","432","1518819","0.0-6.0-6.60","3121631","co37621","norming","","","{""aha"":0}","[0]","../img/tt/085tt.jpg","",""
"null","<div style=""font-size:60px;""> </div>","null","fixation","html-keyboard-response","433","1519026","0.0-6.0-0.61","3121631","co37621","norming","","","","","","",""
"null","../img/tt/1237tt.jpg","null","mooney1","image-keyboard-response","434","1522032","0.0-6.0-1.61","3121631","co37621","norming","","","","","","",""
"4032.9600000004284","","","post_mooney1_questions","survey-likert","435","1526067","0.0-6.0-2.61","3121631","co37621","norming","","","{""curiosity"":3,""confidence"":1}","[0,1]","../img/tt/1237tt.jpg","",""
"2082.0149999998976","","","recognition","survey-text","436","1528152","0.0-6.0-3.61","3121631","co37621","norming","","","{""guess"":""water""}","","../img/tt/1237tt.jpg","",""
"null","../img/gs/1237gs.jpg","null","reveal","image-keyboard-response","437","1530158","0.0-6.0-4.61","3121631","co37621","norming","","","","","","",""
"null","../img/tt/1237tt.jpg","null","mooney2","image-keyboard-response","438","1532164","0.0-6.0-5.61","3121631","co37621","norming","","","","","","",""
"17659.704999998212","","","post_reveal_questions","survey-likert","439","1549827","0.0-6.0-6.61","3121631","co37621","norming","","","{""aha"":1}","[0]","../img/tt/1237tt.jpg","",""
"null","<div style=""font-size:60px;""> </div>","null","fixation","html-keyboard-response","440","1550032","0.0-6.0-0.62","3121631","co37621","norming","","","","","","",""
"null","../img/tt/1122tt.jpg","null","mooney1","image-keyboard-response","441","1553036","0.0-6.0-1.62","3121631","co37621","norming","","","","","","",""
"7007.43499999959","","","post_mooney1_questions","survey-likert","442","1560045","0.0-6.0-2.62","3121631","co37621","norming","","","{""curiosity"":4,""confidence"":3}","[0,1]","../img/tt/1122tt.jpg","",""
"2688.5550000006333","","","recognition","survey-text","443","1562736","0.0-6.0-3.62","3121631","co37621","norming","","","{""guess"":""boats""}","","../img/tt/1122tt.jpg","",""
"null","../img/gs/1122gs.jpg","null","reveal","image-keyboard-response","444","1564743","0.0-6.0-4.62","3121631","co37621","norming","","","","","","",""
"null","../img/tt/1122tt.jpg","null","mooney2","image-keyboard-response","445","1566749","0.0-6.0-5.62","3121631","co37621","norming","","","","","","",""
"10944.030000002356","","","post_reveal_questions","survey-likert","446","1577695","0.0-6.0-6.62","3121631","co37621","norming","","","{""aha"":5}","[0]","../img/tt/1122tt.jpg","",""
"null","<div style=""font-size:60px;""> </div>","null","fixation","html-keyboard-response","447","1577901","0.0-6.0-0.63","3121631","co37621","norming","","","","","","",""
"null","../img/tt/552tt.jpg","null","mooney1","image-keyboard-response","448","1580908","0.0-6.0-1.63","3121631","co37621","norming","","","","","","",""
"8286.30499999784","","","post_mooney1_questions","survey-likert","449","1589196","0.0-6.0-2.63","3121631","co37621","norming","","","{""curiosity"":2,""confidence"":3}","[0,1]","../img/tt/552tt.jpg","",""
"20160.029999999097","","","recognition","survey-text","450","1609359","0.0-6.0-3.63","3121631","co37621","norming","","","{""guess"":""squirrel""}","","../img/tt/552tt.jpg","",""
"null","../img/gs/552gs.jpg","null","reveal","image-keyboard-response","451","1611365","0.0-6.0-4.63","3121631","co37621","norming","","","","","","",""
"null","../img/tt/552tt.jpg","null","mooney2","image-keyboard-response","452","1613371","0.0-6.0-5.63","3121631","co37621","norming","","","","","","",""
"2107.9250000002794","","","post_reveal_questions","survey-likert","453","1615480","0.0-6.0-6.63","3121631","co37621","norming","","","{""aha"":5}","[0]","../img/tt/552tt.jpg","",""
"null","<div style=""font-size:60px;""> </div>","null","fixation","html-keyboard-response","454","1615687","0.0-6.0-0.64","3121631","co37621","norming","","","","","","",""
"null","../img/tt/1063tt.jpg","null","mooney1","image-keyboard-response","455","1618693","0.0-6.0-1.64","3121631","co37621","norming","","","","","","",""
"7034.719999999506","","","post_mooney1_questions","survey-likert","456","1625730","0.0-6.0-2.64","3121631","co37621","norming","","","{""curiosity"":2,""confidence"":1}","[0,1]","../img/tt/1063tt.jpg","",""
"2125.609999999171","","","recognition","survey-text","457","1627858","0.0-6.0-3.64","3121631","co37621","norming","","","{""guess"":""horse""}","","../img/tt/1063tt.jpg","",""
"null","../img/gs/1063gs.jpg","null","reveal","image-keyboard-response","458","1629865","0.0-6.0-4.64","3121631","co37621","norming","","","","","","",""
"null","../img/tt/1063tt.jpg","null","mooney2","image-keyboard-response","459","1631871","0.0-6.0-5.64","3121631","co37621","norming","","","","","","",""
"1826.1650000021327","","","post_reveal_questions","survey-likert","460","1633699","0.0-6.0-6.64","3121631","co37621","norming","","","{""aha"":2}","[0]","../img/tt/1063tt.jpg","",""
"null","<div style=""font-size:60px;""> </div>","null","fixation","html-keyboard-response","461","1633904","0.0-6.0-0.65","3121631","co37621","norming","","","","","","",""
"null","../img/tt/036tt.jpg","null","mooney1","image-keyboard-response","462","1636908","0.0-6.0-1.65","3121631","co37621","norming","","","","","","",""
"8083.279999998864","","","post_mooney1_questions","survey-likert","463","1644994","0.0-6.0-2.65","3121631","co37621","norming","","","{""curiosity"":3,""confidence"":1}","[0,1]","../img/tt/036tt.jpg","",""
"3269.505000000354","","","recognition","survey-text","464","1648266","0.0-6.0-3.65","3121631","co37621","norming","","","{""guess"":""branches""}","","../img/tt/036tt.jpg","",""
"null","../img/gs/036gs.jpg","null","reveal","image-keyboard-response","465","1650272","0.0-6.0-4.65","3121631","co37621","norming","","","","","","",""
"null","../img/tt/036tt.jpg","null","mooney2","image-keyboard-response","466","1652273","0.0-6.0-5.65","3121631","co37621","norming","","","","","","",""
"2292.0699999993667","","","post_reveal_questions","survey-likert","467","1654567","0.0-6.0-6.65","3121631","co37621","norming","","","{""aha"":2}","[0]","../img/tt/036tt.jpg","",""
"null","<div style=""font-size:60px;""> </div>","null","fixation","html-keyboard-response","468","1654773","0.0-6.0-0.66","3121631","co37621","norming","","","","","","",""
"null","../img/tt/064tt.jpg","null","mooney1","image-keyboard-response","469","1657780","0.0-6.0-1.66","3121631","co37621","norming","","","","","","",""
"5025.07500000135","","","post_mooney1_questions","survey-likert","470","1662807","0.0-6.0-2.66","3121631","co37621","norming","","","{""curiosity"":3,""confidence"":0}","[0,1]","../img/tt/064tt.jpg","",""
"2246.905000000028","","","recognition","survey-text","471","1665056","0.0-6.0-3.66","3121631","co37621","norming","","","{""guess"":""""}","","../img/tt/064tt.jpg","",""
"null","../img/gs/064gs.jpg","null","reveal","image-keyboard-response","472","1667062","0.0-6.0-4.66","3121631","co37621","norming","","","","","","",""
"null","../img/tt/064tt.jpg","null","mooney2","image-keyboard-response","473","1669064","0.0-6.0-5.66","3121631","co37621","norming","","","","","","",""
"2586.6549999993294","","","post_reveal_questions","survey-likert","474","1671652","0.0-6.0-6.66","3121631","co37621","norming","","","{""aha"":0}","[0]","../img/tt/064tt.jpg","",""
"null","<div style=""font-size:60px;""> </div>","null","fixation","html-keyboard-response","475","1671858","0.0-6.0-0.67","3121631","co37621","norming","","","","","","",""
"null","../img/tt/118tt.jpg","null","mooney1","image-keyboard-response","476","1674865","0.0-6.0-1.67","3121631","co37621","norming","","","","","","",""
"7737.574999999255","","","post_mooney1_questions","survey-likert","477","1682605","0.0-6.0-2.67","3121631","co37621","norming","","","{""curiosity"":3,""confidence"":0}","[0,1]","../img/tt/118tt.jpg","",""
"1543.845000000205","","","recognition","survey-text","478","1684151","0.0-6.0-3.67","3121631","co37621","norming","","","{""guess"":""""}","","../img/tt/118tt.jpg","",""
"null","../img/gs/118gs.jpg","null","reveal","image-keyboard-response","479","1686157","0.0-6.0-4.67","3121631","co37621","norming","","","","","","",""
"null","../img/tt/118tt.jpg","null","mooney2","image-keyboard-response","480","1688163","0.0-6.0-5.67","3121631","co37621","norming","","","","","","",""
"2291.7349999989383","","","post_reveal_questions","survey-likert","481","1690457","0.0-6.0-6.67","3121631","co37621","norming","","","{""aha"":0}","[0]","../img/tt/118tt.jpg","",""
"null","<div style=""font-size:60px;""> </div>","null","fixation","html-keyboard-response","482","1690664","0.0-6.0-0.68","3121631","co37621","norming","","","","","","",""
"null","../img/tt/599tt.jpg","null","mooney1","image-keyboard-response","483","1693671","0.0-6.0-1.68","3121631","co37621","norming","","","","","","",""
"3947.2600000009406","","","post_mooney1_questions","survey-likert","484","1697620","0.0-6.0-2.68","3121631","co37621","norming","","","{""curiosity"":4,""confidence"":1}","[0,1]","../img/tt/599tt.jpg","",""
"2756.980000002077","","","recognition","survey-text","485","1700379","0.0-6.0-3.68","3121631","co37621","norming","","","{""guess"":""animal""}","","../img/tt/599tt.jpg","",""
"null","../img/gs/599gs.jpg","null","reveal","image-keyboard-response","486","1702384","0.0-6.0-4.68","3121631","co37621","norming","","","","","","",""
"null","../img/tt/599tt.jpg","null","mooney2","image-keyboard-response","487","1704385","0.0-6.0-5.68","3121631","co37621","norming","","","","","","",""
"2276.7449999991804","","","post_reveal_questions","survey-likert","488","1706664","0.0-6.0-6.68","3121631","co37621","norming","","","{""aha"":0}","[0]","../img/tt/599tt.jpg","",""
"null","<div style=""font-size:60px;""> </div>","null","fixation","html-keyboard-response","489","1706866","0.0-6.0-0.69","3121631","co37621","norming","","","","","","",""
"null","../img/tt/1188tt.jpg","null","mooney1","image-keyboard-response","490","1709873","0.0-6.0-1.69","3121631","co37621","norming","","","","","","",""
"6669.204999998445","","","post_mooney1_questions","survey-likert","491","1716544","0.0-6.0-2.69","3121631","co37621","norming","","","{""curiosity"":4,""confidence"":2}","[0,1]","../img/tt/1188tt.jpg","",""
"3774.8150000006426","","","recognition","survey-text","492","1720321","0.0-6.0-3.69","3121631","co37621","norming","","","{""guess"":""wielrenner""}","","../img/tt/1188tt.jpg","",""
"null","../img/gs/1188gs.jpg","null","reveal","image-keyboard-response","493","1722324","0.0-6.0-4.69","3121631","co37621","norming","","","","","","",""
"null","../img/tt/1188tt.jpg","null","mooney2","image-keyboard-response","494","1724325","0.0-6.0-5.69","3121631","co37621","norming","","","","","","",""
"1499.0950000029989","","","post_reveal_questions","survey-likert","495","1725826","0.0-6.0-6.69","3121631","co37621","norming","","","{""aha"":6}","[0]","../img/tt/1188tt.jpg","",""
"null","<div style=""font-size:60px;""> </div>","null","fixation","html-keyboard-response","496","1726033","0.0-6.0-0.70","3121631","co37621","norming","","","","","","",""
"null","../img/tt/1275tt.jpg","null","mooney1","image-keyboard-response","497","1729039","0.0-6.0-1.70","3121631","co37621","norming","","","","","","",""
"3517.429999999935","","","post_mooney1_questions","survey-likert","498","1732559","0.0-6.0-2.70","3121631","co37621","norming","","","{""curiosity"":3,""confidence"":0}","[0,1]","../img/tt/1275tt.jpg","",""
"1295.285000000149","","","recognition","survey-text","499","1733858","0.0-6.0-3.70","3121631","co37621","norming","","","{""guess"":""""}","","../img/tt/1275tt.jpg","",""
"null","../img/gs/1275gs.jpg","null","reveal","image-keyboard-response","500","1735865","0.0-6.0-4.70","3121631","co37621","norming","","","","","","",""
"null","../img/tt/1275tt.jpg","null","mooney2","image-keyboard-response","501","1737871","0.0-6.0-5.70","3121631","co37621","norming","","","","","","",""
"2778.070000000298","","","post_reveal_questions","survey-likert","502","1740650","0.0-6.0-6.70","3121631","co37621","norming","","","{""aha"":0}","[0]","../img/tt/1275tt.jpg","",""
"null","<div style=""font-size:60px;""> </div>","null","fixation","html-keyboard-response","503","1740857","0.0-6.0-0.71","3121631","co37621","norming","","","","","","",""
"null","../img/tt/1366tt.jpg","null","mooney1","image-keyboard-response","504","1743860","0.0-6.0-1.71","3121631","co37621","norming","","","","","","",""
"10025.51999999932","","","post_mooney1_questions","survey-likert","505","1753887","0.0-6.0-2.71","3121631","co37621","norming","","","{""curiosity"":4,""confidence"":1}","[0,1]","../img/tt/1366tt.jpg","",""
"2276.819999999134","","","recognition","survey-text","506","1756167","0.0-6.0-3.71","3121631","co37621","norming","","","{""guess"":""food""}","","../img/tt/1366tt.jpg","",""
"null","../img/gs/1366gs.jpg","null","reveal","image-keyboard-response","507","1758168","0.0-6.0-4.71","3121631","co37621","norming","","","","","","",""
"null","../img/tt/1366tt.jpg","null","mooney2","image-keyboard-response","508","1760174","0.0-6.0-5.71","3121631","co37621","norming","","","","","","",""
"3433.1999999994878","","","post_reveal_questions","survey-likert","509","1763609","0.0-6.0-6.71","3121631","co37621","norming","","","{""aha"":6}","[0]","../img/tt/1366tt.jpg","",""
"null","<div style=""font-size:60px;""> </div>","null","fixation","html-keyboard-response","510","1763815","0.0-6.0-0.72","3121631","co37621","norming","","","","","","",""
"null","../img/tt/1247tt.jpg","null","mooney1","image-keyboard-response","511","1766822","0.0-6.0-1.72","3121631","co37621","norming","","","","","","",""
"8338.104999998817","","","post_mooney1_questions","survey-likert","512","1775162","0.0-6.0-2.72","3121631","co37621","norming","","","{""curiosity"":3,""confidence"":1}","[0,1]","../img/tt/1247tt.jpg","",""
"3021.3700000022072","","","recognition","survey-text","513","1778186","0.0-6.0-3.72","3121631","co37621","norming","","","{""guess"":""turtle""}","","../img/tt/1247tt.jpg","",""
"null","../img/gs/1247gs.jpg","null","reveal","image-keyboard-response","514","1780189","0.0-6.0-4.72","3121631","co37621","norming","","","","","","",""
"null","../img/tt/1247tt.jpg","null","mooney2","image-keyboard-response","515","1782192","0.0-6.0-5.72","3121631","co37621","norming","","","","","","",""
"3745.0399999981746","","","post_reveal_questions","survey-likert","516","1785939","0.0-6.0-6.72","3121631","co37621","norming","","","{""aha"":0}","[0]","../img/tt/1247tt.jpg","",""
"null","<div style=""font-size:60px;""> </div>","null","fixation","html-keyboard-response","517","1786141","0.0-6.0-0.73","3121631","co37621","norming","","","","","","",""
"null","../img/tt/1239tt.jpg","null","mooney1","image-keyboard-response","518","1789145","0.0-6.0-1.73","3121631","co37621","norming","","","","","","",""
"5264.870000002673","","","post_mooney1_questions","survey-likert","519","1794413","0.0-6.0-2.73","3121631","co37621","norming","","","{""curiosity"":3,""confidence"":5}","[0,1]","../img/tt/1239tt.jpg","",""
"2783.9050000002608","","","recognition","survey-text","520","1797200","0.0-6.0-3.73","3121631","co37621","norming","","","{""guess"":""dog""}","","../img/tt/1239tt.jpg","",""
"null","../img/gs/1239gs.jpg","null","reveal","image-keyboard-response","521","1799202","0.0-6.0-4.73","3121631","co37621","norming","","","","","","",""
"null","../img/tt/1239tt.jpg","null","mooney2","image-keyboard-response","522","1801204","0.0-6.0-5.73","3121631","co37621","norming","","","","","","",""
"2198.7299999999814","","","post_reveal_questions","survey-likert","523","1803404","0.0-6.0-6.73","3121631","co37621","norming","","","{""aha"":6}","[0]","../img/tt/1239tt.jpg","",""
"null","<div style=""font-size:60px;""> </div>","null","fixation","html-keyboard-response","524","1803609","0.0-6.0-0.74","3121631","co37621","norming","","","","","","",""
"null","../img/tt/522tt.jpg","null","mooney1","image-keyboard-response","525","1806616","0.0-6.0-1.74","3121631","co37621","norming","","","","","","",""
"4677.074999999488","","","post_mooney1_questions","survey-likert","526","1811295","0.0-6.0-2.74","3121631","co37621","norming","","","{""curiosity"":4,""confidence"":0}","[0,1]","../img/tt/522tt.jpg","",""
"1321.2750000020023","","","recognition","survey-text","527","1812619","0.0-6.0-3.74","3121631","co37621","norming","","","{""guess"":""""}","","../img/tt/522tt.jpg","",""
"null","../img/gs/522gs.jpg","null","reveal","image-keyboard-response","528","1814620","0.0-6.0-4.74","3121631","co37621","norming","","","","","","",""
"null","../img/tt/522tt.jpg","null","mooney2","image-keyboard-response","529","1816622","0.0-6.0-5.74","3121631","co37621","norming","","","","","","",""
"1905.2399999999907","","","post_reveal_questions","survey-likert","530","1818529","0.0-6.0-6.74","3121631","co37621","norming","","","{""aha"":0}","[0]","../img/tt/522tt.jpg","",""
"null","<div style=""font-size:60px;""> </div>","null","fixation","html-keyboard-response","531","1818733","0.0-6.0-0.75","3121631","co37621","norming","","","","","","",""
"null","../img/tt/1283tt.jpg","null","mooney1","image-keyboard-response","532","1821738","0.0-6.0-1.75","3121631","co37621","norming","","","","","","",""
"5887.425000000745","","","post_mooney1_questions","survey-likert","533","1827627","0.0-6.0-2.75","3121631","co37621","norming","","","{""curiosity"":2,""confidence"":0}","[0,1]","../img/tt/1283tt.jpg","",""
"856.9049999967683","","","recognition","survey-text","534","1828487","0.0-6.0-3.75","3121631","co37621","norming","","","{""guess"":""""}","","../img/tt/1283tt.jpg","",""
"null","../img/gs/1283gs.jpg","null","reveal","image-keyboard-response","535","1830494","0.0-6.0-4.75","3121631","co37621","norming","","","","","","",""
"null","../img/tt/1283tt.jpg","null","mooney2","image-keyboard-response","536","1832500","0.0-6.0-5.75","3121631","co37621","norming","","","","","","",""
"2026.58499999973","","","post_reveal_questions","survey-likert","537","1834528","0.0-6.0-6.75","3121631","co37621","norming","","","{""aha"":0}","[0]","../img/tt/1283tt.jpg","",""
"null","<div style=""font-size:60px;""> </div>","null","fixation","html-keyboard-response","538","1834734","0.0-6.0-0.76","3121631","co37621","norming","","","","","","",""
"null","../img/tt/517tt.jpg","null","mooney1","image-keyboard-response","539","1837741","0.0-6.0-1.76","3121631","co37621","norming","","","","","","",""
"6923.729999998584","","","post_mooney1_questions","survey-likert","540","1844667","0.0-6.0-2.76","3121631","co37621","norming","","","{""curiosity"":2,""confidence"":2}","[0,1]","../img/tt/517tt.jpg","",""
"3234.2349999998696","","","recognition","survey-text","541","1847904","0.0-6.0-3.76","3121631","co37621","norming","","","{""guess"":""pig""}","","../img/tt/517tt.jpg","",""
"null","../img/gs/517gs.jpg","null","reveal","image-keyboard-response","542","1849910","0.0-6.0-4.76","3121631","co37621","norming","","","","","","",""
"null","../img/tt/517tt.jpg","null","mooney2","image-keyboard-response","543","1851916","0.0-6.0-5.76","3121631","co37621","norming","","","","","","",""
"2182.515000000363","","","post_reveal_questions","survey-likert","544","1854101","0.0-6.0-6.76","3121631","co37621","norming","","","{""aha"":0}","[0]","../img/tt/517tt.jpg","",""
"null","<div style=""font-size:60px;""> </div>","null","fixation","html-keyboard-response","545","1854307","0.0-6.0-0.77","3121631","co37621","norming","","","","","","",""
"null","../img/tt/1126tt.jpg","null","mooney1","image-keyboard-response","546","1857312","0.0-6.0-1.77","3121631","co37621","norming","","","","","","",""
"16789.30000000028","","","post_mooney1_questions","survey-likert","547","1874104","0.0-6.0-2.77","3121631","co37621","norming","","","{""curiosity"":3,""confidence"":6}","[0,1]","../img/tt/1126tt.jpg","",""
"22820.04500000039","","","recognition","survey-text","548","1896927","0.0-6.0-3.77","3121631","co37621","norming","","","{""guess"":""mountain climbing ""}","","../img/tt/1126tt.jpg","",""
"null","../img/gs/1126gs.jpg","null","reveal","image-keyboard-response","549","1898933","0.0-6.0-4.77","3121631","co37621","norming","","","","","","",""
"null","../img/tt/1126tt.jpg","null","mooney2","image-keyboard-response","550","1900935","0.0-6.0-5.77","3121631","co37621","norming","","","","","","",""
"1975.024999999674","","","post_reveal_questions","survey-likert","551","1902911","0.0-6.0-6.77","3121631","co37621","norming","","","{""aha"":6}","[0]","../img/tt/1126tt.jpg","",""
"null","<div style=""font-size:60px;""> </div>","null","fixation","html-keyboard-response","552","1903117","0.0-6.0-0.78","3121631","co37621","norming","","","","","","",""
