"rt","stimulus","key_press","test_part","trial_type","trial_index","time_elapsed","internal_node_id","totalTime","subject","experiment_name","button_pressed","success","responses","question_order","currentStim","old","correct"
"38791.23500001151","Welcome to the experiment. This is an online experiment so please don't close the tab/window until we say goodbye.  Press any key to begin.","32","instructions","html-keyboard-response","0","38839","0.0-0.0","2763660","co37522","norming","","","","","","",""
"13408.78000005614","<div style='word-wrap: break-word; width: 900px'><h3>Please consider this information carefully before deciding whether to participate in this research</h3><ul style='text-align: left; font-size: .8em;'><li><b>Purpose of the research</b>: To examine how people process images.</li><li><b>What you will do in this research</b>:  Stimuli (images) will be presented on the computer and you will be asked different questions about them.</li><li><b>Time required</b>: Participation will take between 45 and 60 minutes to complete.</li><li><b>Risks</b>:  There are no anticipated risks associated with participating in this study. The effects of participating should be comparable to those you would experience from viewing a computer monitor for 30 minutes and using a mouse or keyboard.</li><li><b>Benefits</b>:  This study provides no benefits to you individually except for the credit. The study provides important information about the nature of perception and learning.</li><li><b>Confidentiality</b>:  Your participation in this study will remain confidential. No personally identifiable information will be associated with your data. Your de-identified data may be shared with other researchers and used in future projects.</li><li><b>Participation and withdrawal</b>:  Your participation in this study is completely voluntary and you may refuse to participate or you may choose to withdraw at any time without penalty.</li><li><b>How to contact the researchers</b>: If you have questions or concerns about your participation or payment, or want to request a summary of research findings, please contact Sander Van de Cruys (KU Leuven), at sander.vandecruys@kuleuven.be.</li></ul><p>The nature and purpose of this research have been sufficiently explained and I agree to participate in this study.  I understand that I am free to withdraw at any time without incurring any penalty.</p><p>Please consent by clicking the button below to continue. Otherwise, please exit the study at this time.</p></div>","","instructions","html-button-response","1","52250","0.0-1.0","2763660","co37522","norming","0","","","","","",""
"","","","instructions","fullscreen","2","56723","0.0-2.0","2763660","co37522","norming","","true","","","","",""
"24912.38999995403","","","sona","survey-html-form","3","81640","0.0-3.0","2763660","co37522","norming","","","[{""name"":""sonaid"",""value"":""37522""},{""name"":""debrief"",""value"":""yes""},{""name"":""datajoin"",""value"":""yes""}]","","","",""
"60441.63000001572","<div style='word-wrap: break-word; width: 900px'><h3>Instructions</h3><p>This experiment will have 3 parts. In the first part you will see a series of distorted images like the one below on the left. As you can see in the righthand image, the distorted images are derived from actual photographs. In what follows, you will <strong>briefly</strong> be presented with <strong>only</strong> the distorted image.</p> <div style='float: left; margin-right: 20px;'><img src='../img/018tt.jpg' height='250' width='250'></img></div><div style='float: right; margin-left: 20px;'><img src='../img/018gs.jpg' height='250' width='250'></img></div><p>Subsequently you will be asked a few questions about the image: One question on how <strong>curious</strong> you are about the solution and one on how <strong>confident</strong> you are that you know the solution.</p>Next, we ask you to make a guess on what is in the image. Note that it is OK to name just the <strong>basic level category</strong>. For example when you see a parrot in the image, 'parrot' will obviously be a correct answer but also correct is 'bird'. However, 'animal' will <strong>not</strong> be counted as a correct response. For the example above, 'rose' would be correct or 'flower', but not 'plant'. When soccer players are depicted, 'soccer', 'football', 'soccer players' will be correct, but not 'humans', 'outdoors', or 'sports'. You do not need to describe the image in full, just name the main object in it <strong>in one or two words</strong>. All images depict objects from one of the following broad level categories: animals, inanimate objects, plants, sports, vehicles, and food. Recognizing means knowing <strong>more</strong> than these broad labels for a given image. But we always encourage you to <strong>make a guess</strong> if you can. Note that you are allowed to use <strong>Dutch and English</strong> in your answers, whatever comes easiest for you.</p><p>Press any key to continue.</p></div>","32","instructions","html-keyboard-response","4","142085","0.0-4.0","2763660","co37522","norming","","","","","","",""
"18828.649999923073","<div style='word-wrap: break-word; width: 900px'><h3>Instructions</h3> <p>Next, the solution image will be revealed to you and you'll be asked to indicate how strong your <strong>aha-experience</strong> was after seeing the solution. This describes the positive feeling of the 'click' you sometimes experience, when the pieces of the 'puzzle' fall together and you suddenly have 'insight' in the image.</p><img src='aha.jpg' height='188' width='250'></img><p>Note that there are no right or wrong answers. We are interested in what <strong>you</strong> see in the image and how <strong>you</strong> feel about it.</p><p>Press any key to start the experiment.</p></div>","32","instructions","html-keyboard-response","5","160916","0.0-5.0","2763660","co37522","norming","","","","","","",""
"null","<div style=""font-size:60px;""> </div>","null","fixation","html-keyboard-response","6","161118","0.0-6.0-0.0","2763660","co37522","norming","","","","","","",""
"null","../img/tt/1278tt.jpg","null","mooney1","image-keyboard-response","7","164121","0.0-6.0-1.0","2763660","co37522","norming","","","","","","",""
"14629.34999994468","","","post_mooney1_questions","survey-likert","8","178753","0.0-6.0-2.0","2763660","co37522","norming","","","{""curiosity"":5,""confidence"":0}","[0,1]","../img/tt/1278tt.jpg","",""
"4708.854999975301","","","recognition","survey-text","9","183473","0.0-6.0-3.0","2763660","co37522","norming","","","{""guess"":""""}","","../img/tt/1278tt.jpg","",""
"null","../img/gs/1278gs.jpg","null","reveal","image-keyboard-response","10","185476","0.0-6.0-4.0","2763660","co37522","norming","","","","","","",""
"null","../img/tt/1278tt.jpg","null","mooney2","image-keyboard-response","11","187477","0.0-6.0-5.0","2763660","co37522","norming","","","","","","",""
"4244.704999960959","","","post_reveal_questions","survey-likert","12","191725","0.0-6.0-6.0","2763660","co37522","norming","","","{""aha"":4}","[0]","../img/tt/1278tt.jpg","",""
"null","<div style=""font-size:60px;""> </div>","null","fixation","html-keyboard-response","13","191935","0.0-6.0-0.1","2763660","co37522","norming","","","","","","",""
"null","../img/tt/060tt.jpg","null","mooney1","image-keyboard-response","14","194940","0.0-6.0-1.1","2763660","co37522","norming","","","","","","",""
"7027.065000031143","","","post_mooney1_questions","survey-likert","15","201972","0.0-6.0-2.1","2763660","co37522","norming","","","{""curiosity"":5,""confidence"":2}","[0,1]","../img/tt/060tt.jpg","",""
"5897.2100000828505","","","recognition","survey-text","16","207878","0.0-6.0-3.1","2763660","co37522","norming","","","{""guess"":""taart""}","","../img/tt/060tt.jpg","",""
"null","../img/gs/060gs.jpg","null","reveal","image-keyboard-response","17","209881","0.0-6.0-4.1","2763660","co37522","norming","","","","","","",""
"null","../img/tt/060tt.jpg","null","mooney2","image-keyboard-response","18","211884","0.0-6.0-5.1","2763660","co37522","norming","","","","","","",""
"4013.2400000002235","","","post_reveal_questions","survey-likert","19","215900","0.0-6.0-6.1","2763660","co37522","norming","","","{""aha"":4}","[0]","../img/tt/060tt.jpg","",""
"null","<div style=""font-size:60px;""> </div>","null","fixation","html-keyboard-response","20","216107","0.0-6.0-0.2","2763660","co37522","norming","","","","","","",""
"null","../img/tt/378tt.jpg","null","mooney1","image-keyboard-response","21","219110","0.0-6.0-1.2","2763660","co37522","norming","","","","","","",""
"6459.009999991395","","","post_mooney1_questions","survey-likert","22","225572","0.0-6.0-2.2","2763660","co37522","norming","","","{""curiosity"":5,""confidence"":1}","[0,1]","../img/tt/378tt.jpg","",""
"4933.004999998957","","","recognition","survey-text","23","230513","0.0-6.0-3.2","2763660","co37522","norming","","","{""guess"":""banaan""}","","../img/tt/378tt.jpg","",""
"null","../img/gs/378gs.jpg","null","reveal","image-keyboard-response","24","232516","0.0-6.0-4.2","2763660","co37522","norming","","","","","","",""
"null","../img/tt/378tt.jpg","null","mooney2","image-keyboard-response","25","234518","0.0-6.0-5.2","2763660","co37522","norming","","","","","","",""
"4496.820000000298","","","post_reveal_questions","survey-likert","26","239019","0.0-6.0-6.2","2763660","co37522","norming","","","{""aha"":3}","[0]","../img/tt/378tt.jpg","",""
"null","<div style=""font-size:60px;""> </div>","null","fixation","html-keyboard-response","27","239225","0.0-6.0-0.3","2763660","co37522","norming","","","","","","",""
"null","../img/tt/515tt.jpg","null","mooney1","image-keyboard-response","28","242228","0.0-6.0-1.3","2763660","co37522","norming","","","","","","",""
"10538.734999950975","","","post_mooney1_questions","survey-likert","29","252769","0.0-6.0-2.3","2763660","co37522","norming","","","{""curiosity"":5,""confidence"":4}","[0,1]","../img/tt/515tt.jpg","",""
"6996.480000088923","","","recognition","survey-text","30","259774","0.0-6.0-3.3","2763660","co37522","norming","","","{""guess"":""vogel""}","","../img/tt/515tt.jpg","",""
"null","../img/gs/515gs.jpg","null","reveal","image-keyboard-response","31","261776","0.0-6.0-4.3","2763660","co37522","norming","","","","","","",""
"null","../img/tt/515tt.jpg","null","mooney2","image-keyboard-response","32","263780","0.0-6.0-5.3","2763660","co37522","norming","","","","","","",""
"7667.449999949895","","","post_reveal_questions","survey-likert","33","271451","0.0-6.0-6.3","2763660","co37522","norming","","","{""aha"":0}","[0]","../img/tt/515tt.jpg","",""
"null","<div style=""font-size:60px;""> </div>","null","fixation","html-keyboard-response","34","271657","0.0-6.0-0.4","2763660","co37522","norming","","","","","","",""
"null","../img/tt/496tt.jpg","null","mooney1","image-keyboard-response","35","274661","0.0-6.0-1.4","2763660","co37522","norming","","","","","","",""
"6288.330000010319","","","post_mooney1_questions","survey-likert","36","280953","0.0-6.0-2.4","2763660","co37522","norming","","","{""curiosity"":5,""confidence"":4}","[0,1]","../img/tt/496tt.jpg","",""
"3946.2599999969825","","","recognition","survey-text","37","284907","0.0-6.0-3.4","2763660","co37522","norming","","","{""guess"":""varken""}","","../img/tt/496tt.jpg","",""
"null","../img/gs/496gs.jpg","null","reveal","image-keyboard-response","38","286910","0.0-6.0-4.4","2763660","co37522","norming","","","","","","",""
"null","../img/tt/496tt.jpg","null","mooney2","image-keyboard-response","39","288912","0.0-6.0-5.4","2763660","co37522","norming","","","","","","",""
"5495.1250000158325","","","post_reveal_questions","survey-likert","40","294409","0.0-6.0-6.4","2763660","co37522","norming","","","{""aha"":3}","[0]","../img/tt/496tt.jpg","",""
"null","<div style=""font-size:60px;""> </div>","null","fixation","html-keyboard-response","41","294615","0.0-6.0-0.5","2763660","co37522","norming","","","","","","",""
"null","../img/tt/1070tt.jpg","null","mooney1","image-keyboard-response","42","297619","0.0-6.0-1.5","2763660","co37522","norming","","","","","","",""
"6942.4850000068545","","","post_mooney1_questions","survey-likert","43","304565","0.0-6.0-2.5","2763660","co37522","norming","","","{""curiosity"":4,""confidence"":4}","[0,1]","../img/tt/1070tt.jpg","",""
"4822.769999969751","","","recognition","survey-text","44","309396","0.0-6.0-3.5","2763660","co37522","norming","","","{""guess"":""stuk taart""}","","../img/tt/1070tt.jpg","",""
"null","../img/gs/1070gs.jpg","null","reveal","image-keyboard-response","45","311398","0.0-6.0-4.5","2763660","co37522","norming","","","","","","",""
"null","../img/tt/1070tt.jpg","null","mooney2","image-keyboard-response","46","313402","0.0-6.0-5.5","2763660","co37522","norming","","","","","","",""
"4135.950000025332","","","post_reveal_questions","survey-likert","47","317541","0.0-6.0-6.5","2763660","co37522","norming","","","{""aha"":1}","[0]","../img/tt/1070tt.jpg","",""
"null","<div style=""font-size:60px;""> </div>","null","fixation","html-keyboard-response","48","317748","0.0-6.0-0.6","2763660","co37522","norming","","","","","","",""
"null","../img/tt/1024tt.jpg","null","mooney1","image-keyboard-response","49","320750","0.0-6.0-1.6","2763660","co37522","norming","","","","","","",""
"5574.385000043549","","","post_mooney1_questions","survey-likert","50","326329","0.0-6.0-2.6","2763660","co37522","norming","","","{""curiosity"":6,""confidence"":0}","[0,1]","../img/tt/1024tt.jpg","",""
"1249.2649999912828","","","recognition","survey-text","51","327587","0.0-6.0-3.6","2763660","co37522","norming","","","{""guess"":""""}","","../img/tt/1024tt.jpg","",""
"null","../img/gs/1024gs.jpg","null","reveal","image-keyboard-response","52","329589","0.0-6.0-4.6","2763660","co37522","norming","","","","","","",""
"null","../img/tt/1024tt.jpg","null","mooney2","image-keyboard-response","53","331592","0.0-6.0-5.6","2763660","co37522","norming","","","","","","",""
"4540.19500000868","","","post_reveal_questions","survey-likert","54","336133","0.0-6.0-6.6","2763660","co37522","norming","","","{""aha"":5}","[0]","../img/tt/1024tt.jpg","",""
"null","<div style=""font-size:60px;""> </div>","null","fixation","html-keyboard-response","55","336341","0.0-6.0-0.7","2763660","co37522","norming","","","","","","",""
"null","../img/tt/1251tt.jpg","null","mooney1","image-keyboard-response","56","339345","0.0-6.0-1.7","2763660","co37522","norming","","","","","","",""
"5875.859999912791","","","post_mooney1_questions","survey-likert","57","345224","0.0-6.0-2.7","2763660","co37522","norming","","","{""curiosity"":5,""confidence"":2}","[0,1]","../img/tt/1251tt.jpg","",""
"4219.165000016801","","","recognition","survey-text","58","349451","0.0-6.0-3.7","2763660","co37522","norming","","","{""guess"":""beer""}","","../img/tt/1251tt.jpg","",""
"null","../img/gs/1251gs.jpg","null","reveal","image-keyboard-response","59","351453","0.0-6.0-4.7","2763660","co37522","norming","","","","","","",""
"null","../img/tt/1251tt.jpg","null","mooney2","image-keyboard-response","60","353457","0.0-6.0-5.7","2763660","co37522","norming","","","","","","",""
"11213.449999922886","","","post_reveal_questions","survey-likert","61","364672","0.0-6.0-6.7","2763660","co37522","norming","","","{""aha"":4}","[0]","../img/tt/1251tt.jpg","",""
"null","<div style=""font-size:60px;""> </div>","null","fixation","html-keyboard-response","62","364879","0.0-6.0-0.8","2763660","co37522","norming","","","","","","",""
"null","../img/tt/1186tt.jpg","null","mooney1","image-keyboard-response","63","367882","0.0-6.0-1.8","2763660","co37522","norming","","","","","","",""
"8401.944999932311","","","post_mooney1_questions","survey-likert","64","376288","0.0-6.0-2.8","2763660","co37522","norming","","","{""curiosity"":4,""confidence"":4}","[0,1]","../img/tt/1186tt.jpg","",""
"3380.9600000968203","","","recognition","survey-text","65","379677","0.0-6.0-3.8","2763660","co37522","norming","","","{""guess"":""soldaat""}","","../img/tt/1186tt.jpg","",""
"null","../img/gs/1186gs.jpg","null","reveal","image-keyboard-response","66","381680","0.0-6.0-4.8","2763660","co37522","norming","","","","","","",""
"null","../img/tt/1186tt.jpg","null","mooney2","image-keyboard-response","67","383682","0.0-6.0-5.8","2763660","co37522","norming","","","","","","",""
"6303.129999898374","","","post_reveal_questions","survey-likert","68","389987","0.0-6.0-6.8","2763660","co37522","norming","","","{""aha"":3}","[0]","../img/tt/1186tt.jpg","",""
"null","<div style=""font-size:60px;""> </div>","null","fixation","html-keyboard-response","69","390194","0.0-6.0-0.9","2763660","co37522","norming","","","","","","",""
"null","../img/tt/357tt.jpg","null","mooney1","image-keyboard-response","70","393197","0.0-6.0-1.9","2763660","co37522","norming","","","","","","",""
"5081.864999956451","","","post_mooney1_questions","survey-likert","71","398281","0.0-6.0-2.9","2763660","co37522","norming","","","{""curiosity"":5,""confidence"":0}","[0,1]","../img/tt/357tt.jpg","",""
"1218.819999950938","","","recognition","survey-text","72","399509","0.0-6.0-3.9","2763660","co37522","norming","","","{""guess"":""""}","","../img/tt/357tt.jpg","",""
"null","../img/gs/357gs.jpg","null","reveal","image-keyboard-response","73","401512","0.0-6.0-4.9","2763660","co37522","norming","","","","","","",""
"null","../img/tt/357tt.jpg","null","mooney2","image-keyboard-response","74","403516","0.0-6.0-5.9","2763660","co37522","norming","","","","","","",""
"3891.3650000467896","","","post_reveal_questions","survey-likert","75","407410","0.0-6.0-6.9","2763660","co37522","norming","","","{""aha"":4}","[0]","../img/tt/357tt.jpg","",""
"null","<div style=""font-size:60px;""> </div>","null","fixation","html-keyboard-response","76","407616","0.0-6.0-0.10","2763660","co37522","norming","","","","","","",""
"null","../img/tt/1122tt.jpg","null","mooney1","image-keyboard-response","77","410619","0.0-6.0-1.10","2763660","co37522","norming","","","","","","",""
"6682.824999908917","","","post_mooney1_questions","survey-likert","78","417305","0.0-6.0-2.10","2763660","co37522","norming","","","{""curiosity"":5,""confidence"":1}","[0,1]","../img/tt/1122tt.jpg","",""
"4901.664999895729","","","recognition","survey-text","79","422216","0.0-6.0-3.10","2763660","co37522","norming","","","{""guess"":""auto""}","","../img/tt/1122tt.jpg","",""
"null","../img/gs/1122gs.jpg","null","reveal","image-keyboard-response","80","424220","0.0-6.0-4.10","2763660","co37522","norming","","","","","","",""
"null","../img/tt/1122tt.jpg","null","mooney2","image-keyboard-response","81","426222","0.0-6.0-5.10","2763660","co37522","norming","","","","","","",""
"2343.334999983199","","","post_reveal_questions","survey-likert","82","428567","0.0-6.0-6.10","2763660","co37522","norming","","","{""aha"":5}","[0]","../img/tt/1122tt.jpg","",""
"null","<div style=""font-size:60px;""> </div>","null","fixation","html-keyboard-response","83","428773","0.0-6.0-0.11","2763660","co37522","norming","","","","","","",""
"null","../img/tt/1159tt.jpg","null","mooney1","image-keyboard-response","84","431775","0.0-6.0-1.11","2763660","co37522","norming","","","","","","",""
"7186.3899999298155","","","post_mooney1_questions","survey-likert","85","438965","0.0-6.0-2.11","2763660","co37522","norming","","","{""curiosity"":5,""confidence"":1}","[0,1]","../img/tt/1159tt.jpg","",""
"2591.5749999694526","","","recognition","survey-text","86","441564","0.0-6.0-3.11","2763660","co37522","norming","","","{""guess"":""brug""}","","../img/tt/1159tt.jpg","",""
"null","../img/gs/1159gs.jpg","null","reveal","image-keyboard-response","87","443566","0.0-6.0-4.11","2763660","co37522","norming","","","","","","",""
"null","../img/tt/1159tt.jpg","null","mooney2","image-keyboard-response","88","445568","0.0-6.0-5.11","2763660","co37522","norming","","","","","","",""
"5253.819999983534","","","post_reveal_questions","survey-likert","89","450825","0.0-6.0-6.11","2763660","co37522","norming","","","{""aha"":5}","[0]","../img/tt/1159tt.jpg","",""
"null","<div style=""font-size:60px;""> </div>","null","fixation","html-keyboard-response","90","451030","0.0-6.0-0.12","2763660","co37522","norming","","","","","","",""
"null","../img/tt/111tt.jpg","null","mooney1","image-keyboard-response","91","454033","0.0-6.0-1.12","2763660","co37522","norming","","","","","","",""
"8224.129999987781","","","post_mooney1_questions","survey-likert","92","462259","0.0-6.0-2.12","2763660","co37522","norming","","","{""curiosity"":5,""confidence"":1}","[0,1]","../img/tt/111tt.jpg","",""
"3931.8549999734387","","","recognition","survey-text","93","466199","0.0-6.0-3.12","2763660","co37522","norming","","","{""guess"":""wetenschapper""}","","../img/tt/111tt.jpg","",""
"null","../img/gs/111gs.jpg","null","reveal","image-keyboard-response","94","468202","0.0-6.0-4.12","2763660","co37522","norming","","","","","","",""
"null","../img/tt/111tt.jpg","null","mooney2","image-keyboard-response","95","470204","0.0-6.0-5.12","2763660","co37522","norming","","","","","","",""
"3530.380000011064","","","post_reveal_questions","survey-likert","96","473738","0.0-6.0-6.12","2763660","co37522","norming","","","{""aha"":4}","[0]","../img/tt/111tt.jpg","",""
"null","<div style=""font-size:60px;""> </div>","null","fixation","html-keyboard-response","97","473947","0.0-6.0-0.13","2763660","co37522","norming","","","","","","",""
"null","../img/tt/1040tt.jpg","null","mooney1","image-keyboard-response","98","476949","0.0-6.0-1.13","2763660","co37522","norming","","","","","","",""
"9609.479999984615","","","post_mooney1_questions","survey-likert","99","486561","0.0-6.0-2.13","2763660","co37522","norming","","","{""curiosity"":5,""confidence"":0}","[0,1]","../img/tt/1040tt.jpg","",""
"1330.6200000224635","","","recognition","survey-text","100","487900","0.0-6.0-3.13","2763660","co37522","norming","","","{""guess"":""""}","","../img/tt/1040tt.jpg","",""
"null","../img/gs/1040gs.jpg","null","reveal","image-keyboard-response","101","489902","0.0-6.0-4.13","2763660","co37522","norming","","","","","","",""
"null","../img/tt/1040tt.jpg","null","mooney2","image-keyboard-response","102","491906","0.0-6.0-5.13","2763660","co37522","norming","","","","","","",""
"3460.495000006631","","","post_reveal_questions","survey-likert","103","495369","0.0-6.0-6.13","2763660","co37522","norming","","","{""aha"":5}","[0]","../img/tt/1040tt.jpg","",""
"null","<div style=""font-size:60px;""> </div>","null","fixation","html-keyboard-response","104","495575","0.0-6.0-0.14","2763660","co37522","norming","","","","","","",""
"null","../img/tt/080tt.jpg","null","mooney1","image-keyboard-response","105","498577","0.0-6.0-1.14","2763660","co37522","norming","","","","","","",""
"6613.1700000260025","","","post_mooney1_questions","survey-likert","106","505194","0.0-6.0-2.14","2763660","co37522","norming","","","{""curiosity"":5,""confidence"":0}","[0,1]","../img/tt/080tt.jpg","",""
"1259.9600000539795","","","recognition","survey-text","107","506462","0.0-6.0-3.14","2763660","co37522","norming","","","{""guess"":""""}","","../img/tt/080tt.jpg","",""
"null","../img/gs/080gs.jpg","null","reveal","image-keyboard-response","108","508465","0.0-6.0-4.14","2763660","co37522","norming","","","","","","",""
"null","../img/tt/080tt.jpg","null","mooney2","image-keyboard-response","109","510468","0.0-6.0-5.14","2763660","co37522","norming","","","","","","",""
"3822.5450000027195","","","post_reveal_questions","survey-likert","110","514294","0.0-6.0-6.14","2763660","co37522","norming","","","{""aha"":5}","[0]","../img/tt/080tt.jpg","",""
"null","<div style=""font-size:60px;""> </div>","null","fixation","html-keyboard-response","111","514501","0.0-6.0-0.15","2763660","co37522","norming","","","","","","",""
"null","../img/tt/435tt.jpg","null","mooney1","image-keyboard-response","112","517504","0.0-6.0-1.15","2763660","co37522","norming","","","","","","",""
"6328.744999947958","","","post_mooney1_questions","survey-likert","113","523837","0.0-6.0-2.15","2763660","co37522","norming","","","{""curiosity"":5,""confidence"":1}","[0,1]","../img/tt/435tt.jpg","",""
"1209.8699999041855","","","recognition","survey-text","114","525054","0.0-6.0-3.15","2763660","co37522","norming","","","{""guess"":""""}","","../img/tt/435tt.jpg","",""
"null","../img/gs/435gs.jpg","null","reveal","image-keyboard-response","115","527057","0.0-6.0-4.15","2763660","co37522","norming","","","","","","",""
"null","../img/tt/435tt.jpg","null","mooney2","image-keyboard-response","116","529058","0.0-6.0-5.15","2763660","co37522","norming","","","","","","",""
"2889.575000037439","","","post_reveal_questions","survey-likert","117","531950","0.0-6.0-6.15","2763660","co37522","norming","","","{""aha"":4}","[0]","../img/tt/435tt.jpg","",""
"null","<div style=""font-size:60px;""> </div>","null","fixation","html-keyboard-response","118","532159","0.0-6.0-0.16","2763660","co37522","norming","","","","","","",""
"null","../img/tt/1202tt.jpg","null","mooney1","image-keyboard-response","119","535163","0.0-6.0-1.16","2763660","co37522","norming","","","","","","",""
"6667.950000031851","","","post_mooney1_questions","survey-likert","120","541835","0.0-6.0-2.16","2763660","co37522","norming","","","{""curiosity"":5,""confidence"":0}","[0,1]","../img/tt/1202tt.jpg","",""
"2497.635000036098","","","recognition","survey-text","121","544341","0.0-6.0-3.16","2763660","co37522","norming","","","{""guess"":""""}","","../img/tt/1202tt.jpg","",""
"null","../img/gs/1202gs.jpg","null","reveal","image-keyboard-response","122","546344","0.0-6.0-4.16","2763660","co37522","norming","","","","","","",""
"null","../img/tt/1202tt.jpg","null","mooney2","image-keyboard-response","123","548346","0.0-6.0-5.16","2763660","co37522","norming","","","","","","",""
"3995.4499999294057","","","post_reveal_questions","survey-likert","124","552344","0.0-6.0-6.16","2763660","co37522","norming","","","{""aha"":4}","[0]","../img/tt/1202tt.jpg","",""
"null","<div style=""font-size:60px;""> </div>","null","fixation","html-keyboard-response","125","552552","0.0-6.0-0.17","2763660","co37522","norming","","","","","","",""
"null","../img/tt/1363tt.jpg","null","mooney1","image-keyboard-response","126","555558","0.0-6.0-1.17","2763660","co37522","norming","","","","","","",""
"6548.300000024028","","","post_mooney1_questions","survey-likert","127","562110","0.0-6.0-2.17","2763660","co37522","norming","","","{""curiosity"":5,""confidence"":2}","[0,1]","../img/tt/1363tt.jpg","",""
"4083.050000015646","","","recognition","survey-text","128","566206","0.0-6.0-3.17","2763660","co37522","norming","","","{""guess"":""saus""}","","../img/tt/1363tt.jpg","",""
"null","../img/gs/1363gs.jpg","null","reveal","image-keyboard-response","129","568209","0.0-6.0-4.17","2763660","co37522","norming","","","","","","",""
"null","../img/tt/1363tt.jpg","null","mooney2","image-keyboard-response","130","570211","0.0-6.0-5.17","2763660","co37522","norming","","","","","","",""
"6454.555000062101","","","post_reveal_questions","survey-likert","131","576669","0.0-6.0-6.17","2763660","co37522","norming","","","{""aha"":3}","[0]","../img/tt/1363tt.jpg","",""
"null","<div style=""font-size:60px;""> </div>","null","fixation","html-keyboard-response","132","576876","0.0-6.0-0.18","2763660","co37522","norming","","","","","","",""
"null","../img/tt/1171tt.jpg","null","mooney1","image-keyboard-response","133","579878","0.0-6.0-1.18","2763660","co37522","norming","","","","","","",""
"7125.430000014603","","","post_mooney1_questions","survey-likert","134","587008","0.0-6.0-2.18","2763660","co37522","norming","","","{""curiosity"":5,""confidence"":2}","[0,1]","../img/tt/1171tt.jpg","",""
"4832.389999995939","","","recognition","survey-text","135","591848","0.0-6.0-3.18","2763660","co37522","norming","","","{""guess"":""panda""}","","../img/tt/1171tt.jpg","",""
"null","../img/gs/1171gs.jpg","null","reveal","image-keyboard-response","136","593850","0.0-6.0-4.18","2763660","co37522","norming","","","","","","",""
"null","../img/tt/1171tt.jpg","null","mooney2","image-keyboard-response","137","595854","0.0-6.0-5.18","2763660","co37522","norming","","","","","","",""
"3360.690000001341","","","post_reveal_questions","survey-likert","138","599217","0.0-6.0-6.18","2763660","co37522","norming","","","{""aha"":2}","[0]","../img/tt/1171tt.jpg","",""
"null","<div style=""font-size:60px;""> </div>","null","fixation","html-keyboard-response","139","599425","0.0-6.0-0.19","2763660","co37522","norming","","","","","","",""
"null","../img/tt/020tt.jpg","null","mooney1","image-keyboard-response","140","602429","0.0-6.0-1.19","2763660","co37522","norming","","","","","","",""
"4967.969999997877","","","post_mooney1_questions","survey-likert","141","607400","0.0-6.0-2.19","2763660","co37522","norming","","","{""curiosity"":5,""confidence"":0}","[0,1]","../img/tt/020tt.jpg","",""
"1168.544999905862","","","recognition","survey-text","142","608577","0.0-6.0-3.19","2763660","co37522","norming","","","{""guess"":""""}","","../img/tt/020tt.jpg","",""
"null","../img/gs/020gs.jpg","null","reveal","image-keyboard-response","143","610579","0.0-6.0-4.19","2763660","co37522","norming","","","","","","",""
"null","../img/tt/020tt.jpg","null","mooney2","image-keyboard-response","144","612582","0.0-6.0-5.19","2763660","co37522","norming","","","","","","",""
"4076.13499998115","","","post_reveal_questions","survey-likert","145","616660","0.0-6.0-6.19","2763660","co37522","norming","","","{""aha"":0}","[0]","../img/tt/020tt.jpg","",""
"null","<div style=""font-size:60px;""> </div>","null","fixation","html-keyboard-response","146","616866","0.0-6.0-0.20","2763660","co37522","norming","","","","","","",""
"null","../img/tt/124tt.jpg","null","mooney1","image-keyboard-response","147","619867","0.0-6.0-1.20","2763660","co37522","norming","","","","","","",""
"5608.260000008158","","","post_mooney1_questions","survey-likert","148","625477","0.0-6.0-2.20","2763660","co37522","norming","","","{""curiosity"":5,""confidence"":1}","[0,1]","../img/tt/124tt.jpg","",""
"3052.57000005804","","","recognition","survey-text","149","628539","0.0-6.0-3.20","2763660","co37522","norming","","","{""guess"":""panda""}","","../img/tt/124tt.jpg","",""
"null","../img/gs/124gs.jpg","null","reveal","image-keyboard-response","150","630541","0.0-6.0-4.20","2763660","co37522","norming","","","","","","",""
"null","../img/tt/124tt.jpg","null","mooney2","image-keyboard-response","151","632544","0.0-6.0-5.20","2763660","co37522","norming","","","","","","",""
"2595.0150000862777","","","post_reveal_questions","survey-likert","152","635141","0.0-6.0-6.20","2763660","co37522","norming","","","{""aha"":4}","[0]","../img/tt/124tt.jpg","",""
"null","<div style=""font-size:60px;""> </div>","null","fixation","html-keyboard-response","153","635347","0.0-6.0-0.21","2763660","co37522","norming","","","","","","",""
"null","../img/tt/140tt.jpg","null","mooney1","image-keyboard-response","154","638350","0.0-6.0-1.21","2763660","co37522","norming","","","","","","",""
"4578.7500001024455","","","post_mooney1_questions","survey-likert","155","642932","0.0-6.0-2.21","2763660","co37522","norming","","","{""curiosity"":5,""confidence"":0}","[0,1]","../img/tt/140tt.jpg","",""
"1278.6749999504536","","","recognition","survey-text","156","644220","0.0-6.0-3.21","2763660","co37522","norming","","","{""guess"":""""}","","../img/tt/140tt.jpg","",""
"null","../img/gs/140gs.jpg","null","reveal","image-keyboard-response","157","646224","0.0-6.0-4.21","2763660","co37522","norming","","","","","","",""
"null","../img/tt/140tt.jpg","null","mooney2","image-keyboard-response","158","648226","0.0-6.0-5.21","2763660","co37522","norming","","","","","","",""
"3944.8050000937656","","","post_reveal_questions","survey-likert","159","652172","0.0-6.0-6.21","2763660","co37522","norming","","","{""aha"":5}","[0]","../img/tt/140tt.jpg","",""
"null","<div style=""font-size:60px;""> </div>","null","fixation","html-keyboard-response","160","652379","0.0-6.0-0.22","2763660","co37522","norming","","","","","","",""
"null","../img/tt/135tt.jpg","null","mooney1","image-keyboard-response","161","655381","0.0-6.0-1.22","2763660","co37522","norming","","","","","","",""
"7347.54999994766","","","post_mooney1_questions","survey-likert","162","662732","0.0-6.0-2.22","2763660","co37522","norming","","","{""curiosity"":5,""confidence"":4}","[0,1]","../img/tt/135tt.jpg","",""
"4358.890000032261","","","recognition","survey-text","163","667100","0.0-6.0-3.22","2763660","co37522","norming","","","{""guess"":""toilet""}","","../img/tt/135tt.jpg","",""
"null","../img/gs/135gs.jpg","null","reveal","image-keyboard-response","164","669102","0.0-6.0-4.22","2763660","co37522","norming","","","","","","",""
"null","../img/tt/135tt.jpg","null","mooney2","image-keyboard-response","165","671106","0.0-6.0-5.22","2763660","co37522","norming","","","","","","",""
"5122.195000061765","","","post_reveal_questions","survey-likert","166","676230","0.0-6.0-6.22","2763660","co37522","norming","","","{""aha"":3}","[0]","../img/tt/135tt.jpg","",""
"null","<div style=""font-size:60px;""> </div>","null","fixation","html-keyboard-response","167","676437","0.0-6.0-0.23","2763660","co37522","norming","","","","","","",""
"null","../img/tt/1002tt.jpg","null","mooney1","image-keyboard-response","168","679439","0.0-6.0-1.23","2763660","co37522","norming","","","","","","",""
"5808.324999990873","","","post_mooney1_questions","survey-likert","169","685250","0.0-6.0-2.23","2763660","co37522","norming","","","{""curiosity"":5,""confidence"":4}","[0,1]","../img/tt/1002tt.jpg","",""
"2367.564999964088","","","recognition","survey-text","170","687625","0.0-6.0-3.23","2763660","co37522","norming","","","{""guess"":""beer""}","","../img/tt/1002tt.jpg","",""
"null","../img/gs/1002gs.jpg","null","reveal","image-keyboard-response","171","689627","0.0-6.0-4.23","2763660","co37522","norming","","","","","","",""
"null","../img/tt/1002tt.jpg","null","mooney2","image-keyboard-response","172","691630","0.0-6.0-5.23","2763660","co37522","norming","","","","","","",""
"6957.654999918304","","","post_reveal_questions","survey-likert","173","698591","0.0-6.0-6.23","2763660","co37522","norming","","","{""aha"":3}","[0]","../img/tt/1002tt.jpg","",""
"null","<div style=""font-size:60px;""> </div>","null","fixation","html-keyboard-response","174","698797","0.0-6.0-0.24","2763660","co37522","norming","","","","","","",""
"null","../img/tt/517tt.jpg","null","mooney1","image-keyboard-response","175","701799","0.0-6.0-1.24","2763660","co37522","norming","","","","","","",""
"12122.74499994237","","","post_mooney1_questions","survey-likert","176","713925","0.0-6.0-2.24","2763660","co37522","norming","","","{""curiosity"":5,""confidence"":0}","[0,1]","../img/tt/517tt.jpg","",""
"2417.9800000274554","","","recognition","survey-text","177","716358","0.0-6.0-3.24","2763660","co37522","norming","","","{""guess"":""""}","","../img/tt/517tt.jpg","",""
"null","../img/gs/517gs.jpg","null","reveal","image-keyboard-response","178","718360","0.0-6.0-4.24","2763660","co37522","norming","","","","","","",""
"null","../img/tt/517tt.jpg","null","mooney2","image-keyboard-response","179","720362","0.0-6.0-5.24","2763660","co37522","norming","","","","","","",""
"4279.469999950379","","","post_reveal_questions","survey-likert","180","724644","0.0-6.0-6.24","2763660","co37522","norming","","","{""aha"":4}","[0]","../img/tt/517tt.jpg","",""
"null","<div style=""font-size:60px;""> </div>","null","fixation","html-keyboard-response","181","724856","0.0-6.0-0.25","2763660","co37522","norming","","","","","","",""
"null","../img/tt/1290tt.jpg","null","mooney1","image-keyboard-response","182","727859","0.0-6.0-1.25","2763660","co37522","norming","","","","","","",""
"5621.385000064038","","","post_mooney1_questions","survey-likert","183","733483","0.0-6.0-2.25","2763660","co37522","norming","","","{""curiosity"":5,""confidence"":3}","[0,1]","../img/tt/1290tt.jpg","",""
"5104.365000035614","","","recognition","survey-text","184","738596","0.0-6.0-3.25","2763660","co37522","norming","","","{""guess"":""skilift""}","","../img/tt/1290tt.jpg","",""
"null","../img/gs/1290gs.jpg","null","reveal","image-keyboard-response","185","740599","0.0-6.0-4.25","2763660","co37522","norming","","","","","","",""
"null","../img/tt/1290tt.jpg","null","mooney2","image-keyboard-response","186","742602","0.0-6.0-5.25","2763660","co37522","norming","","","","","","",""
"2192.4299999373034","","","post_reveal_questions","survey-likert","187","744797","0.0-6.0-6.25","2763660","co37522","norming","","","{""aha"":3}","[0]","../img/tt/1290tt.jpg","",""
"null","<div style=""font-size:60px;""> </div>","null","fixation","html-keyboard-response","188","745004","0.0-6.0-0.26","2763660","co37522","norming","","","","","","",""
"null","../img/tt/1270tt.jpg","null","mooney1","image-keyboard-response","189","748007","0.0-6.0-1.26","2763660","co37522","norming","","","","","","",""
"7305.799999972805","","","post_mooney1_questions","survey-likert","190","755318","0.0-6.0-2.26","2763660","co37522","norming","","","{""curiosity"":5,""confidence"":0}","[0,1]","../img/tt/1270tt.jpg","",""
"1419.8349999496713","","","recognition","survey-text","191","756746","0.0-6.0-3.26","2763660","co37522","norming","","","{""guess"":""""}","","../img/tt/1270tt.jpg","",""
"null","../img/gs/1270gs.jpg","null","reveal","image-keyboard-response","192","758749","0.0-6.0-4.26","2763660","co37522","norming","","","","","","",""
"null","../img/tt/1270tt.jpg","null","mooney2","image-keyboard-response","193","760751","0.0-6.0-5.26","2763660","co37522","norming","","","","","","",""
"3411.049999995157","","","post_reveal_questions","survey-likert","194","764166","0.0-6.0-6.26","2763660","co37522","norming","","","{""aha"":4}","[0]","../img/tt/1270tt.jpg","",""
"null","<div style=""font-size:60px;""> </div>","null","fixation","html-keyboard-response","195","764381","0.0-6.0-0.27","2763660","co37522","norming","","","","","","",""
"null","../img/tt/584tt.jpg","null","mooney1","image-keyboard-response","196","767383","0.0-6.0-1.27","2763660","co37522","norming","","","","","","",""
"6389.53499996569","","","post_mooney1_questions","survey-likert","197","773778","0.0-6.0-2.27","2763660","co37522","norming","","","{""curiosity"":5,""confidence"":0}","[0,1]","../img/tt/584tt.jpg","",""
"946.1049999808893","","","recognition","survey-text","198","774733","0.0-6.0-3.27","2763660","co37522","norming","","","{""guess"":""""}","","../img/tt/584tt.jpg","",""
"null","../img/gs/584gs.jpg","null","reveal","image-keyboard-response","199","776735","0.0-6.0-4.27","2763660","co37522","norming","","","","","","",""
"null","../img/tt/584tt.jpg","null","mooney2","image-keyboard-response","200","778737","0.0-6.0-5.27","2763660","co37522","norming","","","","","","",""
"2857.9449999378994","","","post_reveal_questions","survey-likert","201","781599","0.0-6.0-6.27","2763660","co37522","norming","","","{""aha"":5}","[0]","../img/tt/584tt.jpg","",""
"null","<div style=""font-size:60px;""> </div>","null","fixation","html-keyboard-response","202","781808","0.0-6.0-0.28","2763660","co37522","norming","","","","","","",""
"null","../img/tt/306tt.jpg","null","mooney1","image-keyboard-response","203","784810","0.0-6.0-1.28","2763660","co37522","norming","","","","","","",""
"6389.244999969378","","","post_mooney1_questions","survey-likert","204","791202","0.0-6.0-2.28","2763660","co37522","norming","","","{""curiosity"":5,""confidence"":0}","[0,1]","../img/tt/306tt.jpg","",""
"1522.1600000513718","","","recognition","survey-text","205","792732","0.0-6.0-3.28","2763660","co37522","norming","","","{""guess"":""""}","","../img/tt/306tt.jpg","",""
"null","../img/gs/306gs.jpg","null","reveal","image-keyboard-response","206","794736","0.0-6.0-4.28","2763660","co37522","norming","","","","","","",""
"null","../img/tt/306tt.jpg","null","mooney2","image-keyboard-response","207","796739","0.0-6.0-5.28","2763660","co37522","norming","","","","","","",""
"3562.389999977313","","","post_reveal_questions","survey-likert","208","800303","0.0-6.0-6.28","2763660","co37522","norming","","","{""aha"":4}","[0]","../img/tt/306tt.jpg","",""
"null","<div style=""font-size:60px;""> </div>","null","fixation","html-keyboard-response","209","800510","0.0-6.0-0.29","2763660","co37522","norming","","","","","","",""
"null","../img/tt/1033tt.jpg","null","mooney1","image-keyboard-response","210","803512","0.0-6.0-1.29","2763660","co37522","norming","","","","","","",""
"5857.274999958463","","","post_mooney1_questions","survey-likert","211","809373","0.0-6.0-2.29","2763660","co37522","norming","","","{""curiosity"":5,""confidence"":0}","[0,1]","../img/tt/1033tt.jpg","",""
"1109.1000000014901","","","recognition","survey-text","212","810490","0.0-6.0-3.29","2763660","co37522","norming","","","{""guess"":""""}","","../img/tt/1033tt.jpg","",""
"null","../img/gs/1033gs.jpg","null","reveal","image-keyboard-response","213","812493","0.0-6.0-4.29","2763660","co37522","norming","","","","","","",""
"null","../img/tt/1033tt.jpg","null","mooney2","image-keyboard-response","214","814495","0.0-6.0-5.29","2763660","co37522","norming","","","","","","",""
"4146.209999918938","","","post_reveal_questions","survey-likert","215","818644","0.0-6.0-6.29","2763660","co37522","norming","","","{""aha"":3}","[0]","../img/tt/1033tt.jpg","",""
"null","<div style=""font-size:60px;""> </div>","null","fixation","html-keyboard-response","216","818852","0.0-6.0-0.30","2763660","co37522","norming","","","","","","",""
"null","../img/tt/001tt.jpg","null","mooney1","image-keyboard-response","217","821855","0.0-6.0-1.30","2763660","co37522","norming","","","","","","",""
"6803.5450000315905","","","post_mooney1_questions","survey-likert","218","828662","0.0-6.0-2.30","2763660","co37522","norming","","","{""curiosity"":5,""confidence"":4}","[0,1]","../img/tt/001tt.jpg","",""
"1656.370000098832","","","recognition","survey-text","219","830326","0.0-6.0-3.30","2763660","co37522","norming","","","{""guess"":""koe""}","","../img/tt/001tt.jpg","",""
"null","../img/gs/001gs.jpg","null","reveal","image-keyboard-response","220","832329","0.0-6.0-4.30","2763660","co37522","norming","","","","","","",""
"null","../img/tt/001tt.jpg","null","mooney2","image-keyboard-response","221","834331","0.0-6.0-5.30","2763660","co37522","norming","","","","","","",""
"3671.434999909252","","","post_reveal_questions","survey-likert","222","838004","0.0-6.0-6.30","2763660","co37522","norming","","","{""aha"":1}","[0]","../img/tt/001tt.jpg","",""
"null","<div style=""font-size:60px;""> </div>","null","fixation","html-keyboard-response","223","838217","0.0-6.0-0.31","2763660","co37522","norming","","","","","","",""
"null","../img/tt/1247tt.jpg","null","mooney1","image-keyboard-response","224","841220","0.0-6.0-1.31","2763660","co37522","norming","","","","","","",""
"7469.515000004321","","","post_mooney1_questions","survey-likert","225","848695","0.0-6.0-2.31","2763660","co37522","norming","","","{""curiosity"":5,""confidence"":1}","[0,1]","../img/tt/1247tt.jpg","",""
"3562.359999981709","","","recognition","survey-text","226","852267","0.0-6.0-3.31","2763660","co37522","norming","","","{""guess"":""luipaard""}","","../img/tt/1247tt.jpg","",""
"null","../img/gs/1247gs.jpg","null","reveal","image-keyboard-response","227","854269","0.0-6.0-4.31","2763660","co37522","norming","","","","","","",""
"null","../img/tt/1247tt.jpg","null","mooney2","image-keyboard-response","228","856273","0.0-6.0-5.31","2763660","co37522","norming","","","","","","",""
"5019.725000020117","","","post_reveal_questions","survey-likert","229","861294","0.0-6.0-6.31","2763660","co37522","norming","","","{""aha"":4}","[0]","../img/tt/1247tt.jpg","",""
"null","<div style=""font-size:60px;""> </div>","null","fixation","html-keyboard-response","230","861501","0.0-6.0-0.32","2763660","co37522","norming","","","","","","",""
"null","../img/tt/1366tt.jpg","null","mooney1","image-keyboard-response","231","864503","0.0-6.0-1.32","2763660","co37522","norming","","","","","","",""
"6141.52499998454","","","post_mooney1_questions","survey-likert","232","870647","0.0-6.0-2.32","2763660","co37522","norming","","","{""curiosity"":5,""confidence"":1}","[0,1]","../img/tt/1366tt.jpg","",""
"3946.8950000591576","","","recognition","survey-text","233","874603","0.0-6.0-3.32","2763660","co37522","norming","","","{""guess"":""bord eten""}","","../img/tt/1366tt.jpg","",""
"null","../img/gs/1366gs.jpg","null","reveal","image-keyboard-response","234","876604","0.0-6.0-4.32","2763660","co37522","norming","","","","","","",""
"null","../img/tt/1366tt.jpg","null","mooney2","image-keyboard-response","235","878605","0.0-6.0-5.32","2763660","co37522","norming","","","","","","",""
"7945.804999908432","","","post_reveal_questions","survey-likert","236","886553","0.0-6.0-6.32","2763660","co37522","norming","","","{""aha"":3}","[0]","../img/tt/1366tt.jpg","",""
"null","<div style=""font-size:60px;""> </div>","null","fixation","html-keyboard-response","237","886759","0.0-6.0-0.33","2763660","co37522","norming","","","","","","",""
"null","../img/tt/358tt.jpg","null","mooney1","image-keyboard-response","238","889763","0.0-6.0-1.33","2763660","co37522","norming","","","","","","",""
"6008.355000056326","","","post_mooney1_questions","survey-likert","239","895775","0.0-6.0-2.33","2763660","co37522","norming","","","{""curiosity"":5,""confidence"":2}","[0,1]","../img/tt/358tt.jpg","",""
"2348.9599999738857","","","recognition","survey-text","240","898135","0.0-6.0-3.33","2763660","co37522","norming","","","{""guess"":""dolfijn""}","","../img/tt/358tt.jpg","",""
"null","../img/gs/358gs.jpg","null","reveal","image-keyboard-response","241","900138","0.0-6.0-4.33","2763660","co37522","norming","","","","","","",""
"null","../img/tt/358tt.jpg","null","mooney2","image-keyboard-response","242","902140","0.0-6.0-5.33","2763660","co37522","norming","","","","","","",""
"2443.680000025779","","","post_reveal_questions","survey-likert","243","904586","0.0-6.0-6.33","2763660","co37522","norming","","","{""aha"":3}","[0]","../img/tt/358tt.jpg","",""
"null","<div style=""font-size:60px;""> </div>","null","fixation","html-keyboard-response","244","904793","0.0-6.0-0.34","2763660","co37522","norming","","","","","","",""
"null","../img/tt/105tt.jpg","null","mooney1","image-keyboard-response","245","907796","0.0-6.0-1.34","2763660","co37522","norming","","","","","","",""
"6995.824999990873","","","post_mooney1_questions","survey-likert","246","914794","0.0-6.0-2.34","2763660","co37522","norming","","","{""curiosity"":5,""confidence"":0}","[0,1]","../img/tt/105tt.jpg","",""
"2467.9599999217317","","","recognition","survey-text","247","917269","0.0-6.0-3.34","2763660","co37522","norming","","","{""guess"":""""}","","../img/tt/105tt.jpg","",""
"null","../img/gs/105gs.jpg","null","reveal","image-keyboard-response","248","919271","0.0-6.0-4.34","2763660","co37522","norming","","","","","","",""
"null","../img/tt/105tt.jpg","null","mooney2","image-keyboard-response","249","921275","0.0-6.0-5.34","2763660","co37522","norming","","","","","","",""
"4698.6750001087785","","","post_reveal_questions","survey-likert","250","925977","0.0-6.0-6.34","2763660","co37522","norming","","","{""aha"":1}","[0]","../img/tt/105tt.jpg","",""
"null","<div style=""font-size:60px;""> </div>","null","fixation","html-keyboard-response","251","926184","0.0-6.0-0.35","2763660","co37522","norming","","","","","","",""
"null","../img/tt/416tt.jpg","null","mooney1","image-keyboard-response","252","929187","0.0-6.0-1.35","2763660","co37522","norming","","","","","","",""
"5403.090000036173","","","post_mooney1_questions","survey-likert","253","934594","0.0-6.0-2.35","2763660","co37522","norming","","","{""curiosity"":5,""confidence"":0}","[0,1]","../img/tt/416tt.jpg","",""
"1782.7649998944253","","","recognition","survey-text","254","936385","0.0-6.0-3.35","2763660","co37522","norming","","","{""guess"":""""}","","../img/tt/416tt.jpg","",""
"null","../img/gs/416gs.jpg","null","reveal","image-keyboard-response","255","938387","0.0-6.0-4.35","2763660","co37522","norming","","","","","","",""
"null","../img/tt/416tt.jpg","null","mooney2","image-keyboard-response","256","940389","0.0-6.0-5.35","2763660","co37522","norming","","","","","","",""
"2527.155000017956","","","post_reveal_questions","survey-likert","257","942919","0.0-6.0-6.35","2763660","co37522","norming","","","{""aha"":4}","[0]","../img/tt/416tt.jpg","",""
"null","<div style=""font-size:60px;""> </div>","null","fixation","html-keyboard-response","258","943125","0.0-6.0-0.36","2763660","co37522","norming","","","","","","",""
"null","../img/tt/1199tt.jpg","null","mooney1","image-keyboard-response","259","946127","0.0-6.0-1.36","2763660","co37522","norming","","","","","","",""
"5558.424999937415","","","post_mooney1_questions","survey-likert","260","951688","0.0-6.0-2.36","2763660","co37522","norming","","","{""curiosity"":5,""confidence"":0}","[0,1]","../img/tt/1199tt.jpg","",""
"1531.6200000233948","","","recognition","survey-text","261","953228","0.0-6.0-3.36","2763660","co37522","norming","","","{""guess"":""""}","","../img/tt/1199tt.jpg","",""
"null","../img/gs/1199gs.jpg","null","reveal","image-keyboard-response","262","955230","0.0-6.0-4.36","2763660","co37522","norming","","","","","","",""
"null","../img/tt/1199tt.jpg","null","mooney2","image-keyboard-response","263","957233","0.0-6.0-5.36","2763660","co37522","norming","","","","","","",""
"4892.504999996163","","","post_reveal_questions","survey-likert","264","962128","0.0-6.0-6.36","2763660","co37522","norming","","","{""aha"":2}","[0]","../img/tt/1199tt.jpg","",""
"null","<div style=""font-size:60px;""> </div>","null","fixation","html-keyboard-response","265","962338","0.0-6.0-0.37","2763660","co37522","norming","","","","","","",""
"null","../img/tt/078tt.jpg","null","mooney1","image-keyboard-response","266","965342","0.0-6.0-1.37","2763660","co37522","norming","","","","","","",""
"5088.530000066385","","","post_mooney1_questions","survey-likert","267","970433","0.0-6.0-2.37","2763660","co37522","norming","","","{""curiosity"":5,""confidence"":4}","[0,1]","../img/tt/078tt.jpg","",""
"2022.3600000608712","","","recognition","survey-text","268","972463","0.0-6.0-3.37","2763660","co37522","norming","","","{""guess"":""druiven""}","","../img/tt/078tt.jpg","",""
"null","../img/gs/078gs.jpg","null","reveal","image-keyboard-response","269","974465","0.0-6.0-4.37","2763660","co37522","norming","","","","","","",""
"null","../img/tt/078tt.jpg","null","mooney2","image-keyboard-response","270","976468","0.0-6.0-5.37","2763660","co37522","norming","","","","","","",""
"6398.160000098869","","","post_reveal_questions","survey-likert","271","982869","0.0-6.0-6.37","2763660","co37522","norming","","","{""aha"":3}","[0]","../img/tt/078tt.jpg","",""
"null","<div style=""font-size:60px;""> </div>","null","fixation","html-keyboard-response","272","983076","0.0-6.0-0.38","2763660","co37522","norming","","","","","","",""
"null","../img/tt/1190tt.jpg","null","mooney1","image-keyboard-response","273","986078","0.0-6.0-1.38","2763660","co37522","norming","","","","","","",""
"5708.469999954104","","","post_mooney1_questions","survey-likert","274","991790","0.0-6.0-2.38","2763660","co37522","norming","","","{""curiosity"":5,""confidence"":1}","[0,1]","../img/tt/1190tt.jpg","",""
"1417.8250000113621","","","recognition","survey-text","275","993217","0.0-6.0-3.38","2763660","co37522","norming","","","{""guess"":""paard""}","","../img/tt/1190tt.jpg","",""
"null","../img/gs/1190gs.jpg","null","reveal","image-keyboard-response","276","995220","0.0-6.0-4.38","2763660","co37522","norming","","","","","","",""
"null","../img/tt/1190tt.jpg","null","mooney2","image-keyboard-response","277","997222","0.0-6.0-5.38","2763660","co37522","norming","","","","","","",""
"3654.949999996461","","","post_reveal_questions","survey-likert","278","1000879","0.0-6.0-6.38","2763660","co37522","norming","","","{""aha"":5}","[0]","../img/tt/1190tt.jpg","",""
"null","<div style=""font-size:60px;""> </div>","null","fixation","html-keyboard-response","279","1001085","0.0-6.0-0.39","2763660","co37522","norming","","","","","","",""
"null","../img/tt/1275tt.jpg","null","mooney1","image-keyboard-response","280","1004087","0.0-6.0-1.39","2763660","co37522","norming","","","","","","",""
"6644.360000034794","","","post_mooney1_questions","survey-likert","281","1010734","0.0-6.0-2.39","2763660","co37522","norming","","","{""curiosity"":5,""confidence"":3}","[0,1]","../img/tt/1275tt.jpg","",""
"1009.2599999625236","","","recognition","survey-text","282","1011752","0.0-6.0-3.39","2763660","co37522","norming","","","{""guess"":""hond""}","","../img/tt/1275tt.jpg","",""
"null","../img/gs/1275gs.jpg","null","reveal","image-keyboard-response","283","1013755","0.0-6.0-4.39","2763660","co37522","norming","","","","","","",""
"null","../img/tt/1275tt.jpg","null","mooney2","image-keyboard-response","284","1015757","0.0-6.0-5.39","2763660","co37522","norming","","","","","","",""
"4632.020000019111","","","post_reveal_questions","survey-likert","285","1020393","0.0-6.0-6.39","2763660","co37522","norming","","","{""aha"":5}","[0]","../img/tt/1275tt.jpg","",""
"null","<div style=""font-size:60px;""> </div>","null","fixation","html-keyboard-response","286","1020599","0.0-6.0-0.40","2763660","co37522","norming","","","","","","",""
"null","../img/tt/1262tt.jpg","null","mooney1","image-keyboard-response","287","1023601","0.0-6.0-1.40","2763660","co37522","norming","","","","","","",""
"6857.344999909401","","","post_mooney1_questions","survey-likert","288","1030460","0.0-6.0-2.40","2763660","co37522","norming","","","{""curiosity"":5,""confidence"":0}","[0,1]","../img/tt/1262tt.jpg","",""
"1440.775000024587","","","recognition","survey-text","289","1031909","0.0-6.0-3.40","2763660","co37522","norming","","","{""guess"":""""}","","../img/tt/1262tt.jpg","",""
"null","../img/gs/1262gs.jpg","null","reveal","image-keyboard-response","290","1033912","0.0-6.0-4.40","2763660","co37522","norming","","","","","","",""
"null","../img/tt/1262tt.jpg","null","mooney2","image-keyboard-response","291","1035913","0.0-6.0-5.40","2763660","co37522","norming","","","","","","",""
"4972.450000001118","","","post_reveal_questions","survey-likert","292","1040889","0.0-6.0-6.40","2763660","co37522","norming","","","{""aha"":5}","[0]","../img/tt/1262tt.jpg","",""
"null","<div style=""font-size:60px;""> </div>","null","fixation","html-keyboard-response","293","1041096","0.0-6.0-0.41","2763660","co37522","norming","","","","","","",""
"null","../img/tt/1255tt.jpg","null","mooney1","image-keyboard-response","294","1044099","0.0-6.0-1.41","2763660","co37522","norming","","","","","","",""
"6139.569999999367","","","post_mooney1_questions","survey-likert","295","1050241","0.0-6.0-2.41","2763660","co37522","norming","","","{""curiosity"":5,""confidence"":2}","[0,1]","../img/tt/1255tt.jpg","",""
"2233.795000007376","","","recognition","survey-text","296","1052484","0.0-6.0-3.41","2763660","co37522","norming","","","{""guess"":""konijn""}","","../img/tt/1255tt.jpg","",""
"null","../img/gs/1255gs.jpg","null","reveal","image-keyboard-response","297","1054486","0.0-6.0-4.41","2763660","co37522","norming","","","","","","",""
"null","../img/tt/1255tt.jpg","null","mooney2","image-keyboard-response","298","1056489","0.0-6.0-5.41","2763660","co37522","norming","","","","","","",""
"3358.2499999320135","","","post_reveal_questions","survey-likert","299","1059849","0.0-6.0-6.41","2763660","co37522","norming","","","{""aha"":4}","[0]","../img/tt/1255tt.jpg","",""
"null","<div style=""font-size:60px;""> </div>","null","fixation","html-keyboard-response","300","1060058","0.0-6.0-0.42","2763660","co37522","norming","","","","","","",""
"null","../img/tt/418tt.jpg","null","mooney1","image-keyboard-response","301","1063061","0.0-6.0-1.42","2763660","co37522","norming","","","","","","",""
"10346.149999997579","","","post_mooney1_questions","survey-likert","302","1073411","0.0-6.0-2.42","2763660","co37522","norming","","","{""curiosity"":3,""confidence"":5}","[0,1]","../img/tt/418tt.jpg","",""
"9451.31500007119","","","recognition","survey-text","303","1082871","0.0-6.0-3.42","2763660","co37522","norming","","","{""guess"":""tros tomaten""}","","../img/tt/418tt.jpg","",""
"null","../img/gs/418gs.jpg","null","reveal","image-keyboard-response","304","1084873","0.0-6.0-4.42","2763660","co37522","norming","","","","","","",""
"null","../img/tt/418tt.jpg","null","mooney2","image-keyboard-response","305","1086875","0.0-6.0-5.42","2763660","co37522","norming","","","","","","",""
"3054.7150000929832","","","post_reveal_questions","survey-likert","306","1089933","0.0-6.0-6.42","2763660","co37522","norming","","","{""aha"":3}","[0]","../img/tt/418tt.jpg","",""
"null","<div style=""font-size:60px;""> </div>","null","fixation","html-keyboard-response","307","1090139","0.0-6.0-0.43","2763660","co37522","norming","","","","","","",""
"null","../img/tt/468tt.jpg","null","mooney1","image-keyboard-response","308","1093142","0.0-6.0-1.43","2763660","co37522","norming","","","","","","",""
"5868.155000032857","","","post_mooney1_questions","survey-likert","309","1099014","0.0-6.0-2.43","2763660","co37522","norming","","","{""curiosity"":5,""confidence"":3}","[0,1]","../img/tt/468tt.jpg","",""
"3208.1499999621883","","","recognition","survey-text","310","1102231","0.0-6.0-3.43","2763660","co37522","norming","","","{""guess"":""vleermuizen""}","","../img/tt/468tt.jpg","",""
"null","../img/gs/468gs.jpg","null","reveal","image-keyboard-response","311","1104233","0.0-6.0-4.43","2763660","co37522","norming","","","","","","",""
"null","../img/tt/468tt.jpg","null","mooney2","image-keyboard-response","312","1106236","0.0-6.0-5.43","2763660","co37522","norming","","","","","","",""
"3429.8900000285357","","","post_reveal_questions","survey-likert","313","1109668","0.0-6.0-6.43","2763660","co37522","norming","","","{""aha"":5}","[0]","../img/tt/468tt.jpg","",""
"null","<div style=""font-size:60px;""> </div>","null","fixation","html-keyboard-response","314","1109875","0.0-6.0-0.44","2763660","co37522","norming","","","","","","",""
"null","../img/tt/549tt.jpg","null","mooney1","image-keyboard-response","315","1112878","0.0-6.0-1.44","2763660","co37522","norming","","","","","","",""
"8363.969999947585","","","post_mooney1_questions","survey-likert","316","1121245","0.0-6.0-2.44","2763660","co37522","norming","","","{""curiosity"":6,""confidence"":0}","[0,1]","../img/tt/549tt.jpg","",""
"1732.2449999628589","","","recognition","survey-text","317","1122986","0.0-6.0-3.44","2763660","co37522","norming","","","{""guess"":""""}","","../img/tt/549tt.jpg","",""
"null","../img/gs/549gs.jpg","null","reveal","image-keyboard-response","318","1124988","0.0-6.0-4.44","2763660","co37522","norming","","","","","","",""
"null","../img/tt/549tt.jpg","null","mooney2","image-keyboard-response","319","1126990","0.0-6.0-5.44","2763660","co37522","norming","","","","","","",""
"2705.8950000209734","","","post_reveal_questions","survey-likert","320","1129700","0.0-6.0-6.44","2763660","co37522","norming","","","{""aha"":5}","[0]","../img/tt/549tt.jpg","",""
"null","<div style=""font-size:60px;""> </div>","null","fixation","html-keyboard-response","321","1129908","0.0-6.0-0.45","2763660","co37522","norming","","","","","","",""
"null","../img/tt/1276tt.jpg","null","mooney1","image-keyboard-response","322","1132911","0.0-6.0-1.45","2763660","co37522","norming","","","","","","",""
"7828.480000025593","","","post_mooney1_questions","survey-likert","323","1140742","0.0-6.0-2.45","2763660","co37522","norming","","","{""curiosity"":5,""confidence"":1}","[0,1]","../img/tt/1276tt.jpg","",""
"1491.0699999891222","","","recognition","survey-text","324","1142242","0.0-6.0-3.45","2763660","co37522","norming","","","{""guess"":""kip""}","","../img/tt/1276tt.jpg","",""
"null","../img/gs/1276gs.jpg","null","reveal","image-keyboard-response","325","1144244","0.0-6.0-4.45","2763660","co37522","norming","","","","","","",""
"null","../img/tt/1276tt.jpg","null","mooney2","image-keyboard-response","326","1146248","0.0-6.0-5.45","2763660","co37522","norming","","","","","","",""
"2144.259999971837","","","post_reveal_questions","survey-likert","327","1148397","0.0-6.0-6.45","2763660","co37522","norming","","","{""aha"":5}","[0]","../img/tt/1276tt.jpg","",""
"null","<div style=""font-size:60px;""> </div>","null","fixation","html-keyboard-response","328","1148603","0.0-6.0-0.46","2763660","co37522","norming","","","","","","",""
"null","../img/tt/1205tt.jpg","null","mooney1","image-keyboard-response","329","1151606","0.0-6.0-1.46","2763660","co37522","norming","","","","","","",""
"5669.830000028014","","","post_mooney1_questions","survey-likert","330","1157280","0.0-6.0-2.46","2763660","co37522","norming","","","{""curiosity"":5,""confidence"":0}","[0,1]","../img/tt/1205tt.jpg","",""
"1430.739999981597","","","recognition","survey-text","331","1158720","0.0-6.0-3.46","2763660","co37522","norming","","","{""guess"":""""}","","../img/tt/1205tt.jpg","",""
"null","../img/gs/1205gs.jpg","null","reveal","image-keyboard-response","332","1160722","0.0-6.0-4.46","2763660","co37522","norming","","","","","","",""
"null","../img/tt/1205tt.jpg","null","mooney2","image-keyboard-response","333","1162723","0.0-6.0-5.46","2763660","co37522","norming","","","","","","",""
"3332.2100000223145","","","post_reveal_questions","survey-likert","334","1166058","0.0-6.0-6.46","2763660","co37522","norming","","","{""aha"":1}","[0]","../img/tt/1205tt.jpg","",""
"null","<div style=""font-size:60px;""> </div>","null","fixation","html-keyboard-response","335","1166265","0.0-6.0-0.47","2763660","co37522","norming","","","","","","",""
"null","../img/tt/1243tt.jpg","null","mooney1","image-keyboard-response","336","1169268","0.0-6.0-1.47","2763660","co37522","norming","","","","","","",""
"6841.864999965765","","","post_mooney1_questions","survey-likert","337","1176113","0.0-6.0-2.47","2763660","co37522","norming","","","{""curiosity"":5,""confidence"":1}","[0,1]","../img/tt/1243tt.jpg","",""
"1944.3949999986216","","","recognition","survey-text","338","1178065","0.0-6.0-3.47","2763660","co37522","norming","","","{""guess"":""aap""}","","../img/tt/1243tt.jpg","",""
"null","../img/gs/1243gs.jpg","null","reveal","image-keyboard-response","339","1180068","0.0-6.0-4.47","2763660","co37522","norming","","","","","","",""
"null","../img/tt/1243tt.jpg","null","mooney2","image-keyboard-response","340","1182073","0.0-6.0-5.47","2763660","co37522","norming","","","","","","",""
"4941.170000005513","","","post_reveal_questions","survey-likert","341","1187017","0.0-6.0-6.47","2763660","co37522","norming","","","{""aha"":3}","[0]","../img/tt/1243tt.jpg","",""
"null","<div style=""font-size:60px;""> </div>","null","fixation","html-keyboard-response","342","1187225","0.0-6.0-0.48","2763660","co37522","norming","","","","","","",""
"null","../img/tt/1148tt.jpg","null","mooney1","image-keyboard-response","343","1190226","0.0-6.0-1.48","2763660","co37522","norming","","","","","","",""
"5535.984999965876","","","post_mooney1_questions","survey-likert","344","1195766","0.0-6.0-2.48","2763660","co37522","norming","","","{""curiosity"":5,""confidence"":0}","[0,1]","../img/tt/1148tt.jpg","",""
"1510.7149999821559","","","recognition","survey-text","345","1197284","0.0-6.0-3.48","2763660","co37522","norming","","","{""guess"":""""}","","../img/tt/1148tt.jpg","",""
"null","../img/gs/1148gs.jpg","null","reveal","image-keyboard-response","346","1199287","0.0-6.0-4.48","2763660","co37522","norming","","","","","","",""
"null","../img/tt/1148tt.jpg","null","mooney2","image-keyboard-response","347","1201289","0.0-6.0-5.48","2763660","co37522","norming","","","","","","",""
"6632.330000051297","","","post_reveal_questions","survey-likert","348","1207925","0.0-6.0-6.48","2763660","co37522","norming","","","{""aha"":2}","[0]","../img/tt/1148tt.jpg","",""
"null","<div style=""font-size:60px;""> </div>","null","fixation","html-keyboard-response","349","1208131","0.0-6.0-0.49","2763660","co37522","norming","","","","","","",""
"null","../img/tt/507tt.jpg","null","mooney1","image-keyboard-response","350","1211134","0.0-6.0-1.49","2763660","co37522","norming","","","","","","",""
"7083.525000023656","","","post_mooney1_questions","survey-likert","351","1218221","0.0-6.0-2.49","2763660","co37522","norming","","","{""curiosity"":5,""confidence"":1}","[0,1]","../img/tt/507tt.jpg","",""
"1929.9200000241399","","","recognition","survey-text","352","1220160","0.0-6.0-3.49","2763660","co37522","norming","","","{""guess"":""concert""}","","../img/tt/507tt.jpg","",""
"null","../img/gs/507gs.jpg","null","reveal","image-keyboard-response","353","1222163","0.0-6.0-4.49","2763660","co37522","norming","","","","","","",""
"null","../img/tt/507tt.jpg","null","mooney2","image-keyboard-response","354","1224166","0.0-6.0-5.49","2763660","co37522","norming","","","","","","",""
"4222.509999992326","","","post_reveal_questions","survey-likert","355","1228391","0.0-6.0-6.49","2763660","co37522","norming","","","{""aha"":5}","[0]","../img/tt/507tt.jpg","",""
"null","<div style=""font-size:60px;""> </div>","null","fixation","html-keyboard-response","356","1228597","0.0-6.0-0.50","2763660","co37522","norming","","","","","","",""
"null","../img/tt/085tt.jpg","null","mooney1","image-keyboard-response","357","1231600","0.0-6.0-1.50","2763660","co37522","norming","","","","","","",""
"4950.985000003129","","","post_mooney1_questions","survey-likert","358","1236555","0.0-6.0-2.50","2763660","co37522","norming","","","{""curiosity"":5,""confidence"":0}","[0,1]","../img/tt/085tt.jpg","",""
"2617.1549999853596","","","recognition","survey-text","359","1239181","0.0-6.0-3.50","2763660","co37522","norming","","","{""guess"":""""}","","../img/tt/085tt.jpg","",""
"null","../img/gs/085gs.jpg","null","reveal","image-keyboard-response","360","1241185","0.0-6.0-4.50","2763660","co37522","norming","","","","","","",""
"null","../img/tt/085tt.jpg","null","mooney2","image-keyboard-response","361","1243187","0.0-6.0-5.50","2763660","co37522","norming","","","","","","",""
"2364.0150000574067","","","post_reveal_questions","survey-likert","362","1245554","0.0-6.0-6.50","2763660","co37522","norming","","","{""aha"":4}","[0]","../img/tt/085tt.jpg","",""
"null","<div style=""font-size:60px;""> </div>","null","fixation","html-keyboard-response","363","1245759","0.0-6.0-0.51","2763660","co37522","norming","","","","","","",""
"null","../img/tt/032tt.jpg","null","mooney1","image-keyboard-response","364","1248762","0.0-6.0-1.51","2763660","co37522","norming","","","","","","",""
"5152.400000020862","","","post_mooney1_questions","survey-likert","365","1253918","0.0-6.0-2.51","2763660","co37522","norming","","","{""curiosity"":5,""confidence"":1}","[0,1]","../img/tt/032tt.jpg","",""
"2306.3900000415742","","","recognition","survey-text","366","1256233","0.0-6.0-3.51","2763660","co37522","norming","","","{""guess"":""""}","","../img/tt/032tt.jpg","",""
"null","../img/gs/032gs.jpg","null","reveal","image-keyboard-response","367","1258237","0.0-6.0-4.51","2763660","co37522","norming","","","","","","",""
"null","../img/tt/032tt.jpg","null","mooney2","image-keyboard-response","368","1260240","0.0-6.0-5.51","2763660","co37522","norming","","","","","","",""
"4205.090000061318","","","post_reveal_questions","survey-likert","369","1264448","0.0-6.0-6.51","2763660","co37522","norming","","","{""aha"":5}","[0]","../img/tt/032tt.jpg","",""
"null","<div style=""font-size:60px;""> </div>","null","fixation","html-keyboard-response","370","1264655","0.0-6.0-0.52","2763660","co37522","norming","","","","","","",""
"null","../img/tt/1239tt.jpg","null","mooney1","image-keyboard-response","371","1267658","0.0-6.0-1.52","2763660","co37522","norming","","","","","","",""
"6129.425000050105","","","post_mooney1_questions","survey-likert","372","1273791","0.0-6.0-2.52","2763660","co37522","norming","","","{""curiosity"":4,""confidence"":5}","[0,1]","../img/tt/1239tt.jpg","",""
"1182.6100000180304","","","recognition","survey-text","373","1274983","0.0-6.0-3.52","2763660","co37522","norming","","","{""guess"":""hond""}","","../img/tt/1239tt.jpg","",""
"null","../img/gs/1239gs.jpg","null","reveal","image-keyboard-response","374","1276985","0.0-6.0-4.52","2763660","co37522","norming","","","","","","",""
"null","../img/tt/1239tt.jpg","null","mooney2","image-keyboard-response","375","1278987","0.0-6.0-5.52","2763660","co37522","norming","","","","","","",""
"7670.574999996461","","","post_reveal_questions","survey-likert","376","1286660","0.0-6.0-6.52","2763660","co37522","norming","","","{""aha"":2}","[0]","../img/tt/1239tt.jpg","",""
"null","<div style=""font-size:60px;""> </div>","null","fixation","html-keyboard-response","377","1286867","0.0-6.0-0.53","2763660","co37522","norming","","","","","","",""
"null","../img/tt/1069tt.jpg","null","mooney1","image-keyboard-response","378","1289869","0.0-6.0-1.53","2763660","co37522","norming","","","","","","",""
"5737.62499995064","","","post_mooney1_questions","survey-likert","379","1295610","0.0-6.0-2.53","2763660","co37522","norming","","","{""curiosity"":5,""confidence"":3}","[0,1]","../img/tt/1069tt.jpg","",""
"1359.7699999809265","","","recognition","survey-text","380","1296979","0.0-6.0-3.53","2763660","co37522","norming","","","{""guess"":""schaap""}","","../img/tt/1069tt.jpg","",""
"null","../img/gs/1069gs.jpg","null","reveal","image-keyboard-response","381","1298983","0.0-6.0-4.53","2763660","co37522","norming","","","","","","",""
"null","../img/tt/1069tt.jpg","null","mooney2","image-keyboard-response","382","1300986","0.0-6.0-5.53","2763660","co37522","norming","","","","","","",""
"4610.944999963976","","","post_reveal_questions","survey-likert","383","1305600","0.0-6.0-6.53","2763660","co37522","norming","","","{""aha"":2}","[0]","../img/tt/1069tt.jpg","",""
"null","<div style=""font-size:60px;""> </div>","null","fixation","html-keyboard-response","384","1305807","0.0-6.0-0.54","2763660","co37522","norming","","","","","","",""
"null","../img/tt/096tt.jpg","null","mooney1","image-keyboard-response","385","1308809","0.0-6.0-1.54","2763660","co37522","norming","","","","","","",""
"7115.929999970831","","","post_mooney1_questions","survey-likert","386","1315929","0.0-6.0-2.54","2763660","co37522","norming","","","{""curiosity"":5,""confidence"":0}","[0,1]","../img/tt/096tt.jpg","",""
"1490.8900000154972","","","recognition","survey-text","387","1317428","0.0-6.0-3.54","2763660","co37522","norming","","","{""guess"":""""}","","../img/tt/096tt.jpg","",""
"null","../img/gs/096gs.jpg","null","reveal","image-keyboard-response","388","1319431","0.0-6.0-4.54","2763660","co37522","norming","","","","","","",""
"null","../img/tt/096tt.jpg","null","mooney2","image-keyboard-response","389","1321434","0.0-6.0-5.54","2763660","co37522","norming","","","","","","",""
"2586.4999999757856","","","post_reveal_questions","survey-likert","390","1324021","0.0-6.0-6.54","2763660","co37522","norming","","","{""aha"":5}","[0]","../img/tt/096tt.jpg","",""
"null","<div style=""font-size:60px;""> </div>","null","fixation","html-keyboard-response","391","1324229","0.0-6.0-0.55","2763660","co37522","norming","","","","","","",""
"null","../img/tt/091tt.jpg","null","mooney1","image-keyboard-response","392","1327231","0.0-6.0-1.55","2763660","co37522","norming","","","","","","",""
"5174.390000058338","","","post_mooney1_questions","survey-likert","393","1332408","0.0-6.0-2.55","2763660","co37522","norming","","","{""curiosity"":5,""confidence"":0}","[0,1]","../img/tt/091tt.jpg","",""
"1426.2650000164285","","","recognition","survey-text","394","1333846","0.0-6.0-3.55","2763660","co37522","norming","","","{""guess"":""""}","","../img/tt/091tt.jpg","",""
"null","../img/gs/091gs.jpg","null","reveal","image-keyboard-response","395","1335848","0.0-6.0-4.55","2763660","co37522","norming","","","","","","",""
"null","../img/tt/091tt.jpg","null","mooney2","image-keyboard-response","396","1337850","0.0-6.0-5.55","2763660","co37522","norming","","","","","","",""
"3926.634999923408","","","post_reveal_questions","survey-likert","397","1341780","0.0-6.0-6.55","2763660","co37522","norming","","","{""aha"":5}","[0]","../img/tt/091tt.jpg","",""
"null","<div style=""font-size:60px;""> </div>","null","fixation","html-keyboard-response","398","1341990","0.0-6.0-0.56","2763660","co37522","norming","","","","","","",""
"null","../img/tt/118tt.jpg","null","mooney1","image-keyboard-response","399","1344993","0.0-6.0-1.56","2763660","co37522","norming","","","","","","",""
"4616.529999999329","","","post_mooney1_questions","survey-likert","400","1349613","0.0-6.0-2.56","2763660","co37522","norming","","","{""curiosity"":5,""confidence"":0}","[0,1]","../img/tt/118tt.jpg","",""
"1289.1799999633804","","","recognition","survey-text","401","1350910","0.0-6.0-3.56","2763660","co37522","norming","","","{""guess"":""""}","","../img/tt/118tt.jpg","",""
"null","../img/gs/118gs.jpg","null","reveal","image-keyboard-response","402","1352912","0.0-6.0-4.56","2763660","co37522","norming","","","","","","",""
"null","../img/tt/118tt.jpg","null","mooney2","image-keyboard-response","403","1354916","0.0-6.0-5.56","2763660","co37522","norming","","","","","","",""
"2737.070000031963","","","post_reveal_questions","survey-likert","404","1357656","0.0-6.0-6.56","2763660","co37522","norming","","","{""aha"":5}","[0]","../img/tt/118tt.jpg","",""
"null","<div style=""font-size:60px;""> </div>","null","fixation","html-keyboard-response","405","1357863","0.0-6.0-0.57","2763660","co37522","norming","","","","","","",""
"null","../img/tt/1279tt.jpg","null","mooney1","image-keyboard-response","406","1360866","0.0-6.0-1.57","2763660","co37522","norming","","","","","","",""
"4759.640000062063","","","post_mooney1_questions","survey-likert","407","1365630","0.0-6.0-2.57","2763660","co37522","norming","","","{""curiosity"":4,""confidence"":0}","[0,1]","../img/tt/1279tt.jpg","",""
"1389.6849999437109","","","recognition","survey-text","408","1367029","0.0-6.0-3.57","2763660","co37522","norming","","","{""guess"":""""}","","../img/tt/1279tt.jpg","",""
"null","../img/gs/1279gs.jpg","null","reveal","image-keyboard-response","409","1369032","0.0-6.0-4.57","2763660","co37522","norming","","","","","","",""
"null","../img/tt/1279tt.jpg","null","mooney2","image-keyboard-response","410","1371034","0.0-6.0-5.57","2763660","co37522","norming","","","","","","",""
"5525.825000018813","","","post_reveal_questions","survey-likert","411","1376563","0.0-6.0-6.57","2763660","co37522","norming","","","{""aha"":3}","[0]","../img/tt/1279tt.jpg","",""
"null","<div style=""font-size:60px;""> </div>","null","fixation","html-keyboard-response","412","1376770","0.0-6.0-0.58","2763660","co37522","norming","","","","","","",""
"null","../img/tt/081tt.jpg","null","mooney1","image-keyboard-response","413","1379776","0.0-6.0-1.58","2763660","co37522","norming","","","","","","",""
"4385.164999985136","","","post_mooney1_questions","survey-likert","414","1384165","0.0-6.0-2.58","2763660","co37522","norming","","","{""curiosity"":5,""confidence"":2}","[0,1]","../img/tt/081tt.jpg","",""
"1688.3900000248104","","","recognition","survey-text","415","1385869","0.0-6.0-3.58","2763660","co37522","norming","","","{""guess"":""kikker""}","","../img/tt/081tt.jpg","",""
"null","../img/gs/081gs.jpg","null","reveal","image-keyboard-response","416","1387872","0.0-6.0-4.58","2763660","co37522","norming","","","","","","",""
"null","../img/tt/081tt.jpg","null","mooney2","image-keyboard-response","417","1389875","0.0-6.0-5.58","2763660","co37522","norming","","","","","","",""
"9078.845000010915","","","post_reveal_questions","survey-likert","418","1398958","0.0-6.0-6.58","2763660","co37522","norming","","","{""aha"":2}","[0]","../img/tt/081tt.jpg","",""
"null","<div style=""font-size:60px;""> </div>","null","fixation","html-keyboard-response","419","1399165","0.0-6.0-0.59","2763660","co37522","norming","","","","","","",""
"null","../img/tt/098tt.jpg","null","mooney1","image-keyboard-response","420","1402168","0.0-6.0-1.59","2763660","co37522","norming","","","","","","",""
"4769.979999982752","","","post_mooney1_questions","survey-likert","421","1406941","0.0-6.0-2.59","2763660","co37522","norming","","","{""curiosity"":5,""confidence"":0}","[0,1]","../img/tt/098tt.jpg","",""
"1269.3750000325963","","","recognition","survey-text","422","1408219","0.0-6.0-3.59","2763660","co37522","norming","","","{""guess"":""""}","","../img/tt/098tt.jpg","",""
"null","../img/gs/098gs.jpg","null","reveal","image-keyboard-response","423","1410222","0.0-6.0-4.59","2763660","co37522","norming","","","","","","",""
"null","../img/tt/098tt.jpg","null","mooney2","image-keyboard-response","424","1412225","0.0-6.0-5.59","2763660","co37522","norming","","","","","","",""
"4311.979999998584","","","post_reveal_questions","survey-likert","425","1416539","0.0-6.0-6.59","2763660","co37522","norming","","","{""aha"":4}","[0]","../img/tt/098tt.jpg","",""
"null","<div style=""font-size:60px;""> </div>","null","fixation","html-keyboard-response","426","1416752","0.0-6.0-0.60","2763660","co37522","norming","","","","","","",""
"null","../img/tt/1283tt.jpg","null","mooney1","image-keyboard-response","427","1419756","0.0-6.0-1.60","2763660","co37522","norming","","","","","","",""
"5141.359999892302","","","post_mooney1_questions","survey-likert","428","1424901","0.0-6.0-2.60","2763660","co37522","norming","","","{""curiosity"":5,""confidence"":1}","[0,1]","../img/tt/1283tt.jpg","",""
"1644.5300000486895","","","recognition","survey-text","429","1426555","0.0-6.0-3.60","2763660","co37522","norming","","","{""guess"":""vos""}","","../img/tt/1283tt.jpg","",""
"null","../img/gs/1283gs.jpg","null","reveal","image-keyboard-response","430","1428557","0.0-6.0-4.60","2763660","co37522","norming","","","","","","",""
"null","../img/tt/1283tt.jpg","null","mooney2","image-keyboard-response","431","1430558","0.0-6.0-5.60","2763660","co37522","norming","","","","","","",""
"6929.209999972954","","","post_reveal_questions","survey-likert","432","1437489","0.0-6.0-6.60","2763660","co37522","norming","","","{""aha"":2}","[0]","../img/tt/1283tt.jpg","",""
"null","<div style=""font-size:60px;""> </div>","null","fixation","html-keyboard-response","433","1437696","0.0-6.0-0.61","2763660","co37522","norming","","","","","","",""
"null","../img/tt/300tt.jpg","null","mooney1","image-keyboard-response","434","1440698","0.0-6.0-1.61","2763660","co37522","norming","","","","","","",""
"6895.295000053011","","","post_mooney1_questions","survey-likert","435","1447597","0.0-6.0-2.61","2763660","co37522","norming","","","{""curiosity"":4,""confidence"":0}","[0,1]","../img/tt/300tt.jpg","",""
"2367.3050000797957","","","recognition","survey-text","436","1449973","0.0-6.0-3.61","2763660","co37522","norming","","","{""guess"":""""}","","../img/tt/300tt.jpg","",""
"null","../img/gs/300gs.jpg","null","reveal","image-keyboard-response","437","1451976","0.0-6.0-4.61","2763660","co37522","norming","","","","","","",""
"null","../img/tt/300tt.jpg","null","mooney2","image-keyboard-response","438","1453979","0.0-6.0-5.61","2763660","co37522","norming","","","","","","",""
"3551.0400000493973","","","post_reveal_questions","survey-likert","439","1457534","0.0-6.0-6.61","2763660","co37522","norming","","","{""aha"":5}","[0]","../img/tt/300tt.jpg","",""
"null","<div style=""font-size:60px;""> </div>","null","fixation","html-keyboard-response","440","1457740","0.0-6.0-0.62","2763660","co37522","norming","","","","","","",""
"null","../img/tt/1261tt.jpg","null","mooney1","image-keyboard-response","441","1460743","0.0-6.0-1.62","2763660","co37522","norming","","","","","","",""
"5484.785000095144","","","post_mooney1_questions","survey-likert","442","1466231","0.0-6.0-2.62","2763660","co37522","norming","","","{""curiosity"":5,""confidence"":0}","[0,1]","../img/tt/1261tt.jpg","",""
"1369.509999989532","","","recognition","survey-text","443","1467609","0.0-6.0-3.62","2763660","co37522","norming","","","{""guess"":""""}","","../img/tt/1261tt.jpg","",""
"null","../img/gs/1261gs.jpg","null","reveal","image-keyboard-response","444","1469613","0.0-6.0-4.62","2763660","co37522","norming","","","","","","",""
"null","../img/tt/1261tt.jpg","null","mooney2","image-keyboard-response","445","1471615","0.0-6.0-5.62","2763660","co37522","norming","","","","","","",""
"3291.220000013709","","","post_reveal_questions","survey-likert","446","1474908","0.0-6.0-6.62","2763660","co37522","norming","","","{""aha"":3}","[0]","../img/tt/1261tt.jpg","",""
"null","<div style=""font-size:60px;""> </div>","null","fixation","html-keyboard-response","447","1475115","0.0-6.0-0.63","2763660","co37522","norming","","","","","","",""
"null","../img/tt/1156tt.jpg","null","mooney1","image-keyboard-response","448","1478117","0.0-6.0-1.63","2763660","co37522","norming","","","","","","",""
"5182.425000006333","","","post_mooney1_questions","survey-likert","449","1483303","0.0-6.0-2.63","2763660","co37522","norming","","","{""curiosity"":4,""confidence"":0}","[0,1]","../img/tt/1156tt.jpg","",""
"1498.8999998895451","","","recognition","survey-text","450","1484812","0.0-6.0-3.63","2763660","co37522","norming","","","{""guess"":""""}","","../img/tt/1156tt.jpg","",""
"null","../img/gs/1156gs.jpg","null","reveal","image-keyboard-response","451","1486816","0.0-6.0-4.63","2763660","co37522","norming","","","","","","",""
"null","../img/tt/1156tt.jpg","null","mooney2","image-keyboard-response","452","1488818","0.0-6.0-5.63","2763660","co37522","norming","","","","","","",""
"3219.760000007227","","","post_reveal_questions","survey-likert","453","1492040","0.0-6.0-6.63","2763660","co37522","norming","","","{""aha"":5}","[0]","../img/tt/1156tt.jpg","",""
"null","<div style=""font-size:60px;""> </div>","null","fixation","html-keyboard-response","454","1492247","0.0-6.0-0.64","2763660","co37522","norming","","","","","","",""
"null","../img/tt/094tt.jpg","null","mooney1","image-keyboard-response","455","1495249","0.0-6.0-1.64","2763660","co37522","norming","","","","","","",""
"4991.335000027902","","","post_mooney1_questions","survey-likert","456","1500244","0.0-6.0-2.64","2763660","co37522","norming","","","{""curiosity"":4,""confidence"":2}","[0,1]","../img/tt/094tt.jpg","",""
"1031.3999999780208","","","recognition","survey-text","457","1501283","0.0-6.0-3.64","2763660","co37522","norming","","","{""guess"":""hond""}","","../img/tt/094tt.jpg","",""
"null","../img/gs/094gs.jpg","null","reveal","image-keyboard-response","458","1503285","0.0-6.0-4.64","2763660","co37522","norming","","","","","","",""
"null","../img/tt/094tt.jpg","null","mooney2","image-keyboard-response","459","1505289","0.0-6.0-5.64","2763660","co37522","norming","","","","","","",""
"3843.684999970719","","","post_reveal_questions","survey-likert","460","1509136","0.0-6.0-6.64","2763660","co37522","norming","","","{""aha"":4}","[0]","../img/tt/094tt.jpg","",""
"null","<div style=""font-size:60px;""> </div>","null","fixation","html-keyboard-response","461","1509341","0.0-6.0-0.65","2763660","co37522","norming","","","","","","",""
"null","../img/tt/599tt.jpg","null","mooney1","image-keyboard-response","462","1512343","0.0-6.0-1.65","2763660","co37522","norming","","","","","","",""
"5134.820000035688","","","post_mooney1_questions","survey-likert","463","1517481","0.0-6.0-2.65","2763660","co37522","norming","","","{""curiosity"":3,""confidence"":0}","[0,1]","../img/tt/599tt.jpg","",""
"1373.7599999876693","","","recognition","survey-text","464","1518868","0.0-6.0-3.65","2763660","co37522","norming","","","{""guess"":""""}","","../img/tt/599tt.jpg","",""
"null","../img/gs/599gs.jpg","null","reveal","image-keyboard-response","465","1520870","0.0-6.0-4.65","2763660","co37522","norming","","","","","","",""
"null","../img/tt/599tt.jpg","null","mooney2","image-keyboard-response","466","1522873","0.0-6.0-5.65","2763660","co37522","norming","","","","","","",""
"2707.5800000457093","","","post_reveal_questions","survey-likert","467","1525583","0.0-6.0-6.65","2763660","co37522","norming","","","{""aha"":3}","[0]","../img/tt/599tt.jpg","",""
"null","<div style=""font-size:60px;""> </div>","null","fixation","html-keyboard-response","468","1525789","0.0-6.0-0.66","2763660","co37522","norming","","","","","","",""
"null","../img/tt/1181tt.jpg","null","mooney1","image-keyboard-response","469","1528793","0.0-6.0-1.66","2763660","co37522","norming","","","","","","",""
"4415.824999916367","","","post_mooney1_questions","survey-likert","470","1533213","0.0-6.0-2.66","2763660","co37522","norming","","","{""curiosity"":3,""confidence"":0}","[0,1]","../img/tt/1181tt.jpg","",""
"1229.2499999748543","","","recognition","survey-text","471","1534450","0.0-6.0-3.66","2763660","co37522","norming","","","{""guess"":""""}","","../img/tt/1181tt.jpg","",""
"null","../img/gs/1181gs.jpg","null","reveal","image-keyboard-response","472","1536453","0.0-6.0-4.66","2763660","co37522","norming","","","","","","",""
"null","../img/tt/1181tt.jpg","null","mooney2","image-keyboard-response","473","1538454","0.0-6.0-5.66","2763660","co37522","norming","","","","","","",""
"4267.379999975674","","","post_reveal_questions","survey-likert","474","1542725","0.0-6.0-6.66","2763660","co37522","norming","","","{""aha"":1}","[0]","../img/tt/1181tt.jpg","",""
"null","<div style=""font-size:60px;""> </div>","null","fixation","html-keyboard-response","475","1542930","0.0-6.0-0.67","2763660","co37522","norming","","","","","","",""
"null","../img/tt/1307tt.jpg","null","mooney1","image-keyboard-response","476","1545932","0.0-6.0-1.67","2763660","co37522","norming","","","","","","",""
"9503.315000096336","","","post_mooney1_questions","survey-likert","477","1555439","0.0-6.0-2.67","2763660","co37522","norming","","","{""curiosity"":3,""confidence"":1}","[0,1]","../img/tt/1307tt.jpg","",""
"2220.5850000027567","","","recognition","survey-text","478","1557669","0.0-6.0-3.67","2763660","co37522","norming","","","{""guess"":""waterput""}","","../img/tt/1307tt.jpg","",""
"null","../img/gs/1307gs.jpg","null","reveal","image-keyboard-response","479","1559672","0.0-6.0-4.67","2763660","co37522","norming","","","","","","",""
"null","../img/tt/1307tt.jpg","null","mooney2","image-keyboard-response","480","1561674","0.0-6.0-5.67","2763660","co37522","norming","","","","","","",""
"5513.299999991432","","","post_reveal_questions","survey-likert","481","1567190","0.0-6.0-6.67","2763660","co37522","norming","","","{""aha"":5}","[0]","../img/tt/1307tt.jpg","",""
"null","<div style=""font-size:60px;""> </div>","null","fixation","html-keyboard-response","482","1567402","0.0-6.0-0.68","2763660","co37522","norming","","","","","","",""
"null","../img/tt/1200tt.jpg","null","mooney1","image-keyboard-response","483","1570405","0.0-6.0-1.68","2763660","co37522","norming","","","","","","",""
"6798.695000004955","","","post_mooney1_questions","survey-likert","484","1577205","0.0-6.0-2.68","2763660","co37522","norming","","","{""curiosity"":3,""confidence"":2}","[0,1]","../img/tt/1200tt.jpg","",""
"1581.114999949932","","","recognition","survey-text","485","1578794","0.0-6.0-3.68","2763660","co37522","norming","","","{""guess"":""varken""}","","../img/tt/1200tt.jpg","",""
"null","../img/gs/1200gs.jpg","null","reveal","image-keyboard-response","486","1580798","0.0-6.0-4.68","2763660","co37522","norming","","","","","","",""
"null","../img/tt/1200tt.jpg","null","mooney2","image-keyboard-response","487","1582802","0.0-6.0-5.68","2763660","co37522","norming","","","","","","",""
"2283.159999991767","","","post_reveal_questions","survey-likert","488","1585087","0.0-6.0-6.68","2763660","co37522","norming","","","{""aha"":3}","[0]","../img/tt/1200tt.jpg","",""
"null","<div style=""font-size:60px;""> </div>","null","fixation","html-keyboard-response","489","1585293","0.0-6.0-0.69","2763660","co37522","norming","","","","","","",""
"null","../img/tt/121tt.jpg","null","mooney1","image-keyboard-response","490","1588295","0.0-6.0-1.69","2763660","co37522","norming","","","","","","",""
"6280.6499999715015","","","post_mooney1_questions","survey-likert","491","1594579","0.0-6.0-2.69","2763660","co37522","norming","","","{""curiosity"":2,""confidence"":4}","[0,1]","../img/tt/121tt.jpg","",""
"4001.6750000650063","","","recognition","survey-text","492","1598589","0.0-6.0-3.69","2763660","co37522","norming","","","{""guess"":""kangaroe""}","","../img/tt/121tt.jpg","",""
"null","../img/gs/121gs.jpg","null","reveal","image-keyboard-response","493","1600593","0.0-6.0-4.69","2763660","co37522","norming","","","","","","",""
"null","../img/tt/121tt.jpg","null","mooney2","image-keyboard-response","494","1602599","0.0-6.0-5.69","2763660","co37522","norming","","","","","","",""
"4191.200000001118","","","post_reveal_questions","survey-likert","495","1606792","0.0-6.0-6.69","2763660","co37522","norming","","","{""aha"":1}","[0]","../img/tt/121tt.jpg","",""
"null","<div style=""font-size:60px;""> </div>","null","fixation","html-keyboard-response","496","1606998","0.0-6.0-0.70","2763660","co37522","norming","","","","","","",""
"null","../img/tt/1066tt.jpg","null","mooney1","image-keyboard-response","497","1610000","0.0-6.0-1.70","2763660","co37522","norming","","","","","","",""
"5766.814999980852","","","post_mooney1_questions","survey-likert","498","1615770","0.0-6.0-2.70","2763660","co37522","norming","","","{""curiosity"":2,""confidence"":3}","[0,1]","../img/tt/1066tt.jpg","",""
"1187.2699999948964","","","recognition","survey-text","499","1616967","0.0-6.0-3.70","2763660","co37522","norming","","","{""guess"":""bus""}","","../img/tt/1066tt.jpg","",""
"null","../img/gs/1066gs.jpg","null","reveal","image-keyboard-response","500","1618970","0.0-6.0-4.70","2763660","co37522","norming","","","","","","",""
"null","../img/tt/1066tt.jpg","null","mooney2","image-keyboard-response","501","1620973","0.0-6.0-5.70","2763660","co37522","norming","","","","","","",""
"3907.590000075288","","","post_reveal_questions","survey-likert","502","1624883","0.0-6.0-6.70","2763660","co37522","norming","","","{""aha"":1}","[0]","../img/tt/1066tt.jpg","",""
"null","<div style=""font-size:60px;""> </div>","null","fixation","html-keyboard-response","503","1625089","0.0-6.0-0.71","2763660","co37522","norming","","","","","","",""
"null","../img/tt/1237tt.jpg","null","mooney1","image-keyboard-response","504","1628091","0.0-6.0-1.71","2763660","co37522","norming","","","","","","",""
"5306.375000043772","","","post_mooney1_questions","survey-likert","505","1633400","0.0-6.0-2.71","2763660","co37522","norming","","","{""curiosity"":4,""confidence"":0}","[0,1]","../img/tt/1237tt.jpg","",""
"1919.9049999006093","","","recognition","survey-text","506","1635331","0.0-6.0-3.71","2763660","co37522","norming","","","{""guess"":""""}","","../img/tt/1237tt.jpg","",""
"null","../img/gs/1237gs.jpg","null","reveal","image-keyboard-response","507","1637334","0.0-6.0-4.71","2763660","co37522","norming","","","","","","",""
"null","../img/tt/1237tt.jpg","null","mooney2","image-keyboard-response","508","1639338","0.0-6.0-5.71","2763660","co37522","norming","","","","","","",""
"3398.6799999838695","","","post_reveal_questions","survey-likert","509","1642739","0.0-6.0-6.71","2763660","co37522","norming","","","{""aha"":5}","[0]","../img/tt/1237tt.jpg","",""
"null","<div style=""font-size:60px;""> </div>","null","fixation","html-keyboard-response","510","1642945","0.0-6.0-0.72","2763660","co37522","norming","","","","","","",""
"null","../img/tt/279tt.jpg","null","mooney1","image-keyboard-response","511","1645949","0.0-6.0-1.72","2763660","co37522","norming","","","","","","",""
"5442.939999978989","","","post_mooney1_questions","survey-likert","512","1651395","0.0-6.0-2.72","2763660","co37522","norming","","","{""curiosity"":2,""confidence"":2}","[0,1]","../img/tt/279tt.jpg","",""
"1514.0999999130145","","","recognition","survey-text","513","1652917","0.0-6.0-3.72","2763660","co37522","norming","","","{""guess"":""luiaard""}","","../img/tt/279tt.jpg","",""
"null","../img/gs/279gs.jpg","null","reveal","image-keyboard-response","514","1654920","0.0-6.0-4.72","2763660","co37522","norming","","","","","","",""
"null","../img/tt/279tt.jpg","null","mooney2","image-keyboard-response","515","1656923","0.0-6.0-5.72","2763660","co37522","norming","","","","","","",""
"2613.24999993667","","","post_reveal_questions","survey-likert","516","1659538","0.0-6.0-6.72","2763660","co37522","norming","","","{""aha"":6}","[0]","../img/tt/279tt.jpg","",""
"null","<div style=""font-size:60px;""> </div>","null","fixation","html-keyboard-response","517","1659744","0.0-6.0-0.73","2763660","co37522","norming","","","","","","",""
"null","../img/tt/456tt.jpg","null","mooney1","image-keyboard-response","518","1662747","0.0-6.0-1.73","2763660","co37522","norming","","","","","","",""
"5756.705000065267","","","post_mooney1_questions","survey-likert","519","1668507","0.0-6.0-2.73","2763660","co37522","norming","","","{""curiosity"":3,""confidence"":0}","[0,1]","../img/tt/456tt.jpg","",""
"1379.700000048615","","","recognition","survey-text","520","1669896","0.0-6.0-3.73","2763660","co37522","norming","","","{""guess"":""""}","","../img/tt/456tt.jpg","",""
"null","../img/gs/456gs.jpg","null","reveal","image-keyboard-response","521","1671898","0.0-6.0-4.73","2763660","co37522","norming","","","","","","",""
"null","../img/tt/456tt.jpg","null","mooney2","image-keyboard-response","522","1673900","0.0-6.0-5.73","2763660","co37522","norming","","","","","","",""
"3602.6200000196695","","","post_reveal_questions","survey-likert","523","1677506","0.0-6.0-6.73","2763660","co37522","norming","","","{""aha"":3}","[0]","../img/tt/456tt.jpg","",""
"null","<div style=""font-size:60px;""> </div>","null","fixation","html-keyboard-response","524","1677712","0.0-6.0-0.74","2763660","co37522","norming","","","","","","",""
"null","../img/tt/1269tt.jpg","null","mooney1","image-keyboard-response","525","1680715","0.0-6.0-1.74","2763660","co37522","norming","","","","","","",""
"6671.32500000298","","","post_mooney1_questions","survey-likert","526","1687391","0.0-6.0-2.74","2763660","co37522","norming","","","{""curiosity"":2,""confidence"":1}","[0,1]","../img/tt/1269tt.jpg","",""
"1785.9450000105426","","","recognition","survey-text","527","1689185","0.0-6.0-3.74","2763660","co37522","norming","","","{""guess"":""hond""}","","../img/tt/1269tt.jpg","",""
"null","../img/gs/1269gs.jpg","null","reveal","image-keyboard-response","528","1691188","0.0-6.0-4.74","2763660","co37522","norming","","","","","","",""
"null","../img/tt/1269tt.jpg","null","mooney2","image-keyboard-response","529","1693189","0.0-6.0-5.74","2763660","co37522","norming","","","","","","",""
"2928.6849999334663","","","post_reveal_questions","survey-likert","530","1696121","0.0-6.0-6.74","2763660","co37522","norming","","","{""aha"":4}","[0]","../img/tt/1269tt.jpg","",""
"null","<div style=""font-size:60px;""> </div>","null","fixation","html-keyboard-response","531","1696327","0.0-6.0-0.75","2763660","co37522","norming","","","","","","",""
"null","../img/tt/1084tt.jpg","null","mooney1","image-keyboard-response","532","1699330","0.0-6.0-1.75","2763660","co37522","norming","","","","","","",""
"6620.699999970384","","","post_mooney1_questions","survey-likert","533","1705957","0.0-6.0-2.75","2763660","co37522","norming","","","{""curiosity"":5,""confidence"":0}","[0,1]","../img/tt/1084tt.jpg","",""
"1526.7999999923632","","","recognition","survey-text","534","1707495","0.0-6.0-3.75","2763660","co37522","norming","","","{""guess"":""""}","","../img/tt/1084tt.jpg","",""
"null","../img/gs/1084gs.jpg","null","reveal","image-keyboard-response","535","1709498","0.0-6.0-4.75","2763660","co37522","norming","","","","","","",""
"null","../img/tt/1084tt.jpg","null","mooney2","image-keyboard-response","536","1711501","0.0-6.0-5.75","2763660","co37522","norming","","","","","","",""
"3290.889999945648","","","post_reveal_questions","survey-likert","537","1714793","0.0-6.0-6.75","2763660","co37522","norming","","","{""aha"":2}","[0]","../img/tt/1084tt.jpg","",""
"null","<div style=""font-size:60px;""> </div>","null","fixation","html-keyboard-response","538","1715005","0.0-6.0-0.76","2763660","co37522","norming","","","","","","",""
"null","../img/tt/1142tt.jpg","null","mooney1","image-keyboard-response","539","1718024","0.0-6.0-1.76","2763660","co37522","norming","","","","","","",""
"6640.7149999868125","","","post_mooney1_questions","survey-likert","540","1724668","0.0-6.0-2.76","2763660","co37522","norming","","","{""curiosity"":3,""confidence"":0}","[0,1]","../img/tt/1142tt.jpg","",""
"1278.5350000485778","","","recognition","survey-text","541","1725955","0.0-6.0-3.76","2763660","co37522","norming","","","{""guess"":""""}","","../img/tt/1142tt.jpg","",""
"null","../img/gs/1142gs.jpg","null","reveal","image-keyboard-response","542","1727958","0.0-6.0-4.76","2763660","co37522","norming","","","","","","",""
"null","../img/tt/1142tt.jpg","null","mooney2","image-keyboard-response","543","1729960","0.0-6.0-5.76","2763660","co37522","norming","","","","","","",""
"3442.5400000764057","","","post_reveal_questions","survey-likert","544","1733404","0.0-6.0-6.76","2763660","co37522","norming","","","{""aha"":2}","[0]","../img/tt/1142tt.jpg","",""
"null","<div style=""font-size:60px;""> </div>","null","fixation","html-keyboard-response","545","1733611","0.0-6.0-0.77","2763660","co37522","norming","","","","","","",""
"null","../img/tt/1143tt.jpg","null","mooney1","image-keyboard-response","546","1736614","0.0-6.0-1.77","2763660","co37522","norming","","","","","","",""
"6438.495000009425","","","post_mooney1_questions","survey-likert","547","1743056","0.0-6.0-2.77","2763660","co37522","norming","","","{""curiosity"":3,""confidence"":0}","[0,1]","../img/tt/1143tt.jpg","",""
"1419.9299999745563","","","recognition","survey-text","548","1744484","0.0-6.0-3.77","2763660","co37522","norming","","","{""guess"":""""}","","../img/tt/1143tt.jpg","",""
"null","../img/gs/1143gs.jpg","null","reveal","image-keyboard-response","549","1746488","0.0-6.0-4.77","2763660","co37522","norming","","","","","","",""
"null","../img/tt/1143tt.jpg","null","mooney2","image-keyboard-response","550","1748489","0.0-6.0-5.77","2763660","co37522","norming","","","","","","",""
"2535.905000055209","","","post_reveal_questions","survey-likert","551","1751027","0.0-6.0-6.77","2763660","co37522","norming","","","{""aha"":4}","[0]","../img/tt/1143tt.jpg","",""
"null","<div style=""font-size:60px;""> </div>","null","fixation","html-keyboard-response","552","1751235","0.0-6.0-0.78","2763660","co37522","norming","","","","","","",""
"null","../img/tt/1309tt.jpg","null","mooney1","image-keyboard-response","553","1754239","0.0-6.0-1.78","2763660","co37522","norming","","","","","","",""
