"rt","stimulus","key_press","test_part","trial_type","trial_index","time_elapsed","internal_node_id","totalTime","subject","experiment_name","button_pressed","success","responses","question_order","currentStim","old","correct"
"5595.744999998715","Welcome to the experiment. This is an online experiment so please don't close the tab/window until we say goodbye.  Press any key to begin.","65","instructions","html-keyboard-response","0","5599","0.0-0.0","3366619","co37741","norming","","","","","","",""
"26945.599999991828","<div style='word-wrap: break-word; width: 900px'><h3>Please consider this information carefully before deciding whether to participate in this research</h3><ul style='text-align: left; font-size: .8em;'><li><b>Purpose of the research</b>: To examine how people process images.</li><li><b>What you will do in this research</b>:  Stimuli (images) will be presented on the computer and you will be asked different questions about them.</li><li><b>Time required</b>: Participation will take between 45 and 60 minutes to complete.</li><li><b>Risks</b>:  There are no anticipated risks associated with participating in this study. The effects of participating should be comparable to those you would experience from viewing a computer monitor for 30 minutes and using a mouse or keyboard.</li><li><b>Benefits</b>:  This study provides no benefits to you individually except for the credit. The study provides important information about the nature of perception and learning.</li><li><b>Confidentiality</b>:  Your participation in this study will remain confidential. No personally identifiable information will be associated with your data. Your de-identified data may be shared with other researchers and used in future projects.</li><li><b>Participation and withdrawal</b>:  Your participation in this study is completely voluntary and you may refuse to participate or you may choose to withdraw at any time without penalty.</li><li><b>How to contact the researchers</b>: If you have questions or concerns about your participation or payment, or want to request a summary of research findings, please contact Sander Van de Cruys (KU Leuven), at sander.vandecruys@kuleuven.be.</li></ul><p>The nature and purpose of this research have been sufficiently explained and I agree to participate in this study.  I understand that I am free to withdraw at any time without incurring any penalty.</p><p>Please consent by clicking the button below to continue. Otherwise, please exit the study at this time.</p></div>","","instructions","html-button-response","1","32546","0.0-1.0","3366619","co37741","norming","0","","","","","",""
"","","","instructions","fullscreen","2","36383","0.0-2.0","3366619","co37741","norming","","true","","","","",""
"79134.7400000086","","","sona","survey-html-form","3","115525","0.0-3.0","3366619","co37741","norming","","","[{""name"":""sonaid"",""value"":""37741""},{""name"":""debrief"",""value"":""no""},{""name"":""datajoin"",""value"":""yes""}]","","","",""
"54621.69499999436","<div style='word-wrap: break-word; width: 900px'><h3>Instructions</h3><p>This experiment will have 3 parts. In the first part you will see a series of distorted images like the one below on the left. As you can see in the righthand image, the distorted images are derived from actual photographs. In what follows, you will <strong>briefly</strong> be presented with <strong>only</strong> the distorted image.</p> <div style='float: left; margin-right: 20px;'><img src='../img/018tt.jpg' height='250' width='250'></img></div><div style='float: right; margin-left: 20px;'><img src='../img/018gs.jpg' height='250' width='250'></img></div><p>Subsequently you will be asked a few questions about the image: One question on how <strong>curious</strong> you are about the solution and one on how <strong>confident</strong> you are that you know the solution.</p>Next, we ask you to make a guess on what is in the image. Note that it is OK to name just the <strong>basic level category</strong>. For example when you see a parrot in the image, 'parrot' will obviously be a correct answer but also correct is 'bird'. However, 'animal' will <strong>not</strong> be counted as a correct response. For the example above, 'rose' would be correct or 'flower', but not 'plant'. When soccer players are depicted, 'soccer', 'football', 'soccer players' will be correct, but not 'humans', 'outdoors', or 'sports'. You do not need to describe the image in full, just name the main object in it <strong>in one or two words</strong>. All images depict objects from one of the following broad level categories: animals, inanimate objects, plants, sports, vehicles, and food. Recognizing means knowing <strong>more</strong> than these broad labels for a given image. But we always encourage you to <strong>make a guess</strong> if you can. Note that you are allowed to use <strong>Dutch and English</strong> in your answers, whatever comes easiest for you.</p><p>Press any key to continue.</p></div>","65","instructions","html-keyboard-response","4","170148","0.0-4.0","3366619","co37741","norming","","","","","","",""
"18079.865000006976","<div style='word-wrap: break-word; width: 900px'><h3>Instructions</h3> <p>Next, the solution image will be revealed to you and you'll be asked to indicate how strong your <strong>aha-experience</strong> was after seeing the solution. This describes the positive feeling of the 'click' you sometimes experience, when the pieces of the 'puzzle' fall together and you suddenly have 'insight' in the image.</p><img src='aha.jpg' height='188' width='250'></img><p>Note that there are no right or wrong answers. We are interested in what <strong>you</strong> see in the image and how <strong>you</strong> feel about it.</p><p>Press any key to start the experiment.</p></div>","65","instructions","html-keyboard-response","5","188217","0.0-5.0","3366619","co37741","norming","","","","","","",""
"null","<div style=""font-size:60px;""> </div>","null","fixation","html-keyboard-response","6","188429","0.0-6.0-0.0","3366619","co37741","norming","","","","","","",""
"null","../img/tt/296tt.jpg","null","mooney1","image-keyboard-response","7","191444","0.0-6.0-1.0","3366619","co37741","norming","","","","","","",""
"9605.32499999681","","","post_mooney1_questions","survey-likert","8","201051","0.0-6.0-2.0","3366619","co37741","norming","","","{""curiosity"":4,""confidence"":0}","[0,1]","../img/tt/296tt.jpg","",""
"5226.849999991828","","","recognition","survey-text","9","206280","0.0-6.0-3.0","3366619","co37741","norming","","","{""guess"":""table""}","","../img/tt/296tt.jpg","",""
"null","../img/gs/296gs.jpg","null","reveal","image-keyboard-response","10","208289","0.0-6.0-4.0","3366619","co37741","norming","","","","","","",""
"null","../img/tt/296tt.jpg","null","mooney2","image-keyboard-response","11","210301","0.0-6.0-5.0","3366619","co37741","norming","","","","","","",""
"4411.569999996573","","","post_reveal_questions","survey-likert","12","214714","0.0-6.0-6.0","3366619","co37741","norming","","","{""aha"":2}","[0]","../img/tt/296tt.jpg","",""
"null","<div style=""font-size:60px;""> </div>","null","fixation","html-keyboard-response","13","214926","0.0-6.0-0.1","3366619","co37741","norming","","","","","","",""
"null","../img/tt/118tt.jpg","null","mooney1","image-keyboard-response","14","217928","0.0-6.0-1.1","3366619","co37741","norming","","","","","","",""
"19094.51500000432","","","post_mooney1_questions","survey-likert","15","237024","0.0-6.0-2.1","3366619","co37741","norming","","","{""curiosity"":2,""confidence"":1}","[0,1]","../img/tt/118tt.jpg","",""
"3967.099999994389","","","recognition","survey-text","16","240993","0.0-6.0-3.1","3366619","co37741","norming","","","{""guess"":""stairs""}","","../img/tt/118tt.jpg","",""
"null","../img/gs/118gs.jpg","null","reveal","image-keyboard-response","17","243011","0.0-6.0-4.1","3366619","co37741","norming","","","","","","",""
"null","../img/tt/118tt.jpg","null","mooney2","image-keyboard-response","18","245026","0.0-6.0-5.1","3366619","co37741","norming","","","","","","",""
"3480.9600000007777","","","post_reveal_questions","survey-likert","19","248519","0.0-6.0-6.1","3366619","co37741","norming","","","{""aha"":4}","[0]","../img/tt/118tt.jpg","",""
"null","<div style=""font-size:60px;""> </div>","null","fixation","html-keyboard-response","20","248734","0.0-6.0-0.2","3366619","co37741","norming","","","","","","",""
"null","../img/tt/1237tt.jpg","null","mooney1","image-keyboard-response","21","251742","0.0-6.0-1.2","3366619","co37741","norming","","","","","","",""
"58756.8600000086","","","post_mooney1_questions","survey-likert","22","310500","0.0-6.0-2.2","3366619","co37741","norming","","","{""curiosity"":1,""confidence"":5}","[0,1]","../img/tt/1237tt.jpg","",""
"2391.424999994342","","","recognition","survey-text","23","312893","0.0-6.0-3.2","3366619","co37741","norming","","","{""guess"":""duck""}","","../img/tt/1237tt.jpg","",""
"null","../img/gs/1237gs.jpg","null","reveal","image-keyboard-response","24","314909","0.0-6.0-4.2","3366619","co37741","norming","","","","","","",""
"null","../img/tt/1237tt.jpg","null","mooney2","image-keyboard-response","25","316920","0.0-6.0-5.2","3366619","co37741","norming","","","","","","",""
"3475.4700000048615","","","post_reveal_questions","survey-likert","26","320397","0.0-6.0-6.2","3366619","co37741","norming","","","{""aha"":0}","[0]","../img/tt/1237tt.jpg","",""
"null","<div style=""font-size:60px;""> </div>","null","fixation","html-keyboard-response","27","320599","0.0-6.0-0.3","3366619","co37741","norming","","","","","","",""
"null","../img/tt/1366tt.jpg","null","mooney1","image-keyboard-response","28","323605","0.0-6.0-1.3","3366619","co37741","norming","","","","","","",""
"7503.095000007306","","","post_mooney1_questions","survey-likert","29","331109","0.0-6.0-2.3","3366619","co37741","norming","","","{""curiosity"":4,""confidence"":1}","[0,1]","../img/tt/1366tt.jpg","",""
"6560.865000006743","","","recognition","survey-text","30","337672","0.0-6.0-3.3","3366619","co37741","norming","","","{""guess"":""bird""}","","../img/tt/1366tt.jpg","",""
"null","../img/gs/1366gs.jpg","null","reveal","image-keyboard-response","31","339673","0.0-6.0-4.3","3366619","co37741","norming","","","","","","",""
"null","../img/tt/1366tt.jpg","null","mooney2","image-keyboard-response","32","341674","0.0-6.0-5.3","3366619","co37741","norming","","","","","","",""
"4148.239999994985","","","post_reveal_questions","survey-likert","33","345824","0.0-6.0-6.3","3366619","co37741","norming","","","{""aha"":3}","[0]","../img/tt/1366tt.jpg","",""
"null","<div style=""font-size:60px;""> </div>","null","fixation","html-keyboard-response","34","346038","0.0-6.0-0.4","3366619","co37741","norming","","","","","","",""
"null","../img/tt/1236tt.jpg","null","mooney1","image-keyboard-response","35","349056","0.0-6.0-1.4","3366619","co37741","norming","","","","","","",""
"6382.52499999362","","","post_mooney1_questions","survey-likert","36","355440","0.0-6.0-2.4","3366619","co37741","norming","","","{""curiosity"":5,""confidence"":1}","[0,1]","../img/tt/1236tt.jpg","",""
"6629.460000011022","","","recognition","survey-text","37","362072","0.0-6.0-3.4","3366619","co37741","norming","","","{""guess"":""person""}","","../img/tt/1236tt.jpg","",""
"null","../img/gs/1236gs.jpg","null","reveal","image-keyboard-response","38","364081","0.0-6.0-4.4","3366619","co37741","norming","","","","","","",""
"null","../img/tt/1236tt.jpg","null","mooney2","image-keyboard-response","39","366087","0.0-6.0-5.4","3366619","co37741","norming","","","","","","",""
"2180.464999997639","","","post_reveal_questions","survey-likert","40","368269","0.0-6.0-6.4","3366619","co37741","norming","","","{""aha"":6}","[0]","../img/tt/1236tt.jpg","",""
"null","<div style=""font-size:60px;""> </div>","null","fixation","html-keyboard-response","41","368472","0.0-6.0-0.5","3366619","co37741","norming","","","","","","",""
"null","../img/tt/412tt.jpg","null","mooney1","image-keyboard-response","42","371478","0.0-6.0-1.5","3366619","co37741","norming","","","","","","",""
"7504.769999999553","","","post_mooney1_questions","survey-likert","43","378984","0.0-6.0-2.5","3366619","co37741","norming","","","{""curiosity"":2,""confidence"":0}","[0,1]","../img/tt/412tt.jpg","",""
"4265.570000003208","","","recognition","survey-text","44","383252","0.0-6.0-3.5","3366619","co37741","norming","","","{""guess"":""door""}","","../img/tt/412tt.jpg","",""
"null","../img/gs/412gs.jpg","null","reveal","image-keyboard-response","45","385264","0.0-6.0-4.5","3366619","co37741","norming","","","","","","",""
"null","../img/tt/412tt.jpg","null","mooney2","image-keyboard-response","46","387266","0.0-6.0-5.5","3366619","co37741","norming","","","","","","",""
"4000.9550000104355","","","post_reveal_questions","survey-likert","47","391268","0.0-6.0-6.5","3366619","co37741","norming","","","{""aha"":2}","[0]","../img/tt/412tt.jpg","",""
"null","<div style=""font-size:60px;""> </div>","null","fixation","html-keyboard-response","48","391482","0.0-6.0-0.6","3366619","co37741","norming","","","","","","",""
"null","../img/tt/1070tt.jpg","null","mooney1","image-keyboard-response","49","394491","0.0-6.0-1.6","3366619","co37741","norming","","","","","","",""
"6803.325000000768","","","post_mooney1_questions","survey-likert","50","401295","0.0-6.0-2.6","3366619","co37741","norming","","","{""curiosity"":1,""confidence"":4}","[0,1]","../img/tt/1070tt.jpg","",""
"3630.634999994072","","","recognition","survey-text","51","404927","0.0-6.0-3.6","3366619","co37741","norming","","","{""guess"":""sandwich""}","","../img/tt/1070tt.jpg","",""
"null","../img/gs/1070gs.jpg","null","reveal","image-keyboard-response","52","406942","0.0-6.0-4.6","3366619","co37741","norming","","","","","","",""
"null","../img/tt/1070tt.jpg","null","mooney2","image-keyboard-response","53","408947","0.0-6.0-5.6","3366619","co37741","norming","","","","","","",""
"4921.260000002803","","","post_reveal_questions","survey-likert","54","413869","0.0-6.0-6.6","3366619","co37741","norming","","","{""aha"":4}","[0]","../img/tt/1070tt.jpg","",""
"null","<div style=""font-size:60px;""> </div>","null","fixation","html-keyboard-response","55","414079","0.0-6.0-0.7","3366619","co37741","norming","","","","","","",""
"null","../img/tt/481tt.jpg","null","mooney1","image-keyboard-response","56","417083","0.0-6.0-1.7","3366619","co37741","norming","","","","","","",""
"7038.824999995995","","","post_mooney1_questions","survey-likert","57","424123","0.0-6.0-2.7","3366619","co37741","norming","","","{""curiosity"":6,""confidence"":6}","[0,1]","../img/tt/481tt.jpg","",""
"2472.205000012764","","","recognition","survey-text","58","426597","0.0-6.0-3.7","3366619","co37741","norming","","","{""guess"":""dog""}","","../img/tt/481tt.jpg","",""
"null","../img/gs/481gs.jpg","null","reveal","image-keyboard-response","59","428601","0.0-6.0-4.7","3366619","co37741","norming","","","","","","",""
"null","../img/tt/481tt.jpg","null","mooney2","image-keyboard-response","60","430611","0.0-6.0-5.7","3366619","co37741","norming","","","","","","",""
"6829.864999992424","","","post_reveal_questions","survey-likert","61","437442","0.0-6.0-6.7","3366619","co37741","norming","","","{""aha"":1}","[0]","../img/tt/481tt.jpg","",""
"null","<div style=""font-size:60px;""> </div>","null","fixation","html-keyboard-response","62","437644","0.0-6.0-0.8","3366619","co37741","norming","","","","","","",""
"null","../img/tt/1130tt.jpg","null","mooney1","image-keyboard-response","63","440646","0.0-6.0-1.8","3366619","co37741","norming","","","","","","",""
"24229.449999998906","","","post_mooney1_questions","survey-likert","64","464877","0.0-6.0-2.8","3366619","co37741","norming","","","{""curiosity"":1,""confidence"":5}","[0,1]","../img/tt/1130tt.jpg","",""
"2963.6500000051456","","","recognition","survey-text","65","467842","0.0-6.0-3.8","3366619","co37741","norming","","","{""guess"":""cyclist""}","","../img/tt/1130tt.jpg","",""
"null","../img/gs/1130gs.jpg","null","reveal","image-keyboard-response","66","469849","0.0-6.0-4.8","3366619","co37741","norming","","","","","","",""
"null","../img/tt/1130tt.jpg","null","mooney2","image-keyboard-response","67","471861","0.0-6.0-5.8","3366619","co37741","norming","","","","","","",""
"44089.61000001","","","post_reveal_questions","survey-likert","68","515952","0.0-6.0-6.8","3366619","co37741","norming","","","{""aha"":0}","[0]","../img/tt/1130tt.jpg","",""
"null","<div style=""font-size:60px;""> </div>","null","fixation","html-keyboard-response","69","516165","0.0-6.0-0.9","3366619","co37741","norming","","","","","","",""
"null","../img/tt/1260tt.jpg","null","mooney1","image-keyboard-response","70","519167","0.0-6.0-1.9","3366619","co37741","norming","","","","","","",""
"5145.510000002105","","","post_mooney1_questions","survey-likert","71","524314","0.0-6.0-2.9","3366619","co37741","norming","","","{""curiosity"":5,""confidence"":0}","[0,1]","../img/tt/1260tt.jpg","",""
"2401.4100000058534","","","recognition","survey-text","72","526717","0.0-6.0-3.9","3366619","co37741","norming","","","{""guess"":""wood""}","","../img/tt/1260tt.jpg","",""
"null","../img/gs/1260gs.jpg","null","reveal","image-keyboard-response","73","528724","0.0-6.0-4.9","3366619","co37741","norming","","","","","","",""
"null","../img/tt/1260tt.jpg","null","mooney2","image-keyboard-response","74","530725","0.0-6.0-5.9","3366619","co37741","norming","","","","","","",""
"3772.110000005341","","","post_reveal_questions","survey-likert","75","534499","0.0-6.0-6.9","3366619","co37741","norming","","","{""aha"":4}","[0]","../img/tt/1260tt.jpg","",""
"null","<div style=""font-size:60px;""> </div>","null","fixation","html-keyboard-response","76","534715","0.0-6.0-0.10","3366619","co37741","norming","","","","","","",""
"null","../img/tt/1089tt.jpg","null","mooney1","image-keyboard-response","77","537727","0.0-6.0-1.10","3366619","co37741","norming","","","","","","",""
"7388.890000001993","","","post_mooney1_questions","survey-likert","78","545117","0.0-6.0-2.10","3366619","co37741","norming","","","{""curiosity"":5,""confidence"":4}","[0,1]","../img/tt/1089tt.jpg","",""
"14175.909999990836","","","recognition","survey-text","79","559295","0.0-6.0-3.10","3366619","co37741","norming","","","{""guess"":""elephant""}","","../img/tt/1089tt.jpg","",""
"null","../img/gs/1089gs.jpg","null","reveal","image-keyboard-response","80","561306","0.0-6.0-4.10","3366619","co37741","norming","","","","","","",""
"null","../img/tt/1089tt.jpg","null","mooney2","image-keyboard-response","81","563318","0.0-6.0-5.10","3366619","co37741","norming","","","","","","",""
"3240.624999991269","","","post_reveal_questions","survey-likert","82","566560","0.0-6.0-6.10","3366619","co37741","norming","","","{""aha"":1}","[0]","../img/tt/1089tt.jpg","",""
"null","<div style=""font-size:60px;""> </div>","null","fixation","html-keyboard-response","83","566775","0.0-6.0-0.11","3366619","co37741","norming","","","","","","",""
"null","../img/tt/1126tt.jpg","null","mooney1","image-keyboard-response","84","569782","0.0-6.0-1.11","3366619","co37741","norming","","","","","","",""
"6658.880000002682","","","post_mooney1_questions","survey-likert","85","576442","0.0-6.0-2.11","3366619","co37741","norming","","","{""curiosity"":2,""confidence"":5}","[0,1]","../img/tt/1126tt.jpg","",""
"3116.5750000072876","","","recognition","survey-text","86","579561","0.0-6.0-3.11","3366619","co37741","norming","","","{""guess"":""climber""}","","../img/tt/1126tt.jpg","",""
"null","../img/gs/1126gs.jpg","null","reveal","image-keyboard-response","87","581572","0.0-6.0-4.11","3366619","co37741","norming","","","","","","",""
"null","../img/tt/1126tt.jpg","null","mooney2","image-keyboard-response","88","583584","0.0-6.0-5.11","3366619","co37741","norming","","","","","","",""
"5723.860000012792","","","post_reveal_questions","survey-likert","89","589309","0.0-6.0-6.11","3366619","co37741","norming","","","{""aha"":0}","[0]","../img/tt/1126tt.jpg","",""
"null","<div style=""font-size:60px;""> </div>","null","fixation","html-keyboard-response","90","589522","0.0-6.0-0.12","3366619","co37741","norming","","","","","","",""
"null","../img/tt/1159tt.jpg","null","mooney1","image-keyboard-response","91","592538","0.0-6.0-1.12","3366619","co37741","norming","","","","","","",""
"10221.850000001723","","","post_mooney1_questions","survey-likert","92","602761","0.0-6.0-2.12","3366619","co37741","norming","","","{""curiosity"":5,""confidence"":0}","[0,1]","../img/tt/1159tt.jpg","",""
"2643.24000000488","","","recognition","survey-text","93","605406","0.0-6.0-3.12","3366619","co37741","norming","","","{""guess"":""horse""}","","../img/tt/1159tt.jpg","",""
"null","../img/gs/1159gs.jpg","null","reveal","image-keyboard-response","94","607422","0.0-6.0-4.12","3366619","co37741","norming","","","","","","",""
"null","../img/tt/1159tt.jpg","null","mooney2","image-keyboard-response","95","609433","0.0-6.0-5.12","3366619","co37741","norming","","","","","","",""
"3785.3400000021793","","","post_reveal_questions","survey-likert","96","613220","0.0-6.0-6.12","3366619","co37741","norming","","","{""aha"":5}","[0]","../img/tt/1159tt.jpg","",""
"null","<div style=""font-size:60px;""> </div>","null","fixation","html-keyboard-response","97","613421","0.0-6.0-0.13","3366619","co37741","norming","","","","","","",""
"null","../img/tt/1189tt.jpg","null","mooney1","image-keyboard-response","98","616425","0.0-6.0-1.13","3366619","co37741","norming","","","","","","",""
"6345.744999998715","","","post_mooney1_questions","survey-likert","99","622773","0.0-6.0-2.13","3366619","co37741","norming","","","{""curiosity"":5,""confidence"":0}","[0,1]","../img/tt/1189tt.jpg","",""
"2827.4899999960326","","","recognition","survey-text","100","625602","0.0-6.0-3.13","3366619","co37741","norming","","","{""guess"":""water""}","","../img/tt/1189tt.jpg","",""
"null","../img/gs/1189gs.jpg","null","reveal","image-keyboard-response","101","627606","0.0-6.0-4.13","3366619","co37741","norming","","","","","","",""
"null","../img/tt/1189tt.jpg","null","mooney2","image-keyboard-response","102","629613","0.0-6.0-5.13","3366619","co37741","norming","","","","","","",""
"3554.1599999996834","","","post_reveal_questions","survey-likert","103","633168","0.0-6.0-6.13","3366619","co37741","norming","","","{""aha"":6}","[0]","../img/tt/1189tt.jpg","",""
"null","<div style=""font-size:60px;""> </div>","null","fixation","html-keyboard-response","104","633383","0.0-6.0-0.14","3366619","co37741","norming","","","","","","",""
"null","../img/tt/1055tt.jpg","null","mooney1","image-keyboard-response","105","636399","0.0-6.0-1.14","3366619","co37741","norming","","","","","","",""
"6117.0750000019325","","","post_mooney1_questions","survey-likert","106","642517","0.0-6.0-2.14","3366619","co37741","norming","","","{""curiosity"":5,""confidence"":0}","[0,1]","../img/tt/1055tt.jpg","",""
"3381.6599999991013","","","recognition","survey-text","107","645901","0.0-6.0-3.14","3366619","co37741","norming","","","{""guess"":""cave""}","","../img/tt/1055tt.jpg","",""
"null","../img/gs/1055gs.jpg","null","reveal","image-keyboard-response","108","647915","0.0-6.0-4.14","3366619","co37741","norming","","","","","","",""
"null","../img/tt/1055tt.jpg","null","mooney2","image-keyboard-response","109","649923","0.0-6.0-5.14","3366619","co37741","norming","","","","","","",""
"3514.8449999978766","","","post_reveal_questions","survey-likert","110","653439","0.0-6.0-6.14","3366619","co37741","norming","","","{""aha"":6}","[0]","../img/tt/1055tt.jpg","",""
"null","<div style=""font-size:60px;""> </div>","null","fixation","html-keyboard-response","111","653650","0.0-6.0-0.15","3366619","co37741","norming","","","","","","",""
"null","../img/tt/031tt.jpg","null","mooney1","image-keyboard-response","112","656653","0.0-6.0-1.15","3366619","co37741","norming","","","","","","",""
"5433.2200000062585","","","post_mooney1_questions","survey-likert","113","662088","0.0-6.0-2.15","3366619","co37741","norming","","","{""curiosity"":2,""confidence"":4}","[0,1]","../img/tt/031tt.jpg","",""
"2390.7750000071246","","","recognition","survey-text","114","664480","0.0-6.0-3.15","3366619","co37741","norming","","","{""guess"":""bear""}","","../img/tt/031tt.jpg","",""
"null","../img/gs/031gs.jpg","null","reveal","image-keyboard-response","115","666489","0.0-6.0-4.15","3366619","co37741","norming","","","","","","",""
"null","../img/tt/031tt.jpg","null","mooney2","image-keyboard-response","116","668503","0.0-6.0-5.15","3366619","co37741","norming","","","","","","",""
"3037.9899999970803","","","post_reveal_questions","survey-likert","117","671542","0.0-6.0-6.15","3366619","co37741","norming","","","{""aha"":2}","[0]","../img/tt/031tt.jpg","",""
"null","<div style=""font-size:60px;""> </div>","null","fixation","html-keyboard-response","118","671751","0.0-6.0-0.16","3366619","co37741","norming","","","","","","",""
"null","../img/tt/1202tt.jpg","null","mooney1","image-keyboard-response","119","674764","0.0-6.0-1.16","3366619","co37741","norming","","","","","","",""
"7132.790000003297","","","post_mooney1_questions","survey-likert","120","681898","0.0-6.0-2.16","3366619","co37741","norming","","","{""curiosity"":4,""confidence"":0}","[0,1]","../img/tt/1202tt.jpg","",""
"7713.9899999892805","","","recognition","survey-text","121","689614","0.0-6.0-3.16","3366619","co37741","norming","","","{""guess"":""""}","","../img/tt/1202tt.jpg","",""
"null","../img/gs/1202gs.jpg","null","reveal","image-keyboard-response","122","691631","0.0-6.0-4.16","3366619","co37741","norming","","","","","","",""
"null","../img/tt/1202tt.jpg","null","mooney2","image-keyboard-response","123","693647","0.0-6.0-5.16","3366619","co37741","norming","","","","","","",""
"4163.91499999736","","","post_reveal_questions","survey-likert","124","697812","0.0-6.0-6.16","3366619","co37741","norming","","","{""aha"":4}","[0]","../img/tt/1202tt.jpg","",""
"null","<div style=""font-size:60px;""> </div>","null","fixation","html-keyboard-response","125","698043","0.0-6.0-0.17","3366619","co37741","norming","","","","","","",""
"null","../img/tt/1024tt.jpg","null","mooney1","image-keyboard-response","126","701053","0.0-6.0-1.17","3366619","co37741","norming","","","","","","",""
"4555.135000002338","","","post_mooney1_questions","survey-likert","127","705609","0.0-6.0-2.17","3366619","co37741","norming","","","{""curiosity"":5,""confidence"":0}","[0,1]","../img/tt/1024tt.jpg","",""
"1034.220000001369","","","recognition","survey-text","128","706645","0.0-6.0-3.17","3366619","co37741","norming","","","{""guess"":""""}","","../img/tt/1024tt.jpg","",""
"null","../img/gs/1024gs.jpg","null","reveal","image-keyboard-response","129","708661","0.0-6.0-4.17","3366619","co37741","norming","","","","","","",""
"null","../img/tt/1024tt.jpg","null","mooney2","image-keyboard-response","130","710674","0.0-6.0-5.17","3366619","co37741","norming","","","","","","",""
"3849.224999998114","","","post_reveal_questions","survey-likert","131","714524","0.0-6.0-6.17","3366619","co37741","norming","","","{""aha"":5}","[0]","../img/tt/1024tt.jpg","",""
"null","<div style=""font-size:60px;""> </div>","null","fixation","html-keyboard-response","132","714741","0.0-6.0-0.18","3366619","co37741","norming","","","","","","",""
"null","../img/tt/1255tt.jpg","null","mooney1","image-keyboard-response","133","717755","0.0-6.0-1.18","3366619","co37741","norming","","","","","","",""
"6984.574999994948","","","post_mooney1_questions","survey-likert","134","724741","0.0-6.0-2.18","3366619","co37741","norming","","","{""curiosity"":5,""confidence"":1}","[0,1]","../img/tt/1255tt.jpg","",""
"2715.4650000011316","","","recognition","survey-text","135","727458","0.0-6.0-3.18","3366619","co37741","norming","","","{""guess"":""bunny""}","","../img/tt/1255tt.jpg","",""
"null","../img/gs/1255gs.jpg","null","reveal","image-keyboard-response","136","729473","0.0-6.0-4.18","3366619","co37741","norming","","","","","","",""
"null","../img/tt/1255tt.jpg","null","mooney2","image-keyboard-response","137","731487","0.0-6.0-5.18","3366619","co37741","norming","","","","","","",""
"2634.990000005928","","","post_reveal_questions","survey-likert","138","734123","0.0-6.0-6.18","3366619","co37741","norming","","","{""aha"":4}","[0]","../img/tt/1255tt.jpg","",""
"null","<div style=""font-size:60px;""> </div>","null","fixation","html-keyboard-response","139","734339","0.0-6.0-0.19","3366619","co37741","norming","","","","","","",""
"null","../img/tt/1053tt.jpg","null","mooney1","image-keyboard-response","140","737348","0.0-6.0-1.19","3366619","co37741","norming","","","","","","",""
"5337.4949999997625","","","post_mooney1_questions","survey-likert","141","742686","0.0-6.0-2.19","3366619","co37741","norming","","","{""curiosity"":4,""confidence"":1}","[0,1]","../img/tt/1053tt.jpg","",""
"2354.3550000031246","","","recognition","survey-text","142","745043","0.0-6.0-3.19","3366619","co37741","norming","","","{""guess"":""bear""}","","../img/tt/1053tt.jpg","",""
"null","../img/gs/1053gs.jpg","null","reveal","image-keyboard-response","143","747054","0.0-6.0-4.19","3366619","co37741","norming","","","","","","",""
"null","../img/tt/1053tt.jpg","null","mooney2","image-keyboard-response","144","749058","0.0-6.0-5.19","3366619","co37741","norming","","","","","","",""
"3027.684999993653","","","post_reveal_questions","survey-likert","145","752087","0.0-6.0-6.19","3366619","co37741","norming","","","{""aha"":5}","[0]","../img/tt/1053tt.jpg","",""
"null","<div style=""font-size:60px;""> </div>","null","fixation","html-keyboard-response","146","752289","0.0-6.0-0.20","3366619","co37741","norming","","","","","","",""
"null","../img/tt/1102tt.jpg","null","mooney1","image-keyboard-response","147","755301","0.0-6.0-1.20","3366619","co37741","norming","","","","","","",""
"5789.304999998421","","","post_mooney1_questions","survey-likert","148","761092","0.0-6.0-2.20","3366619","co37741","norming","","","{""curiosity"":3,""confidence"":0}","[0,1]","../img/tt/1102tt.jpg","",""
"1508.2099999999627","","","recognition","survey-text","149","762602","0.0-6.0-3.20","3366619","co37741","norming","","","{""guess"":""""}","","../img/tt/1102tt.jpg","",""
"null","../img/gs/1102gs.jpg","null","reveal","image-keyboard-response","150","764604","0.0-6.0-4.20","3366619","co37741","norming","","","","","","",""
"null","../img/tt/1102tt.jpg","null","mooney2","image-keyboard-response","151","766607","0.0-6.0-5.20","3366619","co37741","norming","","","","","","",""
"4596.965000004275","","","post_reveal_questions","survey-likert","152","771205","0.0-6.0-6.20","3366619","co37741","norming","","","{""aha"":3}","[0]","../img/tt/1102tt.jpg","",""
"null","<div style=""font-size:60px;""> </div>","null","fixation","html-keyboard-response","153","771417","0.0-6.0-0.21","3366619","co37741","norming","","","","","","",""
"null","../img/tt/096tt.jpg","null","mooney1","image-keyboard-response","154","774430","0.0-6.0-1.21","3366619","co37741","norming","","","","","","",""
"14917.780000003404","","","post_mooney1_questions","survey-likert","155","789349","0.0-6.0-2.21","3366619","co37741","norming","","","{""curiosity"":4,""confidence"":2}","[0,1]","../img/tt/096tt.jpg","",""
"3425.7849999994505","","","recognition","survey-text","156","792777","0.0-6.0-3.21","3366619","co37741","norming","","","{""guess"":""sewing machine""}","","../img/tt/096tt.jpg","",""
"null","../img/gs/096gs.jpg","null","reveal","image-keyboard-response","157","794786","0.0-6.0-4.21","3366619","co37741","norming","","","","","","",""
"null","../img/tt/096tt.jpg","null","mooney2","image-keyboard-response","158","796796","0.0-6.0-5.21","3366619","co37741","norming","","","","","","",""
"4469.649999999092","","","post_reveal_questions","survey-likert","159","801266","0.0-6.0-6.21","3366619","co37741","norming","","","{""aha"":2}","[0]","../img/tt/096tt.jpg","",""
"null","<div style=""font-size:60px;""> </div>","null","fixation","html-keyboard-response","160","801481","0.0-6.0-0.22","3366619","co37741","norming","","","","","","",""
"null","../img/tt/010tt.jpg","null","mooney1","image-keyboard-response","161","804490","0.0-6.0-1.22","3366619","co37741","norming","","","","","","",""
"5555.569999996806","","","post_mooney1_questions","survey-likert","162","810047","0.0-6.0-2.22","3366619","co37741","norming","","","{""curiosity"":5,""confidence"":1}","[0,1]","../img/tt/010tt.jpg","",""
"2297.48500000278","","","recognition","survey-text","163","812346","0.0-6.0-3.22","3366619","co37741","norming","","","{""guess"":""cow""}","","../img/tt/010tt.jpg","",""
"null","../img/gs/010gs.jpg","null","reveal","image-keyboard-response","164","814359","0.0-6.0-4.22","3366619","co37741","norming","","","","","","",""
"null","../img/tt/010tt.jpg","null","mooney2","image-keyboard-response","165","816360","0.0-6.0-5.22","3366619","co37741","norming","","","","","","",""
"7767.185000004247","","","post_reveal_questions","survey-likert","166","824129","0.0-6.0-6.22","3366619","co37741","norming","","","{""aha"":5}","[0]","../img/tt/010tt.jpg","",""
"null","<div style=""font-size:60px;""> </div>","null","fixation","html-keyboard-response","167","824343","0.0-6.0-0.23","3366619","co37741","norming","","","","","","",""
"null","../img/tt/111tt.jpg","null","mooney1","image-keyboard-response","168","827352","0.0-6.0-1.23","3366619","co37741","norming","","","","","","",""
"6909.2450000025565","","","post_mooney1_questions","survey-likert","169","834262","0.0-6.0-2.23","3366619","co37741","norming","","","{""curiosity"":1,""confidence"":2}","[0,1]","../img/tt/111tt.jpg","",""
"2660.9999999927823","","","recognition","survey-text","170","836925","0.0-6.0-3.23","3366619","co37741","norming","","","{""guess"":""phone""}","","../img/tt/111tt.jpg","",""
"null","../img/gs/111gs.jpg","null","reveal","image-keyboard-response","171","838935","0.0-6.0-4.23","3366619","co37741","norming","","","","","","",""
"null","../img/tt/111tt.jpg","null","mooney2","image-keyboard-response","172","840942","0.0-6.0-5.23","3366619","co37741","norming","","","","","","",""
"3385.150000001886","","","post_reveal_questions","survey-likert","173","844328","0.0-6.0-6.23","3366619","co37741","norming","","","{""aha"":4}","[0]","../img/tt/111tt.jpg","",""
"null","<div style=""font-size:60px;""> </div>","null","fixation","html-keyboard-response","174","844541","0.0-6.0-0.24","3366619","co37741","norming","","","","","","",""
"null","../img/tt/1002tt.jpg","null","mooney1","image-keyboard-response","175","847543","0.0-6.0-1.24","3366619","co37741","norming","","","","","","",""
"11264.555000001565","","","post_mooney1_questions","survey-likert","176","858808","0.0-6.0-2.24","3366619","co37741","norming","","","{""curiosity"":2,""confidence"":4}","[0,1]","../img/tt/1002tt.jpg","",""
"2313.864999989164","","","recognition","survey-text","177","861124","0.0-6.0-3.24","3366619","co37741","norming","","","{""guess"":""cow""}","","../img/tt/1002tt.jpg","",""
"null","../img/gs/1002gs.jpg","null","reveal","image-keyboard-response","178","863137","0.0-6.0-4.24","3366619","co37741","norming","","","","","","",""
"null","../img/tt/1002tt.jpg","null","mooney2","image-keyboard-response","179","865141","0.0-6.0-5.24","3366619","co37741","norming","","","","","","",""
"4246.93500000285","","","post_reveal_questions","survey-likert","180","869389","0.0-6.0-6.24","3366619","co37741","norming","","","{""aha"":1}","[0]","../img/tt/1002tt.jpg","",""
"null","<div style=""font-size:60px;""> </div>","null","fixation","html-keyboard-response","181","869605","0.0-6.0-0.25","3366619","co37741","norming","","","","","","",""
"null","../img/tt/1227tt.jpg","null","mooney1","image-keyboard-response","182","872633","0.0-6.0-1.25","3366619","co37741","norming","","","","","","",""
"6854.070000001229","","","post_mooney1_questions","survey-likert","183","879489","0.0-6.0-2.25","3366619","co37741","norming","","","{""curiosity"":5,""confidence"":0}","[0,1]","../img/tt/1227tt.jpg","",""
"997.5950000080047","","","recognition","survey-text","184","880488","0.0-6.0-3.25","3366619","co37741","norming","","","{""guess"":""""}","","../img/tt/1227tt.jpg","",""
"null","../img/gs/1227gs.jpg","null","reveal","image-keyboard-response","185","882505","0.0-6.0-4.25","3366619","co37741","norming","","","","","","",""
"null","../img/tt/1227tt.jpg","null","mooney2","image-keyboard-response","186","884508","0.0-6.0-5.25","3366619","co37741","norming","","","","","","",""
"2958.7650000030408","","","post_reveal_questions","survey-likert","187","887468","0.0-6.0-6.25","3366619","co37741","norming","","","{""aha"":6}","[0]","../img/tt/1227tt.jpg","",""
"null","<div style=""font-size:60px;""> </div>","null","fixation","html-keyboard-response","188","887670","0.0-6.0-0.26","3366619","co37741","norming","","","","","","",""
"null","../img/tt/599tt.jpg","null","mooney1","image-keyboard-response","189","890679","0.0-6.0-1.26","3366619","co37741","norming","","","","","","",""
"4182.025000001886","","","post_mooney1_questions","survey-likert","190","894862","0.0-6.0-2.26","3366619","co37741","norming","","","{""curiosity"":4,""confidence"":1}","[0,1]","../img/tt/599tt.jpg","",""
"2797.3499999934575","","","recognition","survey-text","191","897661","0.0-6.0-3.26","3366619","co37741","norming","","","{""guess"":""butterfly""}","","../img/tt/599tt.jpg","",""
"null","../img/gs/599gs.jpg","null","reveal","image-keyboard-response","192","899668","0.0-6.0-4.26","3366619","co37741","norming","","","","","","",""
"null","../img/tt/599tt.jpg","null","mooney2","image-keyboard-response","193","901669","0.0-6.0-5.26","3366619","co37741","norming","","","","","","",""
"4282.185000003665","","","post_reveal_questions","survey-likert","194","905952","0.0-6.0-6.26","3366619","co37741","norming","","","{""aha"":1}","[0]","../img/tt/599tt.jpg","",""
"null","<div style=""font-size:60px;""> </div>","null","fixation","html-keyboard-response","195","906166","0.0-6.0-0.27","3366619","co37741","norming","","","","","","",""
"null","../img/tt/534tt.jpg","null","mooney1","image-keyboard-response","196","909179","0.0-6.0-1.27","3366619","co37741","norming","","","","","","",""
"6469.005000006291","","","post_mooney1_questions","survey-likert","197","915650","0.0-6.0-2.27","3366619","co37741","norming","","","{""curiosity"":5,""confidence"":1}","[0,1]","../img/tt/534tt.jpg","",""
"2898.559999986901","","","recognition","survey-text","198","918550","0.0-6.0-3.27","3366619","co37741","norming","","","{""guess"":""gras""}","","../img/tt/534tt.jpg","",""
"null","../img/gs/534gs.jpg","null","reveal","image-keyboard-response","199","920561","0.0-6.0-4.27","3366619","co37741","norming","","","","","","",""
"null","../img/tt/534tt.jpg","null","mooney2","image-keyboard-response","200","922562","0.0-6.0-5.27","3366619","co37741","norming","","","","","","",""
"2367.084999990766","","","post_reveal_questions","survey-likert","201","924930","0.0-6.0-6.27","3366619","co37741","norming","","","{""aha"":1}","[0]","../img/tt/534tt.jpg","",""
"null","<div style=""font-size:60px;""> </div>","null","fixation","html-keyboard-response","202","925133","0.0-6.0-0.28","3366619","co37741","norming","","","","","","",""
"null","../img/tt/1283tt.jpg","null","mooney1","image-keyboard-response","203","928136","0.0-6.0-1.28","3366619","co37741","norming","","","","","","",""
"6245.705000008456","","","post_mooney1_questions","survey-likert","204","934383","0.0-6.0-2.28","3366619","co37741","norming","","","{""curiosity"":5,""confidence"":1}","[0,1]","../img/tt/1283tt.jpg","",""
"3382.0600000035483","","","recognition","survey-text","205","937767","0.0-6.0-3.28","3366619","co37741","norming","","","{""guess"":""dog""}","","../img/tt/1283tt.jpg","",""
"null","../img/gs/1283gs.jpg","null","reveal","image-keyboard-response","206","939769","0.0-6.0-4.28","3366619","co37741","norming","","","","","","",""
"null","../img/tt/1283tt.jpg","null","mooney2","image-keyboard-response","207","941772","0.0-6.0-5.28","3366619","co37741","norming","","","","","","",""
"4973.989999998594","","","post_reveal_questions","survey-likert","208","946747","0.0-6.0-6.28","3366619","co37741","norming","","","{""aha"":1}","[0]","../img/tt/1283tt.jpg","",""
"null","<div style=""font-size:60px;""> </div>","null","fixation","html-keyboard-response","209","946961","0.0-6.0-0.29","3366619","co37741","norming","","","","","","",""
"null","../img/tt/1148tt.jpg","null","mooney1","image-keyboard-response","210","949976","0.0-6.0-1.29","3366619","co37741","norming","","","","","","",""
"7721.109999998589","","","post_mooney1_questions","survey-likert","211","957698","0.0-6.0-2.29","3366619","co37741","norming","","","{""curiosity"":2,""confidence"":0}","[0,1]","../img/tt/1148tt.jpg","",""
"835.1400000101421","","","recognition","survey-text","212","958535","0.0-6.0-3.29","3366619","co37741","norming","","","{""guess"":""""}","","../img/tt/1148tt.jpg","",""
"null","../img/gs/1148gs.jpg","null","reveal","image-keyboard-response","213","960537","0.0-6.0-4.29","3366619","co37741","norming","","","","","","",""
"null","../img/tt/1148tt.jpg","null","mooney2","image-keyboard-response","214","962543","0.0-6.0-5.29","3366619","co37741","norming","","","","","","",""
"3549.025000000256","","","post_reveal_questions","survey-likert","215","966093","0.0-6.0-6.29","3366619","co37741","norming","","","{""aha"":4}","[0]","../img/tt/1148tt.jpg","",""
"null","<div style=""font-size:60px;""> </div>","null","fixation","html-keyboard-response","216","966309","0.0-6.0-0.30","3366619","co37741","norming","","","","","","",""
"null","../img/tt/1096tt.jpg","null","mooney1","image-keyboard-response","217","969314","0.0-6.0-1.30","3366619","co37741","norming","","","","","","",""
"19645.229999994626","","","post_mooney1_questions","survey-likert","218","988960","0.0-6.0-2.30","3366619","co37741","norming","","","{""curiosity"":5,""confidence"":1}","[0,1]","../img/tt/1096tt.jpg","",""
"2080.514999994193","","","recognition","survey-text","219","991042","0.0-6.0-3.30","3366619","co37741","norming","","","{""guess"":""sloth""}","","../img/tt/1096tt.jpg","",""
"null","../img/gs/1096gs.jpg","null","reveal","image-keyboard-response","220","993051","0.0-6.0-4.30","3366619","co37741","norming","","","","","","",""
"null","../img/tt/1096tt.jpg","null","mooney2","image-keyboard-response","221","995056","0.0-6.0-5.30","3366619","co37741","norming","","","","","","",""
"2832.544999997597","","","post_reveal_questions","survey-likert","222","997889","0.0-6.0-6.30","3366619","co37741","norming","","","{""aha"":6}","[0]","../img/tt/1096tt.jpg","",""
"null","<div style=""font-size:60px;""> </div>","null","fixation","html-keyboard-response","223","998108","0.0-6.0-0.31","3366619","co37741","norming","","","","","","",""
"null","../img/tt/1254tt.jpg","null","mooney1","image-keyboard-response","224","1001114","0.0-6.0-1.31","3366619","co37741","norming","","","","","","",""
"3912.8550000023097","","","post_mooney1_questions","survey-likert","225","1005028","0.0-6.0-2.31","3366619","co37741","norming","","","{""curiosity"":5,""confidence"":0}","[0,1]","../img/tt/1254tt.jpg","",""
"919.3999999987427","","","recognition","survey-text","226","1005949","0.0-6.0-3.31","3366619","co37741","norming","","","{""guess"":""""}","","../img/tt/1254tt.jpg","",""
"null","../img/gs/1254gs.jpg","null","reveal","image-keyboard-response","227","1007954","0.0-6.0-4.31","3366619","co37741","norming","","","","","","",""
"null","../img/tt/1254tt.jpg","null","mooney2","image-keyboard-response","228","1009958","0.0-6.0-5.31","3366619","co37741","norming","","","","","","",""
"3142.1300000075717","","","post_reveal_questions","survey-likert","229","1013102","0.0-6.0-6.31","3366619","co37741","norming","","","{""aha"":1}","[0]","../img/tt/1254tt.jpg","",""
"null","<div style=""font-size:60px;""> </div>","null","fixation","html-keyboard-response","230","1013304","0.0-6.0-0.32","3366619","co37741","norming","","","","","","",""
"null","../img/tt/1084tt.jpg","null","mooney1","image-keyboard-response","231","1016307","0.0-6.0-1.32","3366619","co37741","norming","","","","","","",""
"10294.789999999804","","","post_mooney1_questions","survey-likert","232","1026604","0.0-6.0-2.32","3366619","co37741","norming","","","{""curiosity"":4,""confidence"":1}","[0,1]","../img/tt/1084tt.jpg","",""
"2282.039999990957","","","recognition","survey-text","233","1028887","0.0-6.0-3.32","3366619","co37741","norming","","","{""guess"":""food""}","","../img/tt/1084tt.jpg","",""
"null","../img/gs/1084gs.jpg","null","reveal","image-keyboard-response","234","1030903","0.0-6.0-4.32","3366619","co37741","norming","","","","","","",""
"null","../img/tt/1084tt.jpg","null","mooney2","image-keyboard-response","235","1032914","0.0-6.0-5.32","3366619","co37741","norming","","","","","","",""
"4004.5400000091176","","","post_reveal_questions","survey-likert","236","1036920","0.0-6.0-6.32","3366619","co37741","norming","","","{""aha"":0}","[0]","../img/tt/1084tt.jpg","",""
"null","<div style=""font-size:60px;""> </div>","null","fixation","html-keyboard-response","237","1037122","0.0-6.0-0.33","3366619","co37741","norming","","","","","","",""
"null","../img/tt/019tt.jpg","null","mooney1","image-keyboard-response","238","1040129","0.0-6.0-1.33","3366619","co37741","norming","","","","","","",""
"7554.4149999914225","","","post_mooney1_questions","survey-likert","239","1047685","0.0-6.0-2.33","3366619","co37741","norming","","","{""curiosity"":3,""confidence"":1}","[0,1]","../img/tt/019tt.jpg","",""
"3727.950000000652","","","recognition","survey-text","240","1051415","0.0-6.0-3.33","3366619","co37741","norming","","","{""guess"":""scissor""}","","../img/tt/019tt.jpg","",""
"null","../img/gs/019gs.jpg","null","reveal","image-keyboard-response","241","1053429","0.0-6.0-4.33","3366619","co37741","norming","","","","","","",""
"null","../img/tt/019tt.jpg","null","mooney2","image-keyboard-response","242","1055432","0.0-6.0-5.33","3366619","co37741","norming","","","","","","",""
"3482.329999999143","","","post_reveal_questions","survey-likert","243","1058916","0.0-6.0-6.33","3366619","co37741","norming","","","{""aha"":0}","[0]","../img/tt/019tt.jpg","",""
"null","<div style=""font-size:60px;""> </div>","null","fixation","html-keyboard-response","244","1059130","0.0-6.0-0.34","3366619","co37741","norming","","","","","","",""
"null","../img/tt/559tt.jpg","null","mooney1","image-keyboard-response","245","1062132","0.0-6.0-1.34","3366619","co37741","norming","","","","","","",""
"4039.699999993667","","","post_mooney1_questions","survey-likert","246","1066173","0.0-6.0-2.34","3366619","co37741","norming","","","{""curiosity"":5,""confidence"":0}","[0,1]","../img/tt/559tt.jpg","",""
"805.0450000008568","","","recognition","survey-text","247","1066983","0.0-6.0-3.34","3366619","co37741","norming","","","{""guess"":""""}","","../img/tt/559tt.jpg","",""
"null","../img/gs/559gs.jpg","null","reveal","image-keyboard-response","248","1068984","0.0-6.0-4.34","3366619","co37741","norming","","","","","","",""
"null","../img/tt/559tt.jpg","null","mooney2","image-keyboard-response","249","1070990","0.0-6.0-5.34","3366619","co37741","norming","","","","","","",""
"4336.929999990389","","","post_reveal_questions","survey-likert","250","1075328","0.0-6.0-6.34","3366619","co37741","norming","","","{""aha"":6}","[0]","../img/tt/559tt.jpg","",""
"null","<div style=""font-size:60px;""> </div>","null","fixation","html-keyboard-response","251","1075544","0.0-6.0-0.35","3366619","co37741","norming","","","","","","",""
"null","../img/tt/1087tt.jpg","null","mooney1","image-keyboard-response","252","1078550","0.0-6.0-1.35","3366619","co37741","norming","","","","","","",""
"3859.465000001481","","","post_mooney1_questions","survey-likert","253","1082411","0.0-6.0-2.35","3366619","co37741","norming","","","{""curiosity"":2,""confidence"":2}","[0,1]","../img/tt/1087tt.jpg","",""
"1637.1899999938905","","","recognition","survey-text","254","1084050","0.0-6.0-3.35","3366619","co37741","norming","","","{""guess"":""cow""}","","../img/tt/1087tt.jpg","",""
"null","../img/gs/1087gs.jpg","null","reveal","image-keyboard-response","255","1086060","0.0-6.0-4.35","3366619","co37741","norming","","","","","","",""
"null","../img/tt/1087tt.jpg","null","mooney2","image-keyboard-response","256","1088075","0.0-6.0-5.35","3366619","co37741","norming","","","","","","",""
"3553.8400000077672","","","post_reveal_questions","survey-likert","257","1091630","0.0-6.0-6.35","3366619","co37741","norming","","","{""aha"":0}","[0]","../img/tt/1087tt.jpg","",""
"null","<div style=""font-size:60px;""> </div>","null","fixation","html-keyboard-response","258","1091842","0.0-6.0-0.36","3366619","co37741","norming","","","","","","",""
"null","../img/tt/1066tt.jpg","null","mooney1","image-keyboard-response","259","1094846","0.0-6.0-1.36","3366619","co37741","norming","","","","","","",""
"5463.665000003064","","","post_mooney1_questions","survey-likert","260","1100311","0.0-6.0-2.36","3366619","co37741","norming","","","{""curiosity"":1,""confidence"":4}","[0,1]","../img/tt/1066tt.jpg","",""
"1681.2050000005402","","","recognition","survey-text","261","1101994","0.0-6.0-3.36","3366619","co37741","norming","","","{""guess"":""bus""}","","../img/tt/1066tt.jpg","",""
"null","../img/gs/1066gs.jpg","null","reveal","image-keyboard-response","262","1104005","0.0-6.0-4.36","3366619","co37741","norming","","","","","","",""
"null","../img/tt/1066tt.jpg","null","mooney2","image-keyboard-response","263","1106013","0.0-6.0-5.36","3366619","co37741","norming","","","","","","",""
"3228.2100000013597","","","post_reveal_questions","survey-likert","264","1109242","0.0-6.0-6.36","3366619","co37741","norming","","","{""aha"":0}","[0]","../img/tt/1066tt.jpg","",""
"null","<div style=""font-size:60px;""> </div>","null","fixation","html-keyboard-response","265","1109456","0.0-6.0-0.37","3366619","co37741","norming","","","","","","",""
"null","../img/tt/1046tt.jpg","null","mooney1","image-keyboard-response","266","1112470","0.0-6.0-1.37","3366619","co37741","norming","","","","","","",""
"4363.785000008764","","","post_mooney1_questions","survey-likert","267","1116835","0.0-6.0-2.37","3366619","co37741","norming","","","{""curiosity"":4,""confidence"":1}","[0,1]","../img/tt/1046tt.jpg","",""
"2287.1949999970384","","","recognition","survey-text","268","1119124","0.0-6.0-3.37","3366619","co37741","norming","","","{""guess"":""food""}","","../img/tt/1046tt.jpg","",""
"null","../img/gs/1046gs.jpg","null","reveal","image-keyboard-response","269","1121128","0.0-6.0-4.37","3366619","co37741","norming","","","","","","",""
"null","../img/tt/1046tt.jpg","null","mooney2","image-keyboard-response","270","1123139","0.0-6.0-5.37","3366619","co37741","norming","","","","","","",""
"2648.5700000049546","","","post_reveal_questions","survey-likert","271","1125789","0.0-6.0-6.37","3366619","co37741","norming","","","{""aha"":3}","[0]","../img/tt/1046tt.jpg","",""
"null","<div style=""font-size:60px;""> </div>","null","fixation","html-keyboard-response","272","1126005","0.0-6.0-0.38","3366619","co37741","norming","","","","","","",""
"null","../img/tt/1091tt.jpg","null","mooney1","image-keyboard-response","273","1129020","0.0-6.0-1.38","3366619","co37741","norming","","","","","","",""
"4286.479999995325","","","post_mooney1_questions","survey-likert","274","1133307","0.0-6.0-2.38","3366619","co37741","norming","","","{""curiosity"":3,""confidence"":2}","[0,1]","../img/tt/1091tt.jpg","",""
"718.1249999993015","","","recognition","survey-text","275","1134027","0.0-6.0-3.38","3366619","co37741","norming","","","{""guess"":""horse""}","","../img/tt/1091tt.jpg","",""
"null","../img/gs/1091gs.jpg","null","reveal","image-keyboard-response","276","1136042","0.0-6.0-4.38","3366619","co37741","norming","","","","","","",""
"null","../img/tt/1091tt.jpg","null","mooney2","image-keyboard-response","277","1138073","0.0-6.0-5.38","3366619","co37741","norming","","","","","","",""
"3462.6800000115763","","","post_reveal_questions","survey-likert","278","1141537","0.0-6.0-6.38","3366619","co37741","norming","","","{""aha"":0}","[0]","../img/tt/1091tt.jpg","",""
"null","<div style=""font-size:60px;""> </div>","null","fixation","html-keyboard-response","279","1141751","0.0-6.0-0.39","3366619","co37741","norming","","","","","","",""
"null","../img/tt/056tt.jpg","null","mooney1","image-keyboard-response","280","1144753","0.0-6.0-1.39","3366619","co37741","norming","","","","","","",""
"3018.069999990985","","","post_mooney1_questions","survey-likert","281","1147773","0.0-6.0-2.39","3366619","co37741","norming","","","{""curiosity"":5,""confidence"":0}","[0,1]","../img/tt/056tt.jpg","",""
"746.2149999919347","","","recognition","survey-text","282","1148521","0.0-6.0-3.39","3366619","co37741","norming","","","{""guess"":""""}","","../img/tt/056tt.jpg","",""
"null","../img/gs/056gs.jpg","null","reveal","image-keyboard-response","283","1150523","0.0-6.0-4.39","3366619","co37741","norming","","","","","","",""
"null","../img/tt/056tt.jpg","null","mooney2","image-keyboard-response","284","1152539","0.0-6.0-5.39","3366619","co37741","norming","","","","","","",""
"2612.2849999954924","","","post_reveal_questions","survey-likert","285","1155152","0.0-6.0-6.39","3366619","co37741","norming","","","{""aha"":1}","[0]","../img/tt/056tt.jpg","",""
"null","<div style=""font-size:60px;""> </div>","null","fixation","html-keyboard-response","286","1155354","0.0-6.0-0.40","3366619","co37741","norming","","","","","","",""
"null","../img/tt/1048tt.jpg","null","mooney1","image-keyboard-response","287","1158358","0.0-6.0-1.40","3366619","co37741","norming","","","","","","",""
"5027.605000010226","","","post_mooney1_questions","survey-likert","288","1163387","0.0-6.0-2.40","3366619","co37741","norming","","","{""curiosity"":4,""confidence"":0}","[0,1]","../img/tt/1048tt.jpg","",""
"975.7149999930989","","","recognition","survey-text","289","1164364","0.0-6.0-3.40","3366619","co37741","norming","","","{""guess"":""""}","","../img/tt/1048tt.jpg","",""
"null","../img/gs/1048gs.jpg","null","reveal","image-keyboard-response","290","1166381","0.0-6.0-4.40","3366619","co37741","norming","","","","","","",""
"null","../img/tt/1048tt.jpg","null","mooney2","image-keyboard-response","291","1168393","0.0-6.0-5.40","3366619","co37741","norming","","","","","","",""
"1773.7150000031106","","","post_reveal_questions","survey-likert","292","1170168","0.0-6.0-6.40","3366619","co37741","norming","","","{""aha"":0}","[0]","../img/tt/1048tt.jpg","",""
"null","<div style=""font-size:60px;""> </div>","null","fixation","html-keyboard-response","293","1170384","0.0-6.0-0.41","3366619","co37741","norming","","","","","","",""
"null","../img/tt/013tt.jpg","null","mooney1","image-keyboard-response","294","1173396","0.0-6.0-1.41","3366619","co37741","norming","","","","","","",""
"6846.300000004703","","","post_mooney1_questions","survey-likert","295","1180244","0.0-6.0-2.41","3366619","co37741","norming","","","{""curiosity"":4,""confidence"":0}","[0,1]","../img/tt/013tt.jpg","",""
"803.9750000024214","","","recognition","survey-text","296","1181050","0.0-6.0-3.41","3366619","co37741","norming","","","{""guess"":""""}","","../img/tt/013tt.jpg","",""
"null","../img/gs/013gs.jpg","null","reveal","image-keyboard-response","297","1183058","0.0-6.0-4.41","3366619","co37741","norming","","","","","","",""
"null","../img/tt/013tt.jpg","null","mooney2","image-keyboard-response","298","1185070","0.0-6.0-5.41","3366619","co37741","norming","","","","","","",""
"7824.745000005467","","","post_reveal_questions","survey-likert","299","1192897","0.0-6.0-6.41","3366619","co37741","norming","","","{""aha"":2}","[0]","../img/tt/013tt.jpg","",""
"null","<div style=""font-size:60px;""> </div>","null","fixation","html-keyboard-response","300","1193098","0.0-6.0-0.42","3366619","co37741","norming","","","","","","",""
"null","../img/tt/032tt.jpg","null","mooney1","image-keyboard-response","301","1196100","0.0-6.0-1.42","3366619","co37741","norming","","","","","","",""
"4028.0900000070687","","","post_mooney1_questions","survey-likert","302","1200130","0.0-6.0-2.42","3366619","co37741","norming","","","{""curiosity"":2,""confidence"":1}","[0,1]","../img/tt/032tt.jpg","",""
"2464.1449999907054","","","recognition","survey-text","303","1202596","0.0-6.0-3.42","3366619","co37741","norming","","","{""guess"":""person""}","","../img/tt/032tt.jpg","",""
"null","../img/gs/032gs.jpg","null","reveal","image-keyboard-response","304","1204608","0.0-6.0-4.42","3366619","co37741","norming","","","","","","",""
"null","../img/tt/032tt.jpg","null","mooney2","image-keyboard-response","305","1206611","0.0-6.0-5.42","3366619","co37741","norming","","","","","","",""
"3733.9199999987613","","","post_reveal_questions","survey-likert","306","1210346","0.0-6.0-6.42","3366619","co37741","norming","","","{""aha"":2}","[0]","../img/tt/032tt.jpg","",""
"null","<div style=""font-size:60px;""> </div>","null","fixation","html-keyboard-response","307","1210561","0.0-6.0-0.43","3366619","co37741","norming","","","","","","",""
"null","../img/tt/098tt.jpg","null","mooney1","image-keyboard-response","308","1213570","0.0-6.0-1.43","3366619","co37741","norming","","","","","","",""
"3808.2149999975227","","","post_mooney1_questions","survey-likert","309","1217380","0.0-6.0-2.43","3366619","co37741","norming","","","{""curiosity"":6,""confidence"":1}","[0,1]","../img/tt/098tt.jpg","",""
"2828.5150000010617","","","recognition","survey-text","310","1220210","0.0-6.0-3.43","3366619","co37741","norming","","","{""guess"":""horse""}","","../img/tt/098tt.jpg","",""
"null","../img/gs/098gs.jpg","null","reveal","image-keyboard-response","311","1222223","0.0-6.0-4.43","3366619","co37741","norming","","","","","","",""
"null","../img/tt/098tt.jpg","null","mooney2","image-keyboard-response","312","1224230","0.0-6.0-5.43","3366619","co37741","norming","","","","","","",""
"2196.89500000095","","","post_reveal_questions","survey-likert","313","1226428","0.0-6.0-6.43","3366619","co37741","norming","","","{""aha"":4}","[0]","../img/tt/098tt.jpg","",""
"null","<div style=""font-size:60px;""> </div>","null","fixation","html-keyboard-response","314","1226641","0.0-6.0-0.44","3366619","co37741","norming","","","","","","",""
"null","../img/tt/1190tt.jpg","null","mooney1","image-keyboard-response","315","1229656","0.0-6.0-1.44","3366619","co37741","norming","","","","","","",""
"3502.4799999953248","","","post_mooney1_questions","survey-likert","316","1233159","0.0-6.0-2.44","3366619","co37741","norming","","","{""curiosity"":4,""confidence"":1}","[0,1]","../img/tt/1190tt.jpg","",""
"700.4549999982119","","","recognition","survey-text","317","1233862","0.0-6.0-3.44","3366619","co37741","norming","","","{""guess"":""bee""}","","../img/tt/1190tt.jpg","",""
"null","../img/gs/1190gs.jpg","null","reveal","image-keyboard-response","318","1235867","0.0-6.0-4.44","3366619","co37741","norming","","","","","","",""
"null","../img/tt/1190tt.jpg","null","mooney2","image-keyboard-response","319","1237873","0.0-6.0-5.44","3366619","co37741","norming","","","","","","",""
"3518.1250000023283","","","post_reveal_questions","survey-likert","320","1241392","0.0-6.0-6.44","3366619","co37741","norming","","","{""aha"":4}","[0]","../img/tt/1190tt.jpg","",""
"null","<div style=""font-size:60px;""> </div>","null","fixation","html-keyboard-response","321","1241606","0.0-6.0-0.45","3366619","co37741","norming","","","","","","",""
"null","../img/tt/1097tt.jpg","null","mooney1","image-keyboard-response","322","1244622","0.0-6.0-1.45","3366619","co37741","norming","","","","","","",""
"28622.354999999516","","","post_mooney1_questions","survey-likert","323","1273245","0.0-6.0-2.45","3366619","co37741","norming","","","{""curiosity"":5,""confidence"":2}","[0,1]","../img/tt/1097tt.jpg","",""
"20119.665000005625","","","recognition","survey-text","324","1293367","0.0-6.0-3.45","3366619","co37741","norming","","","{""guess"":""rowing boat""}","","../img/tt/1097tt.jpg","",""
"null","../img/gs/1097gs.jpg","null","reveal","image-keyboard-response","325","1295375","0.0-6.0-4.45","3366619","co37741","norming","","","","","","",""
"null","../img/tt/1097tt.jpg","null","mooney2","image-keyboard-response","326","1297391","0.0-6.0-5.45","3366619","co37741","norming","","","","","","",""
"3856.6100000026636","","","post_reveal_questions","survey-likert","327","1301249","0.0-6.0-6.45","3366619","co37741","norming","","","{""aha"":0}","[0]","../img/tt/1097tt.jpg","",""
"null","<div style=""font-size:60px;""> </div>","null","fixation","html-keyboard-response","328","1301464","0.0-6.0-0.46","3366619","co37741","norming","","","","","","",""
"null","../img/tt/1044tt.jpg","null","mooney1","image-keyboard-response","329","1304477","0.0-6.0-1.46","3366619","co37741","norming","","","","","","",""
"6169.555000000168","","","post_mooney1_questions","survey-likert","330","1310648","0.0-6.0-2.46","3366619","co37741","norming","","","{""curiosity"":5,""confidence"":0}","[0,1]","../img/tt/1044tt.jpg","",""
"1920.0949999941513","","","recognition","survey-text","331","1312570","0.0-6.0-3.46","3366619","co37741","norming","","","{""guess"":""""}","","../img/tt/1044tt.jpg","",""
"null","../img/gs/1044gs.jpg","null","reveal","image-keyboard-response","332","1314577","0.0-6.0-4.46","3366619","co37741","norming","","","","","","",""
"null","../img/tt/1044tt.jpg","null","mooney2","image-keyboard-response","333","1316584","0.0-6.0-5.46","3366619","co37741","norming","","","","","","",""
"3063.974999997299","","","post_reveal_questions","survey-likert","334","1319649","0.0-6.0-6.46","3366619","co37741","norming","","","{""aha"":5}","[0]","../img/tt/1044tt.jpg","",""
"null","<div style=""font-size:60px;""> </div>","null","fixation","html-keyboard-response","335","1319864","0.0-6.0-0.47","3366619","co37741","norming","","","","","","",""
"null","../img/tt/468tt.jpg","null","mooney1","image-keyboard-response","336","1322865","0.0-6.0-1.47","3366619","co37741","norming","","","","","","",""
"6697.944999992615","","","post_mooney1_questions","survey-likert","337","1329564","0.0-6.0-2.47","3366619","co37741","norming","","","{""curiosity"":5,""confidence"":1}","[0,1]","../img/tt/468tt.jpg","",""
"2258.1050000009127","","","recognition","survey-text","338","1331824","0.0-6.0-3.47","3366619","co37741","norming","","","{""guess"":""cowboy""}","","../img/tt/468tt.jpg","",""
"null","../img/gs/468gs.jpg","null","reveal","image-keyboard-response","339","1333847","0.0-6.0-4.47","3366619","co37741","norming","","","","","","",""
"null","../img/tt/468tt.jpg","null","mooney2","image-keyboard-response","340","1335853","0.0-6.0-5.47","3366619","co37741","norming","","","","","","",""
"3158.5550000017975","","","post_reveal_questions","survey-likert","341","1339013","0.0-6.0-6.47","3366619","co37741","norming","","","{""aha"":5}","[0]","../img/tt/468tt.jpg","",""
"null","<div style=""font-size:60px;""> </div>","null","fixation","html-keyboard-response","342","1339217","0.0-6.0-0.48","3366619","co37741","norming","","","","","","",""
"null","../img/tt/080tt.jpg","null","mooney1","image-keyboard-response","343","1342220","0.0-6.0-1.48","3366619","co37741","norming","","","","","","",""
"4640.660000004806","","","post_mooney1_questions","survey-likert","344","1346862","0.0-6.0-2.48","3366619","co37741","norming","","","{""curiosity"":4,""confidence"":1}","[0,1]","../img/tt/080tt.jpg","",""
"1118.165000007255","","","recognition","survey-text","345","1347982","0.0-6.0-3.48","3366619","co37741","norming","","","{""guess"":""flower""}","","../img/tt/080tt.jpg","",""
"null","../img/gs/080gs.jpg","null","reveal","image-keyboard-response","346","1349999","0.0-6.0-4.48","3366619","co37741","norming","","","","","","",""
"null","../img/tt/080tt.jpg","null","mooney2","image-keyboard-response","347","1352011","0.0-6.0-5.48","3366619","co37741","norming","","","","","","",""
"4181.230000002077","","","post_reveal_questions","survey-likert","348","1356194","0.0-6.0-6.48","3366619","co37741","norming","","","{""aha"":3}","[0]","../img/tt/080tt.jpg","",""
"null","<div style=""font-size:60px;""> </div>","null","fixation","html-keyboard-response","349","1356408","0.0-6.0-0.49","3366619","co37741","norming","","","","","","",""
"null","../img/tt/105tt.jpg","null","mooney1","image-keyboard-response","350","1359413","0.0-6.0-1.49","3366619","co37741","norming","","","","","","",""
"4728.235000002431","","","post_mooney1_questions","survey-likert","351","1364143","0.0-6.0-2.49","3366619","co37741","norming","","","{""curiosity"":4,""confidence"":0}","[0,1]","../img/tt/105tt.jpg","",""
"1063.2250000054482","","","recognition","survey-text","352","1365209","0.0-6.0-3.49","3366619","co37741","norming","","","{""guess"":""""}","","../img/tt/105tt.jpg","",""
"null","../img/gs/105gs.jpg","null","reveal","image-keyboard-response","353","1367215","0.0-6.0-4.49","3366619","co37741","norming","","","","","","",""
"null","../img/tt/105tt.jpg","null","mooney2","image-keyboard-response","354","1369229","0.0-6.0-5.49","3366619","co37741","norming","","","","","","",""
"3262.000000002561","","","post_reveal_questions","survey-likert","355","1372492","0.0-6.0-6.49","3366619","co37741","norming","","","{""aha"":4}","[0]","../img/tt/105tt.jpg","",""
"null","<div style=""font-size:60px;""> </div>","null","fixation","html-keyboard-response","356","1372705","0.0-6.0-0.50","3366619","co37741","norming","","","","","","",""
"null","../img/tt/112tt.jpg","null","mooney1","image-keyboard-response","357","1375712","0.0-6.0-1.50","3366619","co37741","norming","","","","","","",""
"5293.304999999236","","","post_mooney1_questions","survey-likert","358","1381006","0.0-6.0-2.50","3366619","co37741","norming","","","{""curiosity"":2,""confidence"":3}","[0,1]","../img/tt/112tt.jpg","",""
"767.1799999952782","","","recognition","survey-text","359","1381775","0.0-6.0-3.50","3366619","co37741","norming","","","{""guess"":""knife""}","","../img/tt/112tt.jpg","",""
"null","../img/gs/112gs.jpg","null","reveal","image-keyboard-response","360","1383785","0.0-6.0-4.50","3366619","co37741","norming","","","","","","",""
"null","../img/tt/112tt.jpg","null","mooney2","image-keyboard-response","361","1385788","0.0-6.0-5.50","3366619","co37741","norming","","","","","","",""
"27368.824999997625","","","post_reveal_questions","survey-likert","362","1413158","0.0-6.0-6.50","3366619","co37741","norming","","","{""aha"":3}","[0]","../img/tt/112tt.jpg","",""
"null","<div style=""font-size:60px;""> </div>","null","fixation","html-keyboard-response","363","1413371","0.0-6.0-0.51","3366619","co37741","norming","","","","","","",""
"null","../img/tt/584tt.jpg","null","mooney1","image-keyboard-response","364","1416377","0.0-6.0-1.51","3366619","co37741","norming","","","","","","",""
"6390.410000007367","","","post_mooney1_questions","survey-likert","365","1422769","0.0-6.0-2.51","3366619","co37741","norming","","","{""curiosity"":0,""confidence"":4}","[0,1]","../img/tt/584tt.jpg","",""
"1932.8750000130385","","","recognition","survey-text","366","1424703","0.0-6.0-3.51","3366619","co37741","norming","","","{""guess"":""flowers""}","","../img/tt/584tt.jpg","",""
"null","../img/gs/584gs.jpg","null","reveal","image-keyboard-response","367","1426715","0.0-6.0-4.51","3366619","co37741","norming","","","","","","",""
"null","../img/tt/584tt.jpg","null","mooney2","image-keyboard-response","368","1428728","0.0-6.0-5.51","3366619","co37741","norming","","","","","","",""
"4752.585000009276","","","post_reveal_questions","survey-likert","369","1433482","0.0-6.0-6.51","3366619","co37741","norming","","","{""aha"":1}","[0]","../img/tt/584tt.jpg","",""
"null","<div style=""font-size:60px;""> </div>","null","fixation","html-keyboard-response","370","1433697","0.0-6.0-0.52","3366619","co37741","norming","","","","","","",""
"null","../img/tt/300tt.jpg","null","mooney1","image-keyboard-response","371","1436700","0.0-6.0-1.52","3366619","co37741","norming","","","","","","",""
"10181.1699999962","","","post_mooney1_questions","survey-likert","372","1446883","0.0-6.0-2.52","3366619","co37741","norming","","","{""curiosity"":5,""confidence"":5}","[0,1]","../img/tt/300tt.jpg","",""
"2799.119999995921","","","recognition","survey-text","373","1449683","0.0-6.0-3.52","3366619","co37741","norming","","","{""guess"":""sitting woman""}","","../img/tt/300tt.jpg","",""
"null","../img/gs/300gs.jpg","null","reveal","image-keyboard-response","374","1451686","0.0-6.0-4.52","3366619","co37741","norming","","","","","","",""
"null","../img/tt/300tt.jpg","null","mooney2","image-keyboard-response","375","1453701","0.0-6.0-5.52","3366619","co37741","norming","","","","","","",""
"3626.539999997476","","","post_reveal_questions","survey-likert","376","1457329","0.0-6.0-6.52","3366619","co37741","norming","","","{""aha"":0}","[0]","../img/tt/300tt.jpg","",""
"null","<div style=""font-size:60px;""> </div>","null","fixation","html-keyboard-response","377","1457531","0.0-6.0-0.53","3366619","co37741","norming","","","","","","",""
"null","../img/tt/406tt.jpg","null","mooney1","image-keyboard-response","378","1460533","0.0-6.0-1.53","3366619","co37741","norming","","","","","","",""
"3795.2150000056718","","","post_mooney1_questions","survey-likert","379","1464330","0.0-6.0-2.53","3366619","co37741","norming","","","{""curiosity"":4,""confidence"":3}","[0,1]","../img/tt/406tt.jpg","",""
"600.3650000058115","","","recognition","survey-text","380","1464932","0.0-6.0-3.53","3366619","co37741","norming","","","{""guess"":""bat""}","","../img/tt/406tt.jpg","",""
"null","../img/gs/406gs.jpg","null","reveal","image-keyboard-response","381","1466940","0.0-6.0-4.53","3366619","co37741","norming","","","","","","",""
"null","../img/tt/406tt.jpg","null","mooney2","image-keyboard-response","382","1468949","0.0-6.0-5.53","3366619","co37741","norming","","","","","","",""
"3162.854999987874","","","post_reveal_questions","survey-likert","383","1472113","0.0-6.0-6.53","3366619","co37741","norming","","","{""aha"":0}","[0]","../img/tt/406tt.jpg","",""
"null","<div style=""font-size:60px;""> </div>","null","fixation","html-keyboard-response","384","1472327","0.0-6.0-0.54","3366619","co37741","norming","","","","","","",""
"null","../img/tt/329tt.jpg","null","mooney1","image-keyboard-response","385","1475334","0.0-6.0-1.54","3366619","co37741","norming","","","","","","",""
"4623.005000001285","","","post_mooney1_questions","survey-likert","386","1479958","0.0-6.0-2.54","3366619","co37741","norming","","","{""curiosity"":5,""confidence"":2}","[0,1]","../img/tt/329tt.jpg","",""
"788.5749999985565","","","recognition","survey-text","387","1480748","0.0-6.0-3.54","3366619","co37741","norming","","","{""guess"":""chair""}","","../img/tt/329tt.jpg","",""
"null","../img/gs/329gs.jpg","null","reveal","image-keyboard-response","388","1482758","0.0-6.0-4.54","3366619","co37741","norming","","","","","","",""
"null","../img/tt/329tt.jpg","null","mooney2","image-keyboard-response","389","1484761","0.0-6.0-5.54","3366619","co37741","norming","","","","","","",""
"4769.385000006994","","","post_reveal_questions","survey-likert","390","1489531","0.0-6.0-6.54","3366619","co37741","norming","","","{""aha"":4}","[0]","../img/tt/329tt.jpg","",""
"null","<div style=""font-size:60px;""> </div>","null","fixation","html-keyboard-response","391","1489732","0.0-6.0-0.55","3366619","co37741","norming","","","","","","",""
"null","../img/tt/418tt.jpg","null","mooney1","image-keyboard-response","392","1492737","0.0-6.0-1.55","3366619","co37741","norming","","","","","","",""
"3433.9299999992363","","","post_mooney1_questions","survey-likert","393","1496172","0.0-6.0-2.55","3366619","co37741","norming","","","{""curiosity"":5,""confidence"":1}","[0,1]","../img/tt/418tt.jpg","",""
"1417.4800000037067","","","recognition","survey-text","394","1497591","0.0-6.0-3.55","3366619","co37741","norming","","","{""guess"":""sloth""}","","../img/tt/418tt.jpg","",""
"null","../img/gs/418gs.jpg","null","reveal","image-keyboard-response","395","1499599","0.0-6.0-4.55","3366619","co37741","norming","","","","","","",""
"null","../img/tt/418tt.jpg","null","mooney2","image-keyboard-response","396","1501602","0.0-6.0-5.55","3366619","co37741","norming","","","","","","",""
"3103.5050000064075","","","post_reveal_questions","survey-likert","397","1504707","0.0-6.0-6.55","3366619","co37741","norming","","","{""aha"":5}","[0]","../img/tt/418tt.jpg","",""
"null","<div style=""font-size:60px;""> </div>","null","fixation","html-keyboard-response","398","1504923","0.0-6.0-0.56","3366619","co37741","norming","","","","","","",""
"null","../img/tt/1196tt.jpg","null","mooney1","image-keyboard-response","399","1507937","0.0-6.0-1.56","3366619","co37741","norming","","","","","","",""
"3870.0650000101887","","","post_mooney1_questions","survey-likert","400","1511809","0.0-6.0-2.56","3366619","co37741","norming","","","{""curiosity"":3,""confidence"":0}","[0,1]","../img/tt/1196tt.jpg","",""
"794.3749999976717","","","recognition","survey-text","401","1512606","0.0-6.0-3.56","3366619","co37741","norming","","","{""guess"":""""}","","../img/tt/1196tt.jpg","",""
"null","../img/gs/1196gs.jpg","null","reveal","image-keyboard-response","402","1514621","0.0-6.0-4.56","3366619","co37741","norming","","","","","","",""
"null","../img/tt/1196tt.jpg","null","mooney2","image-keyboard-response","403","1516650","0.0-6.0-5.56","3366619","co37741","norming","","","","","","",""
"2488.615000009071","","","post_reveal_questions","survey-likert","404","1519141","0.0-6.0-6.56","3366619","co37741","norming","","","{""aha"":2}","[0]","../img/tt/1196tt.jpg","",""
"null","<div style=""font-size:60px;""> </div>","null","fixation","html-keyboard-response","405","1519355","0.0-6.0-0.57","3366619","co37741","norming","","","","","","",""
"null","../img/tt/1142tt.jpg","null","mooney1","image-keyboard-response","406","1522359","0.0-6.0-1.57","3366619","co37741","norming","","","","","","",""
"4462.650000001304","","","post_mooney1_questions","survey-likert","407","1526823","0.0-6.0-2.57","3366619","co37741","norming","","","{""curiosity"":4,""confidence"":3}","[0,1]","../img/tt/1142tt.jpg","",""
"962.2999999991152","","","recognition","survey-text","408","1527787","0.0-6.0-3.57","3366619","co37741","norming","","","{""guess"":""tennis""}","","../img/tt/1142tt.jpg","",""
"null","../img/gs/1142gs.jpg","null","reveal","image-keyboard-response","409","1529799","0.0-6.0-4.57","3366619","co37741","norming","","","","","","",""
"null","../img/tt/1142tt.jpg","null","mooney2","image-keyboard-response","410","1531803","0.0-6.0-5.57","3366619","co37741","norming","","","","","","",""
"2883.464999991469","","","post_reveal_questions","survey-likert","411","1534688","0.0-6.0-6.57","3366619","co37741","norming","","","{""aha"":1}","[0]","../img/tt/1142tt.jpg","",""
"null","<div style=""font-size:60px;""> </div>","null","fixation","html-keyboard-response","412","1534907","0.0-6.0-0.58","3366619","co37741","norming","","","","","","",""
"null","../img/tt/1173tt.jpg","null","mooney1","image-keyboard-response","413","1537909","0.0-6.0-1.58","3366619","co37741","norming","","","","","","",""
"3726.7049999935552","","","post_mooney1_questions","survey-likert","414","1541637","0.0-6.0-2.58","3366619","co37741","norming","","","{""curiosity"":2,""confidence"":3}","[0,1]","../img/tt/1173tt.jpg","",""
"1093.0649999936577","","","recognition","survey-text","415","1542731","0.0-6.0-3.58","3366619","co37741","norming","","","{""guess"":""runner""}","","../img/tt/1173tt.jpg","",""
"null","../img/gs/1173gs.jpg","null","reveal","image-keyboard-response","416","1544743","0.0-6.0-4.58","3366619","co37741","norming","","","","","","",""
"null","../img/tt/1173tt.jpg","null","mooney2","image-keyboard-response","417","1546754","0.0-6.0-5.58","3366619","co37741","norming","","","","","","",""
"2345.4000000057276","","","post_reveal_questions","survey-likert","418","1549100","0.0-6.0-6.58","3366619","co37741","norming","","","{""aha"":3}","[0]","../img/tt/1173tt.jpg","",""
"null","<div style=""font-size:60px;""> </div>","null","fixation","html-keyboard-response","419","1549302","0.0-6.0-0.59","3366619","co37741","norming","","","","","","",""
"null","../img/tt/416tt.jpg","null","mooney1","image-keyboard-response","420","1552311","0.0-6.0-1.59","3366619","co37741","norming","","","","","","",""
"5072.720000011148","","","post_mooney1_questions","survey-likert","421","1557385","0.0-6.0-2.59","3366619","co37741","norming","","","{""curiosity"":5,""confidence"":2}","[0,1]","../img/tt/416tt.jpg","",""
"1383.8049999903888","","","recognition","survey-text","422","1558771","0.0-6.0-3.59","3366619","co37741","norming","","","{""guess"":""swan""}","","../img/tt/416tt.jpg","",""
"null","../img/gs/416gs.jpg","null","reveal","image-keyboard-response","423","1560779","0.0-6.0-4.59","3366619","co37741","norming","","","","","","",""
"null","../img/tt/416tt.jpg","null","mooney2","image-keyboard-response","424","1562794","0.0-6.0-5.59","3366619","co37741","norming","","","","","","",""
"2888.7199999880977","","","post_reveal_questions","survey-likert","425","1565684","0.0-6.0-6.59","3366619","co37741","norming","","","{""aha"":3}","[0]","../img/tt/416tt.jpg","",""
"null","<div style=""font-size:60px;""> </div>","null","fixation","html-keyboard-response","426","1565899","0.0-6.0-0.60","3366619","co37741","norming","","","","","","",""
"null","../img/tt/1241tt.jpg","null","mooney1","image-keyboard-response","427","1568911","0.0-6.0-1.60","3366619","co37741","norming","","","","","","",""
"5088.0000000034925","","","post_mooney1_questions","survey-likert","428","1574000","0.0-6.0-2.60","3366619","co37741","norming","","","{""curiosity"":3,""confidence"":4}","[0,1]","../img/tt/1241tt.jpg","",""
"809.6649999932852","","","recognition","survey-text","429","1574812","0.0-6.0-3.60","3366619","co37741","norming","","","{""guess"":""tiger""}","","../img/tt/1241tt.jpg","",""
"null","../img/gs/1241gs.jpg","null","reveal","image-keyboard-response","430","1576816","0.0-6.0-4.60","3366619","co37741","norming","","","","","","",""
"null","../img/tt/1241tt.jpg","null","mooney2","image-keyboard-response","431","1578822","0.0-6.0-5.60","3366619","co37741","norming","","","","","","",""
"4692.515000002459","","","post_reveal_questions","survey-likert","432","1583515","0.0-6.0-6.60","3366619","co37741","norming","","","{""aha"":1}","[0]","../img/tt/1241tt.jpg","",""
"null","<div style=""font-size:60px;""> </div>","null","fixation","html-keyboard-response","433","1583717","0.0-6.0-0.61","3366619","co37741","norming","","","","","","",""
"null","../img/tt/001tt.jpg","null","mooney1","image-keyboard-response","434","1586719","0.0-6.0-1.61","3366619","co37741","norming","","","","","","",""
"5694.034999993164","","","post_mooney1_questions","survey-likert","435","1592414","0.0-6.0-2.61","3366619","co37741","norming","","","{""curiosity"":5,""confidence"":1}","[0,1]","../img/tt/001tt.jpg","",""
"6272.9649999963585","","","recognition","survey-text","436","1598689","0.0-6.0-3.61","3366619","co37741","norming","","","{""guess"":""cow""}","","../img/tt/001tt.jpg","",""
"null","../img/gs/001gs.jpg","null","reveal","image-keyboard-response","437","1600701","0.0-6.0-4.61","3366619","co37741","norming","","","","","","",""
"null","../img/tt/001tt.jpg","null","mooney2","image-keyboard-response","438","1602713","0.0-6.0-5.61","3366619","co37741","norming","","","","","","",""
"2651.454999999143","","","post_reveal_questions","survey-likert","439","1605366","0.0-6.0-6.61","3366619","co37741","norming","","","{""aha"":4}","[0]","../img/tt/001tt.jpg","",""
"null","<div style=""font-size:60px;""> </div>","null","fixation","html-keyboard-response","440","1605591","0.0-6.0-0.62","3366619","co37741","norming","","","","","","",""
"null","../img/tt/1242tt.jpg","null","mooney1","image-keyboard-response","441","1608600","0.0-6.0-1.62","3366619","co37741","norming","","","","","","",""
"3827.4850000014994","","","post_mooney1_questions","survey-likert","442","1612429","0.0-6.0-2.62","3366619","co37741","norming","","","{""curiosity"":4,""confidence"":2}","[0,1]","../img/tt/1242tt.jpg","",""
"5108.940000005532","","","recognition","survey-text","443","1617539","0.0-6.0-3.62","3366619","co37741","norming","","","{""guess"":""wolf""}","","../img/tt/1242tt.jpg","",""
"null","../img/gs/1242gs.jpg","null","reveal","image-keyboard-response","444","1619555","0.0-6.0-4.62","3366619","co37741","norming","","","","","","",""
"null","../img/tt/1242tt.jpg","null","mooney2","image-keyboard-response","445","1621567","0.0-6.0-5.62","3366619","co37741","norming","","","","","","",""
"4176.579999999376","","","post_reveal_questions","survey-likert","446","1625745","0.0-6.0-6.62","3366619","co37741","norming","","","{""aha"":4}","[0]","../img/tt/1242tt.jpg","",""
"null","<div style=""font-size:60px;""> </div>","null","fixation","html-keyboard-response","447","1625957","0.0-6.0-0.63","3366619","co37741","norming","","","","","","",""
"null","../img/tt/306tt.jpg","null","mooney1","image-keyboard-response","448","1628970","0.0-6.0-1.63","3366619","co37741","norming","","","","","","",""
"3576.4549999875017","","","post_mooney1_questions","survey-likert","449","1632549","0.0-6.0-2.63","3366619","co37741","norming","","","{""curiosity"":6,""confidence"":0}","[0,1]","../img/tt/306tt.jpg","",""
"1572.1800000029616","","","recognition","survey-text","450","1634123","0.0-6.0-3.63","3366619","co37741","norming","","","{""guess"":""""}","","../img/tt/306tt.jpg","",""
"null","../img/gs/306gs.jpg","null","reveal","image-keyboard-response","451","1636138","0.0-6.0-4.63","3366619","co37741","norming","","","","","","",""
"null","../img/tt/306tt.jpg","null","mooney2","image-keyboard-response","452","1638140","0.0-6.0-5.63","3366619","co37741","norming","","","","","","",""
"2150.3450000018347","","","post_reveal_questions","survey-likert","453","1640292","0.0-6.0-6.63","3366619","co37741","norming","","","{""aha"":5}","[0]","../img/tt/306tt.jpg","",""
"null","<div style=""font-size:60px;""> </div>","null","fixation","html-keyboard-response","454","1640506","0.0-6.0-0.64","3366619","co37741","norming","","","","","","",""
"null","../img/tt/163tt.jpg","null","mooney1","image-keyboard-response","455","1643514","0.0-6.0-1.64","3366619","co37741","norming","","","","","","",""
"4274.535000004107","","","post_mooney1_questions","survey-likert","456","1647790","0.0-6.0-2.64","3366619","co37741","norming","","","{""curiosity"":5,""confidence"":0}","[0,1]","../img/tt/163tt.jpg","",""
"780.3149999962188","","","recognition","survey-text","457","1648572","0.0-6.0-3.64","3366619","co37741","norming","","","{""guess"":""""}","","../img/tt/163tt.jpg","",""
"null","../img/gs/163gs.jpg","null","reveal","image-keyboard-response","458","1650584","0.0-6.0-4.64","3366619","co37741","norming","","","","","","",""
"null","../img/tt/163tt.jpg","null","mooney2","image-keyboard-response","459","1652595","0.0-6.0-5.64","3366619","co37741","norming","","","","","","",""
"4623.550000004005","","","post_reveal_questions","survey-likert","460","1657220","0.0-6.0-6.64","3366619","co37741","norming","","","{""aha"":2}","[0]","../img/tt/163tt.jpg","",""
"null","<div style=""font-size:60px;""> </div>","null","fixation","html-keyboard-response","461","1657436","0.0-6.0-0.65","3366619","co37741","norming","","","","","","",""
"null","../img/tt/1033tt.jpg","null","mooney1","image-keyboard-response","462","1660438","0.0-6.0-1.65","3366619","co37741","norming","","","","","","",""
"11846.609999993118","","","post_mooney1_questions","survey-likert","463","1672286","0.0-6.0-2.65","3366619","co37741","norming","","","{""curiosity"":2,""confidence"":3}","[0,1]","../img/tt/1033tt.jpg","",""
"1368.809999999823","","","recognition","survey-text","464","1673656","0.0-6.0-3.65","3366619","co37741","norming","","","{""guess"":""softball""}","","../img/tt/1033tt.jpg","",""
"null","../img/gs/1033gs.jpg","null","reveal","image-keyboard-response","465","1675689","0.0-6.0-4.65","3366619","co37741","norming","","","","","","",""
"null","../img/tt/1033tt.jpg","null","mooney2","image-keyboard-response","466","1677693","0.0-6.0-5.65","3366619","co37741","norming","","","","","","",""
"14040.995000003139","","","post_reveal_questions","survey-likert","467","1691735","0.0-6.0-6.65","3366619","co37741","norming","","","{""aha"":0}","[0]","../img/tt/1033tt.jpg","",""
"null","<div style=""font-size:60px;""> </div>","null","fixation","html-keyboard-response","468","1691948","0.0-6.0-0.66","3366619","co37741","norming","","","","","","",""
"null","../img/tt/590tt.jpg","null","mooney1","image-keyboard-response","469","1694950","0.0-6.0-1.66","3366619","co37741","norming","","","","","","",""
"4573.714999991236","","","post_mooney1_questions","survey-likert","470","1699525","0.0-6.0-2.66","3366619","co37741","norming","","","{""curiosity"":5,""confidence"":1}","[0,1]","../img/tt/590tt.jpg","",""
"1768.9200000022538","","","recognition","survey-text","471","1701295","0.0-6.0-3.66","3366619","co37741","norming","","","{""guess"":""table""}","","../img/tt/590tt.jpg","",""
"null","../img/gs/590gs.jpg","null","reveal","image-keyboard-response","472","1703310","0.0-6.0-4.66","3366619","co37741","norming","","","","","","",""
"null","../img/tt/590tt.jpg","null","mooney2","image-keyboard-response","473","1705334","0.0-6.0-5.66","3366619","co37741","norming","","","","","","",""
"2397.3599999879953","","","post_reveal_questions","survey-likert","474","1707733","0.0-6.0-6.66","3366619","co37741","norming","","","{""aha"":5}","[0]","../img/tt/590tt.jpg","",""
"null","<div style=""font-size:60px;""> </div>","null","fixation","html-keyboard-response","475","1707946","0.0-6.0-0.67","3366619","co37741","norming","","","","","","",""
"null","../img/tt/436tt.jpg","null","mooney1","image-keyboard-response","476","1710954","0.0-6.0-1.67","3366619","co37741","norming","","","","","","",""
"4613.484999994282","","","post_mooney1_questions","survey-likert","477","1715569","0.0-6.0-2.67","3366619","co37741","norming","","","{""curiosity"":3,""confidence"":0}","[0,1]","../img/tt/436tt.jpg","",""
"984.125000002794","","","recognition","survey-text","478","1716555","0.0-6.0-3.67","3366619","co37741","norming","","","{""guess"":""""}","","../img/tt/436tt.jpg","",""
"null","../img/gs/436gs.jpg","null","reveal","image-keyboard-response","479","1718569","0.0-6.0-4.67","3366619","co37741","norming","","","","","","",""
"null","../img/tt/436tt.jpg","null","mooney2","image-keyboard-response","480","1720576","0.0-6.0-5.67","3366619","co37741","norming","","","","","","",""
"2469.1550000132993","","","post_reveal_questions","survey-likert","481","1723046","0.0-6.0-6.67","3366619","co37741","norming","","","{""aha"":4}","[0]","../img/tt/436tt.jpg","",""
"null","<div style=""font-size:60px;""> </div>","null","fixation","html-keyboard-response","482","1723248","0.0-6.0-0.68","3366619","co37741","norming","","","","","","",""
"null","../img/tt/064tt.jpg","null","mooney1","image-keyboard-response","483","1726264","0.0-6.0-1.68","3366619","co37741","norming","","","","","","",""
"4080.8649999962654","","","post_mooney1_questions","survey-likert","484","1730346","0.0-6.0-2.68","3366619","co37741","norming","","","{""curiosity"":2,""confidence"":5}","[0,1]","../img/tt/064tt.jpg","",""
"714.754999993369","","","recognition","survey-text","485","1731062","0.0-6.0-3.68","3366619","co37741","norming","","","{""guess"":""turle""}","","../img/tt/064tt.jpg","",""
"null","../img/gs/064gs.jpg","null","reveal","image-keyboard-response","486","1733072","0.0-6.0-4.68","3366619","co37741","norming","","","","","","",""
"null","../img/tt/064tt.jpg","null","mooney2","image-keyboard-response","487","1735080","0.0-6.0-5.68","3366619","co37741","norming","","","","","","",""
"3549.924999999348","","","post_reveal_questions","survey-likert","488","1738631","0.0-6.0-6.68","3366619","co37741","norming","","","{""aha"":1}","[0]","../img/tt/064tt.jpg","",""
"null","<div style=""font-size:60px;""> </div>","null","fixation","html-keyboard-response","489","1738841","0.0-6.0-0.69","3366619","co37741","norming","","","","","","",""
"null","../img/tt/307tt.jpg","null","mooney1","image-keyboard-response","490","1741853","0.0-6.0-1.69","3366619","co37741","norming","","","","","","",""
"3754.499999995576","","","post_mooney1_questions","survey-likert","491","1745610","0.0-6.0-2.69","3366619","co37741","norming","","","{""curiosity"":4,""confidence"":2}","[0,1]","../img/tt/307tt.jpg","",""
"2292.014999999199","","","recognition","survey-text","492","1747904","0.0-6.0-3.69","3366619","co37741","norming","","","{""guess"":""bell""}","","../img/tt/307tt.jpg","",""
"null","../img/gs/307gs.jpg","null","reveal","image-keyboard-response","493","1749912","0.0-6.0-4.69","3366619","co37741","norming","","","","","","",""
"null","../img/tt/307tt.jpg","null","mooney2","image-keyboard-response","494","1751944","0.0-6.0-5.69","3366619","co37741","norming","","","","","","",""
"2167.5599999870174","","","post_reveal_questions","survey-likert","495","1754112","0.0-6.0-6.69","3366619","co37741","norming","","","{""aha"":6}","[0]","../img/tt/307tt.jpg","",""
"null","<div style=""font-size:60px;""> </div>","null","fixation","html-keyboard-response","496","1754326","0.0-6.0-0.70","3366619","co37741","norming","","","","","","",""
"null","../img/tt/1146tt.jpg","null","mooney1","image-keyboard-response","497","1757342","0.0-6.0-1.70","3366619","co37741","norming","","","","","","",""
"3831.3500000077765","","","post_mooney1_questions","survey-likert","498","1761175","0.0-6.0-2.70","3366619","co37741","norming","","","{""curiosity"":1,""confidence"":3}","[0,1]","../img/tt/1146tt.jpg","",""
"3991.6200000005774","","","recognition","survey-text","499","1765169","0.0-6.0-3.70","3366619","co37741","norming","","","{""guess"":""crossbow""}","","../img/tt/1146tt.jpg","",""
"null","../img/gs/1146gs.jpg","null","reveal","image-keyboard-response","500","1767172","0.0-6.0-4.70","3366619","co37741","norming","","","","","","",""
"null","../img/tt/1146tt.jpg","null","mooney2","image-keyboard-response","501","1769183","0.0-6.0-5.70","3366619","co37741","norming","","","","","","",""
"4854.120000003371","","","post_reveal_questions","survey-likert","502","1774038","0.0-6.0-6.70","3366619","co37741","norming","","","{""aha"":0}","[0]","../img/tt/1146tt.jpg","",""
"null","<div style=""font-size:60px;""> </div>","null","fixation","html-keyboard-response","503","1774254","0.0-6.0-0.71","3366619","co37741","norming","","","","","","",""
"null","../img/tt/1069tt.jpg","null","mooney1","image-keyboard-response","504","1777259","0.0-6.0-1.71","3366619","co37741","norming","","","","","","",""
"28058.709999997634","","","post_mooney1_questions","survey-likert","505","1805319","0.0-6.0-2.71","3366619","co37741","norming","","","{""curiosity"":4,""confidence"":2}","[0,1]","../img/tt/1069tt.jpg","",""
"732.1050000027753","","","recognition","survey-text","506","1806053","0.0-6.0-3.71","3366619","co37741","norming","","","{""guess"":""ram""}","","../img/tt/1069tt.jpg","",""
"null","../img/gs/1069gs.jpg","null","reveal","image-keyboard-response","507","1808067","0.0-6.0-4.71","3366619","co37741","norming","","","","","","",""
"null","../img/tt/1069tt.jpg","null","mooney2","image-keyboard-response","508","1810083","0.0-6.0-5.71","3366619","co37741","norming","","","","","","",""
"3302.1500000031665","","","post_reveal_questions","survey-likert","509","1813386","0.0-6.0-6.71","3366619","co37741","norming","","","{""aha"":0}","[0]","../img/tt/1069tt.jpg","",""
"null","<div style=""font-size:60px;""> </div>","null","fixation","html-keyboard-response","510","1813599","0.0-6.0-0.72","3366619","co37741","norming","","","","","","",""
"null","../img/tt/1101tt.jpg","null","mooney1","image-keyboard-response","511","1816604","0.0-6.0-1.72","3366619","co37741","norming","","","","","","",""
"5379.264999995939","","","post_mooney1_questions","survey-likert","512","1821985","0.0-6.0-2.72","3366619","co37741","norming","","","{""curiosity"":2,""confidence"":4}","[0,1]","../img/tt/1101tt.jpg","",""
"1858.2650000024587","","","recognition","survey-text","513","1823845","0.0-6.0-3.72","3366619","co37741","norming","","","{""guess"":""sleeping person""}","","../img/tt/1101tt.jpg","",""
"null","../img/gs/1101gs.jpg","null","reveal","image-keyboard-response","514","1825849","0.0-6.0-4.72","3366619","co37741","norming","","","","","","",""
"null","../img/tt/1101tt.jpg","null","mooney2","image-keyboard-response","515","1827866","0.0-6.0-5.72","3366619","co37741","norming","","","","","","",""
"24198.050000006333","","","post_reveal_questions","survey-likert","516","1852065","0.0-6.0-6.72","3366619","co37741","norming","","","{""aha"":4}","[0]","../img/tt/1101tt.jpg","",""
"null","<div style=""font-size:60px;""> </div>","null","fixation","html-keyboard-response","517","1852277","0.0-6.0-0.73","3366619","co37741","norming","","","","","","",""
"null","../img/tt/497tt.jpg","null","mooney1","image-keyboard-response","518","1855279","0.0-6.0-1.73","3366619","co37741","norming","","","","","","",""
"12597.850000005681","","","post_mooney1_questions","survey-likert","519","1867879","0.0-6.0-2.73","3366619","co37741","norming","","","{""curiosity"":4,""confidence"":4}","[0,1]","../img/tt/497tt.jpg","",""
"835.5700000103097","","","recognition","survey-text","520","1868716","0.0-6.0-3.73","3366619","co37741","norming","","","{""guess"":""wheel""}","","../img/tt/497tt.jpg","",""
"null","../img/gs/497gs.jpg","null","reveal","image-keyboard-response","521","1870722","0.0-6.0-4.73","3366619","co37741","norming","","","","","","",""
"null","../img/tt/497tt.jpg","null","mooney2","image-keyboard-response","522","1872735","0.0-6.0-5.73","3366619","co37741","norming","","","","","","",""
"2040.4999999883585","","","post_reveal_questions","survey-likert","523","1874777","0.0-6.0-6.73","3366619","co37741","norming","","","{""aha"":4}","[0]","../img/tt/497tt.jpg","",""
"null","<div style=""font-size:60px;""> </div>","null","fixation","html-keyboard-response","524","1874992","0.0-6.0-0.74","3366619","co37741","norming","","","","","","",""
"null","../img/tt/222tt.jpg","null","mooney1","image-keyboard-response","525","1877997","0.0-6.0-1.74","3366619","co37741","norming","","","","","","",""
"3553.2950000050478","","","post_mooney1_questions","survey-likert","526","1881552","0.0-6.0-2.74","3366619","co37741","norming","","","{""curiosity"":2,""confidence"":2}","[0,1]","../img/tt/222tt.jpg","",""
"809.3800000059418","","","recognition","survey-text","527","1882363","0.0-6.0-3.74","3366619","co37741","norming","","","{""guess"":""boat""}","","../img/tt/222tt.jpg","",""
"null","../img/gs/222gs.jpg","null","reveal","image-keyboard-response","528","1884374","0.0-6.0-4.74","3366619","co37741","norming","","","","","","",""
"null","../img/tt/222tt.jpg","null","mooney2","image-keyboard-response","529","1886376","0.0-6.0-5.74","3366619","co37741","norming","","","","","","",""
"3628.7399999999907","","","post_reveal_questions","survey-likert","530","1890006","0.0-6.0-6.74","3366619","co37741","norming","","","{""aha"":2}","[0]","../img/tt/222tt.jpg","",""
"null","<div style=""font-size:60px;""> </div>","null","fixation","html-keyboard-response","531","1890223","0.0-6.0-0.75","3366619","co37741","norming","","","","","","",""
"null","../img/tt/036tt.jpg","null","mooney1","image-keyboard-response","532","1893239","0.0-6.0-1.75","3366619","co37741","norming","","","","","","",""
"5736.765000008745","","","post_mooney1_questions","survey-likert","533","1898977","0.0-6.0-2.75","3366619","co37741","norming","","","{""curiosity"":4,""confidence"":0}","[0,1]","../img/tt/036tt.jpg","",""
"7566.174999999814","","","recognition","survey-text","534","1906545","0.0-6.0-3.75","3366619","co37741","norming","","","{""guess"":""metal band""}","","../img/tt/036tt.jpg","",""
"null","../img/gs/036gs.jpg","null","reveal","image-keyboard-response","535","1908555","0.0-6.0-4.75","3366619","co37741","norming","","","","","","",""
"null","../img/tt/036tt.jpg","null","mooney2","image-keyboard-response","536","1910563","0.0-6.0-5.75","3366619","co37741","norming","","","","","","",""
"3309.3400000070687","","","post_reveal_questions","survey-likert","537","1913873","0.0-6.0-6.75","3366619","co37741","norming","","","{""aha"":6}","[0]","../img/tt/036tt.jpg","",""
"null","<div style=""font-size:60px;""> </div>","null","fixation","html-keyboard-response","538","1914086","0.0-6.0-0.76","3366619","co37741","norming","","","","","","",""
"null","../img/tt/522tt.jpg","null","mooney1","image-keyboard-response","539","1917098","0.0-6.0-1.76","3366619","co37741","norming","","","","","","",""
"5751.130000004079","","","post_mooney1_questions","survey-likert","540","1922851","0.0-6.0-2.76","3366619","co37741","norming","","","{""curiosity"":5,""confidence"":2}","[0,1]","../img/tt/522tt.jpg","",""
"3193.859999999404","","","recognition","survey-text","541","1926047","0.0-6.0-3.76","3366619","co37741","norming","","","{""guess"":""turtle""}","","../img/tt/522tt.jpg","",""
"null","../img/gs/522gs.jpg","null","reveal","image-keyboard-response","542","1928057","0.0-6.0-4.76","3366619","co37741","norming","","","","","","",""
"null","../img/tt/522tt.jpg","null","mooney2","image-keyboard-response","543","1930071","0.0-6.0-5.76","3366619","co37741","norming","","","","","","",""
"4230.5449999985285","","","post_reveal_questions","survey-likert","544","1934303","0.0-6.0-6.76","3366619","co37741","norming","","","{""aha"":3}","[0]","../img/tt/522tt.jpg","",""
"null","<div style=""font-size:60px;""> </div>","null","fixation","html-keyboard-response","545","1934518","0.0-6.0-0.77","3366619","co37741","norming","","","","","","",""
"null","../img/tt/1161tt.jpg","null","mooney1","image-keyboard-response","546","1937534","0.0-6.0-1.77","3366619","co37741","norming","","","","","","",""
"3732.654999999795","","","post_mooney1_questions","survey-likert","547","1941268","0.0-6.0-2.77","3366619","co37741","norming","","","{""curiosity"":4,""confidence"":1}","[0,1]","../img/tt/1161tt.jpg","",""
"743.0100000055972","","","recognition","survey-text","548","1942013","0.0-6.0-3.77","3366619","co37741","norming","","","{""guess"":""panda""}","","../img/tt/1161tt.jpg","",""
"null","../img/gs/1161gs.jpg","null","reveal","image-keyboard-response","549","1944025","0.0-6.0-4.77","3366619","co37741","norming","","","","","","",""
"null","../img/tt/1161tt.jpg","null","mooney2","image-keyboard-response","550","1946026","0.0-6.0-5.77","3366619","co37741","norming","","","","","","",""
"3621.8149999913294","","","post_reveal_questions","survey-likert","551","1949649","0.0-6.0-6.77","3366619","co37741","norming","","","{""aha"":5}","[0]","../img/tt/1161tt.jpg","",""
