"rt","stimulus","key_press","test_part","trial_type","trial_index","time_elapsed","internal_node_id","totalTime","subject","experiment_name","button_pressed","success","responses","question_order","currentStim","old","correct"
"7414.624999975786","Welcome to the experiment. This is an online experiment so please don't close the tab/window until we say goodbye.  Press any key to begin.","32","instructions","html-keyboard-response","0","7464","0.0-0.0","3811872","co37828","norming","","","","","","",""
"105215.77999996953","<div style='word-wrap: break-word; width: 900px'><h3>Please consider this information carefully before deciding whether to participate in this research</h3><ul style='text-align: left; font-size: .8em;'><li><b>Purpose of the research</b>: To examine how people process images.</li><li><b>What you will do in this research</b>:  Stimuli (images) will be presented on the computer and you will be asked different questions about them.</li><li><b>Time required</b>: Participation will take between 45 and 60 minutes to complete.</li><li><b>Risks</b>:  There are no anticipated risks associated with participating in this study. The effects of participating should be comparable to those you would experience from viewing a computer monitor for 30 minutes and using a mouse or keyboard.</li><li><b>Benefits</b>:  This study provides no benefits to you individually except for the credit. The study provides important information about the nature of perception and learning.</li><li><b>Confidentiality</b>:  Your participation in this study will remain confidential. No personally identifiable information will be associated with your data. Your de-identified data may be shared with other researchers and used in future projects.</li><li><b>Participation and withdrawal</b>:  Your participation in this study is completely voluntary and you may refuse to participate or you may choose to withdraw at any time without penalty.</li><li><b>How to contact the researchers</b>: If you have questions or concerns about your participation or payment, or want to request a summary of research findings, please contact Sander Van de Cruys (KU Leuven), at sander.vandecruys@kuleuven.be.</li></ul><p>The nature and purpose of this research have been sufficiently explained and I agree to participate in this study.  I understand that I am free to withdraw at any time without incurring any penalty.</p><p>Please consent by clicking the button below to continue. Otherwise, please exit the study at this time.</p></div>","","instructions","html-button-response","1","112684","0.0-1.0","3811872","co37828","norming","0","","","","","",""
"","","","instructions","fullscreen","2","117601","0.0-2.0","3811872","co37828","norming","","true","","","","",""
"47146.85500005726","","","sona","survey-html-form","3","164758","0.0-3.0","3811872","co37828","norming","","","[{""name"":""sonaid"",""value"":""37828""},{""name"":""debrief"",""value"":""no""},{""name"":""datajoin"",""value"":""yes""}]","","","",""
"2778.5200000507757","<div style='word-wrap: break-word; width: 900px'><h3>Instructions</h3><p>This experiment will have 3 parts. In the first part you will see a series of distorted images like the one below on the left. As you can see in the righthand image, the distorted images are derived from actual photographs. In what follows, you will <strong>briefly</strong> be presented with <strong>only</strong> the distorted image.</p> <div style='float: left; margin-right: 20px;'><img src='../img/018tt.jpg' height='250' width='250'></img></div><div style='float: right; margin-left: 20px;'><img src='../img/018gs.jpg' height='250' width='250'></img></div><p>Subsequently you will be asked a few questions about the image: One question on how <strong>curious</strong> you are about the solution and one on how <strong>confident</strong> you are that you know the solution.</p>Next, we ask you to make a guess on what is in the image. Note that it is OK to name just the <strong>basic level category</strong>. For example when you see a parrot in the image, 'parrot' will obviously be a correct answer but also correct is 'bird'. However, 'animal' will <strong>not</strong> be counted as a correct response. For the example above, 'rose' would be correct or 'flower', but not 'plant'. When soccer players are depicted, 'soccer', 'football', 'soccer players' will be correct, but not 'humans', 'outdoors', or 'sports'. You do not need to describe the image in full, just name the main object in it <strong>in one or two words</strong>. All images depict objects from one of the following broad level categories: animals, inanimate objects, plants, sports, vehicles, and food. Recognizing means knowing <strong>more</strong> than these broad labels for a given image. But we always encourage you to <strong>make a guess</strong> if you can. Note that you are allowed to use <strong>Dutch and English</strong> in your answers, whatever comes easiest for you.</p><p>Press any key to continue.</p></div>","40","instructions","html-keyboard-response","4","167546","0.0-4.0","3811872","co37828","norming","","","","","","",""
"2046.0250000469387","<div style='word-wrap: break-word; width: 900px'><h3>Instructions</h3> <p>Next, the solution image will be revealed to you and you'll be asked to indicate how strong your <strong>aha-experience</strong> was after seeing the solution. This describes the positive feeling of the 'click' you sometimes experience, when the pieces of the 'puzzle' fall together and you suddenly have 'insight' in the image.</p><img src='aha.jpg' height='188' width='250'></img><p>Note that there are no right or wrong answers. We are interested in what <strong>you</strong> see in the image and how <strong>you</strong> feel about it.</p><p>Press any key to start the experiment.</p></div>","37","instructions","html-keyboard-response","5","169595","0.0-5.0","3811872","co37828","norming","","","","","","",""
"null","<div style=""font-size:60px;""> </div>","null","fixation","html-keyboard-response","6","169803","0.0-6.0-0.0","3811872","co37828","norming","","","","","","",""
"null","../img/tt/517tt.jpg","null","mooney1","image-keyboard-response","7","172814","0.0-6.0-1.0","3811872","co37828","norming","","","","","","",""
"40511.21999998577","","","post_mooney1_questions","survey-likert","8","213331","0.0-6.0-2.0","3811872","co37828","norming","","","{""curiosity"":6,""confidence"":5}","[0,1]","../img/tt/517tt.jpg","",""
"12475.804999936372","","","recognition","survey-text","9","225817","0.0-6.0-3.0","3811872","co37828","norming","","","{""guess"":""E.T.""}","","../img/tt/517tt.jpg","",""
"null","../img/gs/517gs.jpg","null","reveal","image-keyboard-response","10","227825","0.0-6.0-4.0","3811872","co37828","norming","","","","","","",""
"null","../img/tt/517tt.jpg","null","mooney2","image-keyboard-response","11","229831","0.0-6.0-5.0","3811872","co37828","norming","","","","","","",""
"12244.22999995295","","","post_reveal_questions","survey-likert","12","242081","0.0-6.0-6.0","3811872","co37828","norming","","","{""aha"":6}","[0]","../img/tt/517tt.jpg","",""
"null","<div style=""font-size:60px;""> </div>","null","fixation","html-keyboard-response","13","242288","0.0-6.0-0.1","3811872","co37828","norming","","","","","","",""
"null","../img/tt/007tt.jpg","null","mooney1","image-keyboard-response","14","245294","0.0-6.0-1.1","3811872","co37828","norming","","","","","","",""
"9655.014999909326","","","post_mooney1_questions","survey-likert","15","254952","0.0-6.0-2.1","3811872","co37828","norming","","","{""curiosity"":6,""confidence"":0}","[0,1]","../img/tt/007tt.jpg","",""
"24689.834999968298","","","recognition","survey-text","16","279650","0.0-6.0-3.1","3811872","co37828","norming","","","{""guess"":""sealion""}","","../img/tt/007tt.jpg","",""
"null","../img/gs/007gs.jpg","null","reveal","image-keyboard-response","17","281656","0.0-6.0-4.1","3811872","co37828","norming","","","","","","",""
"null","../img/tt/007tt.jpg","null","mooney2","image-keyboard-response","18","283662","0.0-6.0-5.1","3811872","co37828","norming","","","","","","",""
"10143.624999909662","","","post_reveal_questions","survey-likert","19","293809","0.0-6.0-6.1","3811872","co37828","norming","","","{""aha"":4}","[0]","../img/tt/007tt.jpg","",""
"null","<div style=""font-size:60px;""> </div>","null","fixation","html-keyboard-response","20","294016","0.0-6.0-0.2","3811872","co37828","norming","","","","","","",""
"null","../img/tt/084tt.jpg","null","mooney1","image-keyboard-response","21","297022","0.0-6.0-1.2","3811872","co37828","norming","","","","","","",""
"8539.515000069514","","","post_mooney1_questions","survey-likert","22","305566","0.0-6.0-2.2","3811872","co37828","norming","","","{""curiosity"":6,""confidence"":0}","[0,1]","../img/tt/084tt.jpg","",""
"4612.27499996312","","","recognition","survey-text","23","310186","0.0-6.0-3.2","3811872","co37828","norming","","","{""guess"":""duck""}","","../img/tt/084tt.jpg","",""
"null","../img/gs/084gs.jpg","null","reveal","image-keyboard-response","24","312193","0.0-6.0-4.2","3811872","co37828","norming","","","","","","",""
"null","../img/tt/084tt.jpg","null","mooney2","image-keyboard-response","25","314195","0.0-6.0-5.2","3811872","co37828","norming","","","","","","",""
"2883.625000016764","","","post_reveal_questions","survey-likert","26","317082","0.0-6.0-6.2","3811872","co37828","norming","","","{""aha"":3}","[0]","../img/tt/084tt.jpg","",""
"null","<div style=""font-size:60px;""> </div>","null","fixation","html-keyboard-response","27","317286","0.0-6.0-0.3","3811872","co37828","norming","","","","","","",""
"null","../img/tt/111tt.jpg","null","mooney1","image-keyboard-response","28","320293","0.0-6.0-1.3","3811872","co37828","norming","","","","","","",""
"6826.630000025034","","","post_mooney1_questions","survey-likert","29","327123","0.0-6.0-2.3","3811872","co37828","norming","","","{""curiosity"":6,""confidence"":0}","[0,1]","../img/tt/111tt.jpg","",""
"4526.519999955781","","","recognition","survey-text","30","331657","0.0-6.0-3.3","3811872","co37828","norming","","","{""guess"":""fish""}","","../img/tt/111tt.jpg","",""
"null","../img/gs/111gs.jpg","null","reveal","image-keyboard-response","31","333662","0.0-6.0-4.3","3811872","co37828","norming","","","","","","",""
"null","../img/tt/111tt.jpg","null","mooney2","image-keyboard-response","32","335681","0.0-6.0-5.3","3811872","co37828","norming","","","","","","",""
"7263.180000009015","","","post_reveal_questions","survey-likert","33","342950","0.0-6.0-6.3","3811872","co37828","norming","","","{""aha"":6}","[0]","../img/tt/111tt.jpg","",""
"null","<div style=""font-size:60px;""> </div>","null","fixation","html-keyboard-response","34","343159","0.0-6.0-0.4","3811872","co37828","norming","","","","","","",""
"null","../img/tt/1190tt.jpg","null","mooney1","image-keyboard-response","35","346165","0.0-6.0-1.4","3811872","co37828","norming","","","","","","",""
"9373.099999967963","","","post_mooney1_questions","survey-likert","36","355543","0.0-6.0-2.4","3811872","co37828","norming","","","{""curiosity"":5,""confidence"":0}","[0,1]","../img/tt/1190tt.jpg","",""
"7168.334999936633","","","recognition","survey-text","37","362718","0.0-6.0-3.4","3811872","co37828","norming","","","{""guess"":""landscape""}","","../img/tt/1190tt.jpg","",""
"null","../img/gs/1190gs.jpg","null","reveal","image-keyboard-response","38","364724","0.0-6.0-4.4","3811872","co37828","norming","","","","","","",""
"null","../img/tt/1190tt.jpg","null","mooney2","image-keyboard-response","39","366752","0.0-6.0-5.4","3811872","co37828","norming","","","","","","",""
"5183.324999990873","","","post_reveal_questions","survey-likert","40","371939","0.0-6.0-6.4","3811872","co37828","norming","","","{""aha"":5}","[0]","../img/tt/1190tt.jpg","",""
"null","<div style=""font-size:60px;""> </div>","null","fixation","html-keyboard-response","41","372146","0.0-6.0-0.5","3811872","co37828","norming","","","","","","",""
"null","../img/tt/580tt.jpg","null","mooney1","image-keyboard-response","42","375153","0.0-6.0-1.5","3811872","co37828","norming","","","","","","",""
"8929.71000005491","","","post_mooney1_questions","survey-likert","43","384086","0.0-6.0-2.5","3811872","co37828","norming","","","{""curiosity"":6,""confidence"":0}","[0,1]","../img/tt/580tt.jpg","",""
"8056.63500004448","","","recognition","survey-text","44","392150","0.0-6.0-3.5","3811872","co37828","norming","","","{""guess"":""face""}","","../img/tt/580tt.jpg","",""
"null","../img/gs/580gs.jpg","null","reveal","image-keyboard-response","45","394154","0.0-6.0-4.5","3811872","co37828","norming","","","","","","",""
"null","../img/tt/580tt.jpg","null","mooney2","image-keyboard-response","46","396157","0.0-6.0-5.5","3811872","co37828","norming","","","","","","",""
"4261.790000018664","","","post_reveal_questions","survey-likert","47","400422","0.0-6.0-6.5","3811872","co37828","norming","","","{""aha"":6}","[0]","../img/tt/580tt.jpg","",""
"null","<div style=""font-size:60px;""> </div>","null","fixation","html-keyboard-response","48","400626","0.0-6.0-0.6","3811872","co37828","norming","","","","","","",""
"null","../img/tt/1232tt.jpg","null","mooney1","image-keyboard-response","49","403633","0.0-6.0-1.6","3811872","co37828","norming","","","","","","",""
"5640.495000057854","","","post_mooney1_questions","survey-likert","50","409278","0.0-6.0-2.6","3811872","co37828","norming","","","{""curiosity"":6,""confidence"":5}","[0,1]","../img/tt/1232tt.jpg","",""
"5729.674999951385","","","recognition","survey-text","51","415015","0.0-6.0-3.6","3811872","co37828","norming","","","{""guess"":""pidgeon""}","","../img/tt/1232tt.jpg","",""
"null","../img/gs/1232gs.jpg","null","reveal","image-keyboard-response","52","417026","0.0-6.0-4.6","3811872","co37828","norming","","","","","","",""
"null","../img/tt/1232tt.jpg","null","mooney2","image-keyboard-response","53","419032","0.0-6.0-5.6","3811872","co37828","norming","","","","","","",""
"3862.73000005167","","","post_reveal_questions","survey-likert","54","422899","0.0-6.0-6.6","3811872","co37828","norming","","","{""aha"":1}","[0]","../img/tt/1232tt.jpg","",""
"null","<div style=""font-size:60px;""> </div>","null","fixation","html-keyboard-response","55","423104","0.0-6.0-0.7","3811872","co37828","norming","","","","","","",""
"null","../img/tt/1128tt.jpg","null","mooney1","image-keyboard-response","56","426109","0.0-6.0-1.7","3811872","co37828","norming","","","","","","",""
"5869.03999990318","","","post_mooney1_questions","survey-likert","57","431981","0.0-6.0-2.7","3811872","co37828","norming","","","{""curiosity"":4,""confidence"":5}","[0,1]","../img/tt/1128tt.jpg","",""
"4779.074999969453","","","recognition","survey-text","58","436769","0.0-6.0-3.7","3811872","co37828","norming","","","{""guess"":""a monkey""}","","../img/tt/1128tt.jpg","",""
"null","../img/gs/1128gs.jpg","null","reveal","image-keyboard-response","59","438778","0.0-6.0-4.7","3811872","co37828","norming","","","","","","",""
"null","../img/tt/1128tt.jpg","null","mooney2","image-keyboard-response","60","440783","0.0-6.0-5.7","3811872","co37828","norming","","","","","","",""
"3307.4199999682605","","","post_reveal_questions","survey-likert","61","444093","0.0-6.0-6.7","3811872","co37828","norming","","","{""aha"":5}","[0]","../img/tt/1128tt.jpg","",""
"null","<div style=""font-size:60px;""> </div>","null","fixation","html-keyboard-response","62","444297","0.0-6.0-0.8","3811872","co37828","norming","","","","","","",""
"null","../img/tt/442tt.jpg","null","mooney1","image-keyboard-response","63","447307","0.0-6.0-1.8","3811872","co37828","norming","","","","","","",""
"10614.860000088811","","","post_mooney1_questions","survey-likert","64","457926","0.0-6.0-2.8","3811872","co37828","norming","","","{""curiosity"":6,""confidence"":1}","[0,1]","../img/tt/442tt.jpg","",""
"5796.130000031553","","","recognition","survey-text","65","463729","0.0-6.0-3.8","3811872","co37828","norming","","","{""guess"":""armadillo""}","","../img/tt/442tt.jpg","",""
"null","../img/gs/442gs.jpg","null","reveal","image-keyboard-response","66","465737","0.0-6.0-4.8","3811872","co37828","norming","","","","","","",""
"null","../img/tt/442tt.jpg","null","mooney2","image-keyboard-response","67","467742","0.0-6.0-5.8","3811872","co37828","norming","","","","","","",""
"2444.5550000527874","","","post_reveal_questions","survey-likert","68","470191","0.0-6.0-6.8","3811872","co37828","norming","","","{""aha"":5}","[0]","../img/tt/442tt.jpg","",""
"null","<div style=""font-size:60px;""> </div>","null","fixation","html-keyboard-response","69","470395","0.0-6.0-0.9","3811872","co37828","norming","","","","","","",""
"null","../img/tt/184tt.jpg","null","mooney1","image-keyboard-response","70","473403","0.0-6.0-1.9","3811872","co37828","norming","","","","","","",""
"9258.135000010952","","","post_mooney1_questions","survey-likert","71","482667","0.0-6.0-2.9","3811872","co37828","norming","","","{""curiosity"":4,""confidence"":4}","[0,1]","../img/tt/184tt.jpg","",""
"3109.080000082031","","","recognition","survey-text","72","485783","0.0-6.0-3.9","3811872","co37828","norming","","","{""guess"":""cake""}","","../img/tt/184tt.jpg","",""
"null","../img/gs/184gs.jpg","null","reveal","image-keyboard-response","73","487787","0.0-6.0-4.9","3811872","co37828","norming","","","","","","",""
"null","../img/tt/184tt.jpg","null","mooney2","image-keyboard-response","74","489792","0.0-6.0-5.9","3811872","co37828","norming","","","","","","",""
"3174.5900000678375","","","post_reveal_questions","survey-likert","75","492971","0.0-6.0-6.9","3811872","co37828","norming","","","{""aha"":3}","[0]","../img/tt/184tt.jpg","",""
"null","<div style=""font-size:60px;""> </div>","null","fixation","html-keyboard-response","76","493176","0.0-6.0-0.10","3811872","co37828","norming","","","","","","",""
"null","../img/tt/477tt.jpg","null","mooney1","image-keyboard-response","77","496179","0.0-6.0-1.10","3811872","co37828","norming","","","","","","",""
"8733.095000032336","","","post_mooney1_questions","survey-likert","78","504916","0.0-6.0-2.10","3811872","co37828","norming","","","{""curiosity"":4,""confidence"":3}","[0,1]","../img/tt/477tt.jpg","",""
"4308.43500001356","","","recognition","survey-text","79","509232","0.0-6.0-3.10","3811872","co37828","norming","","","{""guess"":""aquarium""}","","../img/tt/477tt.jpg","",""
"null","../img/gs/477gs.jpg","null","reveal","image-keyboard-response","80","511239","0.0-6.0-4.10","3811872","co37828","norming","","","","","","",""
"null","../img/tt/477tt.jpg","null","mooney2","image-keyboard-response","81","513245","0.0-6.0-5.10","3811872","co37828","norming","","","","","","",""
"3344.5199999259785","","","post_reveal_questions","survey-likert","82","516593","0.0-6.0-6.10","3811872","co37828","norming","","","{""aha"":1}","[0]","../img/tt/477tt.jpg","",""
"null","<div style=""font-size:60px;""> </div>","null","fixation","html-keyboard-response","83","516799","0.0-6.0-0.11","3811872","co37828","norming","","","","","","",""
"null","../img/tt/1033tt.jpg","null","mooney1","image-keyboard-response","84","519804","0.0-6.0-1.11","3811872","co37828","norming","","","","","","",""
"10016.490000067279","","","post_mooney1_questions","survey-likert","85","529825","0.0-6.0-2.11","3811872","co37828","norming","","","{""curiosity"":4,""confidence"":2}","[0,1]","../img/tt/1033tt.jpg","",""
"8881.894999998622","","","recognition","survey-text","86","538714","0.0-6.0-3.11","3811872","co37828","norming","","","{""guess"":""indian arrow""}","","../img/tt/1033tt.jpg","",""
"null","../img/gs/1033gs.jpg","null","reveal","image-keyboard-response","87","540718","0.0-6.0-4.11","3811872","co37828","norming","","","","","","",""
"null","../img/tt/1033tt.jpg","null","mooney2","image-keyboard-response","88","542728","0.0-6.0-5.11","3811872","co37828","norming","","","","","","",""
"2211.669999989681","","","post_reveal_questions","survey-likert","89","544943","0.0-6.0-6.11","3811872","co37828","norming","","","{""aha"":6}","[0]","../img/tt/1033tt.jpg","",""
"null","<div style=""font-size:60px;""> </div>","null","fixation","html-keyboard-response","90","545147","0.0-6.0-0.12","3811872","co37828","norming","","","","","","",""
"null","../img/tt/1027tt.jpg","null","mooney1","image-keyboard-response","91","548157","0.0-6.0-1.12","3811872","co37828","norming","","","","","","",""
"5565.709999995306","","","post_mooney1_questions","survey-likert","92","553728","0.0-6.0-2.12","3811872","co37828","norming","","","{""curiosity"":2,""confidence"":6}","[0,1]","../img/tt/1027tt.jpg","",""
"2813.9049999881536","","","recognition","survey-text","93","556549","0.0-6.0-3.12","3811872","co37828","norming","","","{""guess"":""cows""}","","../img/tt/1027tt.jpg","",""
"null","../img/gs/1027gs.jpg","null","reveal","image-keyboard-response","94","558552","0.0-6.0-4.12","3811872","co37828","norming","","","","","","",""
"null","../img/tt/1027tt.jpg","null","mooney2","image-keyboard-response","95","560557","0.0-6.0-5.12","3811872","co37828","norming","","","","","","",""
"2230.684999958612","","","post_reveal_questions","survey-likert","96","562790","0.0-6.0-6.12","3811872","co37828","norming","","","{""aha"":0}","[0]","../img/tt/1027tt.jpg","",""
"null","<div style=""font-size:60px;""> </div>","null","fixation","html-keyboard-response","97","562996","0.0-6.0-0.13","3811872","co37828","norming","","","","","","",""
"null","../img/tt/1046tt.jpg","null","mooney1","image-keyboard-response","98","566004","0.0-6.0-1.13","3811872","co37828","norming","","","","","","",""
"6795.659999945201","","","post_mooney1_questions","survey-likert","99","572804","0.0-6.0-2.13","3811872","co37828","norming","","","{""curiosity"":5,""confidence"":1}","[0,1]","../img/tt/1046tt.jpg","",""
"9559.170000022277","","","recognition","survey-text","100","582373","0.0-6.0-3.13","3811872","co37828","norming","","","{""guess"":""market place""}","","../img/tt/1046tt.jpg","",""
"null","../img/gs/1046gs.jpg","null","reveal","image-keyboard-response","101","584378","0.0-6.0-4.13","3811872","co37828","norming","","","","","","",""
"null","../img/tt/1046tt.jpg","null","mooney2","image-keyboard-response","102","586381","0.0-6.0-5.13","3811872","co37828","norming","","","","","","",""
"2921.6899999883026","","","post_reveal_questions","survey-likert","103","589307","0.0-6.0-6.13","3811872","co37828","norming","","","{""aha"":4}","[0]","../img/tt/1046tt.jpg","",""
"null","<div style=""font-size:60px;""> </div>","null","fixation","html-keyboard-response","104","589515","0.0-6.0-0.14","3811872","co37828","norming","","","","","","",""
"null","../img/tt/1173tt.jpg","null","mooney1","image-keyboard-response","105","592521","0.0-6.0-1.14","3811872","co37828","norming","","","","","","",""
"9290.370000060648","","","post_mooney1_questions","survey-likert","106","601815","0.0-6.0-2.14","3811872","co37828","norming","","","{""curiosity"":4,""confidence"":4}","[0,1]","../img/tt/1173tt.jpg","",""
"15120.430000009947","","","recognition","survey-text","107","616943","0.0-6.0-3.14","3811872","co37828","norming","","","{""guess"":""hockey players""}","","../img/tt/1173tt.jpg","",""
"null","../img/gs/1173gs.jpg","null","reveal","image-keyboard-response","108","618949","0.0-6.0-4.14","3811872","co37828","norming","","","","","","",""
"null","../img/tt/1173tt.jpg","null","mooney2","image-keyboard-response","109","620953","0.0-6.0-5.14","3811872","co37828","norming","","","","","","",""
"5600.065000005998","","","post_reveal_questions","survey-likert","110","626557","0.0-6.0-6.14","3811872","co37828","norming","","","{""aha"":1}","[0]","../img/tt/1173tt.jpg","",""
"null","<div style=""font-size:60px;""> </div>","null","fixation","html-keyboard-response","111","626761","0.0-6.0-0.15","3811872","co37828","norming","","","","","","",""
"null","../img/tt/1102tt.jpg","null","mooney1","image-keyboard-response","112","629768","0.0-6.0-1.15","3811872","co37828","norming","","","","","","",""
"7282.799999928102","","","post_mooney1_questions","survey-likert","113","637055","0.0-6.0-2.15","3811872","co37828","norming","","","{""curiosity"":5,""confidence"":3}","[0,1]","../img/tt/1102tt.jpg","",""
"6043.63500000909","","","recognition","survey-text","114","643106","0.0-6.0-3.15","3811872","co37828","norming","","","{""guess"":""palm tree ""}","","../img/tt/1102tt.jpg","",""
"null","../img/gs/1102gs.jpg","null","reveal","image-keyboard-response","115","645112","0.0-6.0-4.15","3811872","co37828","norming","","","","","","",""
"null","../img/tt/1102tt.jpg","null","mooney2","image-keyboard-response","116","647116","0.0-6.0-5.15","3811872","co37828","norming","","","","","","",""
"3377.240000059828","","","post_reveal_questions","survey-likert","117","650497","0.0-6.0-6.15","3811872","co37828","norming","","","{""aha"":2}","[0]","../img/tt/1102tt.jpg","",""
"null","<div style=""font-size:60px;""> </div>","null","fixation","html-keyboard-response","118","650701","0.0-6.0-0.16","3811872","co37828","norming","","","","","","",""
"null","../img/tt/1211tt.jpg","null","mooney1","image-keyboard-response","119","653705","0.0-6.0-1.16","3811872","co37828","norming","","","","","","",""
"6238.615000038408","","","post_mooney1_questions","survey-likert","120","659948","0.0-6.0-2.16","3811872","co37828","norming","","","{""curiosity"":5,""confidence"":2}","[0,1]","../img/tt/1211tt.jpg","",""
"4431.600000010803","","","recognition","survey-text","121","664386","0.0-6.0-3.16","3811872","co37828","norming","","","{""guess"":""astronaut""}","","../img/tt/1211tt.jpg","",""
"null","../img/gs/1211gs.jpg","null","reveal","image-keyboard-response","122","666391","0.0-6.0-4.16","3811872","co37828","norming","","","","","","",""
"null","../img/tt/1211tt.jpg","null","mooney2","image-keyboard-response","123","668394","0.0-6.0-5.16","3811872","co37828","norming","","","","","","",""
"3551.355000003241","","","post_reveal_questions","survey-likert","124","671948","0.0-6.0-6.16","3811872","co37828","norming","","","{""aha"":5}","[0]","../img/tt/1211tt.jpg","",""
"null","<div style=""font-size:60px;""> </div>","null","fixation","html-keyboard-response","125","672155","0.0-6.0-0.17","3811872","co37828","norming","","","","","","",""
"null","../img/tt/1049tt.jpg","null","mooney1","image-keyboard-response","126","675171","0.0-6.0-1.17","3811872","co37828","norming","","","","","","",""
"7799.460000009276","","","post_mooney1_questions","survey-likert","127","682974","0.0-6.0-2.17","3811872","co37828","norming","","","{""curiosity"":5,""confidence"":2}","[0,1]","../img/tt/1049tt.jpg","",""
"5622.38499999512","","","recognition","survey-text","128","688604","0.0-6.0-3.17","3811872","co37828","norming","","","{""guess"":""two pugs""}","","../img/tt/1049tt.jpg","",""
"null","../img/gs/1049gs.jpg","null","reveal","image-keyboard-response","129","690610","0.0-6.0-4.17","3811872","co37828","norming","","","","","","",""
"null","../img/tt/1049tt.jpg","null","mooney2","image-keyboard-response","130","692618","0.0-6.0-5.17","3811872","co37828","norming","","","","","","",""
"3192.144999979064","","","post_reveal_questions","survey-likert","131","695814","0.0-6.0-6.17","3811872","co37828","norming","","","{""aha"":1}","[0]","../img/tt/1049tt.jpg","",""
"null","<div style=""font-size:60px;""> </div>","null","fixation","html-keyboard-response","132","696020","0.0-6.0-0.18","3811872","co37828","norming","","","","","","",""
"null","../img/tt/098tt.jpg","null","mooney1","image-keyboard-response","133","699024","0.0-6.0-1.18","3811872","co37828","norming","","","","","","",""
"15598.334999987856","","","post_mooney1_questions","survey-likert","134","714627","0.0-6.0-2.18","3811872","co37828","norming","","","{""curiosity"":4,""confidence"":2}","[0,1]","../img/tt/098tt.jpg","",""
"6028.019999968819","","","recognition","survey-text","135","720662","0.0-6.0-3.18","3811872","co37828","norming","","","{""guess"":""Mexican""}","","../img/tt/098tt.jpg","",""
"null","../img/gs/098gs.jpg","null","reveal","image-keyboard-response","136","722668","0.0-6.0-4.18","3811872","co37828","norming","","","","","","",""
"null","../img/tt/098tt.jpg","null","mooney2","image-keyboard-response","137","724676","0.0-6.0-5.18","3811872","co37828","norming","","","","","","",""
"2553.7599999224767","","","post_reveal_questions","survey-likert","138","727234","0.0-6.0-6.18","3811872","co37828","norming","","","{""aha"":5}","[0]","../img/tt/098tt.jpg","",""
"null","<div style=""font-size:60px;""> </div>","null","fixation","html-keyboard-response","139","727443","0.0-6.0-0.19","3811872","co37828","norming","","","","","","",""
"null","../img/tt/279tt.jpg","null","mooney1","image-keyboard-response","140","730453","0.0-6.0-1.19","3811872","co37828","norming","","","","","","",""
"7697.015000041574","","","post_mooney1_questions","survey-likert","141","738156","0.0-6.0-2.19","3811872","co37828","norming","","","{""curiosity"":3,""confidence"":4}","[0,1]","../img/tt/279tt.jpg","",""
"3515.2300000190735","","","recognition","survey-text","142","741678","0.0-6.0-3.19","3811872","co37828","norming","","","{""guess"":""koala""}","","../img/tt/279tt.jpg","",""
"null","../img/gs/279gs.jpg","null","reveal","image-keyboard-response","143","743683","0.0-6.0-4.19","3811872","co37828","norming","","","","","","",""
"null","../img/tt/279tt.jpg","null","mooney2","image-keyboard-response","144","745687","0.0-6.0-5.19","3811872","co37828","norming","","","","","","",""
"3265.7449999824166","","","post_reveal_questions","survey-likert","145","748957","0.0-6.0-6.19","3811872","co37828","norming","","","{""aha"":1}","[0]","../img/tt/279tt.jpg","",""
"null","<div style=""font-size:60px;""> </div>","null","fixation","html-keyboard-response","146","749178","0.0-6.0-0.20","3811872","co37828","norming","","","","","","",""
"null","../img/tt/140tt.jpg","null","mooney1","image-keyboard-response","147","752186","0.0-6.0-1.20","3811872","co37828","norming","","","","","","",""
"5076.595000107773","","","post_mooney1_questions","survey-likert","148","757267","0.0-6.0-2.20","3811872","co37828","norming","","","{""curiosity"":1,""confidence"":6}","[0,1]","../img/tt/140tt.jpg","",""
"4968.164999969304","","","recognition","survey-text","149","762241","0.0-6.0-3.20","3811872","co37828","norming","","","{""guess"":""two forks""}","","../img/tt/140tt.jpg","",""
"null","../img/gs/140gs.jpg","null","reveal","image-keyboard-response","150","764252","0.0-6.0-4.20","3811872","co37828","norming","","","","","","",""
"null","../img/tt/140tt.jpg","null","mooney2","image-keyboard-response","151","766261","0.0-6.0-5.20","3811872","co37828","norming","","","","","","",""
"2474.754999973811","","","post_reveal_questions","survey-likert","152","768740","0.0-6.0-6.20","3811872","co37828","norming","","","{""aha"":0}","[0]","../img/tt/140tt.jpg","",""
"null","<div style=""font-size:60px;""> </div>","null","fixation","html-keyboard-response","153","768945","0.0-6.0-0.21","3811872","co37828","norming","","","","","","",""
"null","../img/tt/1044tt.jpg","null","mooney1","image-keyboard-response","154","771949","0.0-6.0-1.21","3811872","co37828","norming","","","","","","",""
"9097.42499992717","","","post_mooney1_questions","survey-likert","155","781051","0.0-6.0-2.21","3811872","co37828","norming","","","{""curiosity"":4,""confidence"":3}","[0,1]","../img/tt/1044tt.jpg","",""
"22808.740000007674","","","recognition","survey-text","156","803867","0.0-6.0-3.21","3811872","co37828","norming","","","{""guess"":""a giraffe""}","","../img/tt/1044tt.jpg","",""
"null","../img/gs/1044gs.jpg","null","reveal","image-keyboard-response","157","805881","0.0-6.0-4.21","3811872","co37828","norming","","","","","","",""
"null","../img/tt/1044tt.jpg","null","mooney2","image-keyboard-response","158","807885","0.0-6.0-5.21","3811872","co37828","norming","","","","","","",""
"3387.1549998875707","","","post_reveal_questions","survey-likert","159","811275","0.0-6.0-6.21","3811872","co37828","norming","","","{""aha"":2}","[0]","../img/tt/1044tt.jpg","",""
"null","<div style=""font-size:60px;""> </div>","null","fixation","html-keyboard-response","160","811483","0.0-6.0-0.22","3811872","co37828","norming","","","","","","",""
"null","../img/tt/1002tt.jpg","null","mooney1","image-keyboard-response","161","814490","0.0-6.0-1.22","3811872","co37828","norming","","","","","","",""
"5166.120000067167","","","post_mooney1_questions","survey-likert","162","819661","0.0-6.0-2.22","3811872","co37828","norming","","","{""curiosity"":2,""confidence"":5}","[0,1]","../img/tt/1002tt.jpg","",""
"5119.789999909699","","","recognition","survey-text","163","824788","0.0-6.0-3.22","3811872","co37828","norming","","","{""guess"":""grizzly bear""}","","../img/tt/1002tt.jpg","",""
"null","../img/gs/1002gs.jpg","null","reveal","image-keyboard-response","164","826793","0.0-6.0-4.22","3811872","co37828","norming","","","","","","",""
"null","../img/tt/1002tt.jpg","null","mooney2","image-keyboard-response","165","828798","0.0-6.0-5.22","3811872","co37828","norming","","","","","","",""
"1961.8650000775233","","","post_reveal_questions","survey-likert","166","830763","0.0-6.0-6.22","3811872","co37828","norming","","","{""aha"":1}","[0]","../img/tt/1002tt.jpg","",""
"null","<div style=""font-size:60px;""> </div>","null","fixation","html-keyboard-response","167","830970","0.0-6.0-0.23","3811872","co37828","norming","","","","","","",""
"null","../img/tt/1006tt.jpg","null","mooney1","image-keyboard-response","168","833974","0.0-6.0-1.23","3811872","co37828","norming","","","","","","",""
"6289.400000008754","","","post_mooney1_questions","survey-likert","169","840268","0.0-6.0-2.23","3811872","co37828","norming","","","{""curiosity"":4,""confidence"":3}","[0,1]","../img/tt/1006tt.jpg","",""
"3473.5799999907613","","","recognition","survey-text","170","843752","0.0-6.0-3.23","3811872","co37828","norming","","","{""guess"":""sheep""}","","../img/tt/1006tt.jpg","",""
"null","../img/gs/1006gs.jpg","null","reveal","image-keyboard-response","171","845761","0.0-6.0-4.23","3811872","co37828","norming","","","","","","",""
"null","../img/tt/1006tt.jpg","null","mooney2","image-keyboard-response","172","847766","0.0-6.0-5.23","3811872","co37828","norming","","","","","","",""
"2462.115000002086","","","post_reveal_questions","survey-likert","173","850232","0.0-6.0-6.23","3811872","co37828","norming","","","{""aha"":1}","[0]","../img/tt/1006tt.jpg","",""
"null","<div style=""font-size:60px;""> </div>","null","fixation","html-keyboard-response","174","850442","0.0-6.0-0.24","3811872","co37828","norming","","","","","","",""
"null","../img/tt/049tt.jpg","null","mooney1","image-keyboard-response","175","853450","0.0-6.0-1.24","3811872","co37828","norming","","","","","","",""
"7734.154999954626","","","post_mooney1_questions","survey-likert","176","861188","0.0-6.0-2.24","3811872","co37828","norming","","","{""curiosity"":4,""confidence"":1}","[0,1]","../img/tt/049tt.jpg","",""
"3672.720000031404","","","recognition","survey-text","177","864870","0.0-6.0-3.24","3811872","co37828","norming","","","{""guess"":""a snail""}","","../img/tt/049tt.jpg","",""
"null","../img/gs/049gs.jpg","null","reveal","image-keyboard-response","178","866880","0.0-6.0-4.24","3811872","co37828","norming","","","","","","",""
"null","../img/tt/049tt.jpg","null","mooney2","image-keyboard-response","179","868884","0.0-6.0-5.24","3811872","co37828","norming","","","","","","",""
"12508.810000028461","","","post_reveal_questions","survey-likert","180","881396","0.0-6.0-6.24","3811872","co37828","norming","","","{""aha"":4}","[0]","../img/tt/049tt.jpg","",""
"null","<div style=""font-size:60px;""> </div>","null","fixation","html-keyboard-response","181","881600","0.0-6.0-0.25","3811872","co37828","norming","","","","","","",""
"null","../img/tt/1205tt.jpg","null","mooney1","image-keyboard-response","182","884606","0.0-6.0-1.25","3811872","co37828","norming","","","","","","",""
"6510.840000002645","","","post_mooney1_questions","survey-likert","183","891121","0.0-6.0-2.25","3811872","co37828","norming","","","{""curiosity"":5,""confidence"":0}","[0,1]","../img/tt/1205tt.jpg","",""
"3962.485000025481","","","recognition","survey-text","184","895092","0.0-6.0-3.25","3811872","co37828","norming","","","{""guess"":""city""}","","../img/tt/1205tt.jpg","",""
"null","../img/gs/1205gs.jpg","null","reveal","image-keyboard-response","185","897112","0.0-6.0-4.25","3811872","co37828","norming","","","","","","",""
"null","../img/tt/1205tt.jpg","null","mooney2","image-keyboard-response","186","899125","0.0-6.0-5.25","3811872","co37828","norming","","","","","","",""
"3606.1099999351427","","","post_reveal_questions","survey-likert","187","902734","0.0-6.0-6.25","3811872","co37828","norming","","","{""aha"":5}","[0]","../img/tt/1205tt.jpg","",""
"null","<div style=""font-size:60px;""> </div>","null","fixation","html-keyboard-response","188","902938","0.0-6.0-0.26","3811872","co37828","norming","","","","","","",""
"null","../img/tt/1226tt.jpg","null","mooney1","image-keyboard-response","189","905942","0.0-6.0-1.26","3811872","co37828","norming","","","","","","",""
"7320.934999966994","","","post_mooney1_questions","survey-likert","190","913268","0.0-6.0-2.26","3811872","co37828","norming","","","{""curiosity"":2,""confidence"":5}","[0,1]","../img/tt/1226tt.jpg","",""
"5059.9200000287965","","","recognition","survey-text","191","918334","0.0-6.0-3.26","3811872","co37828","norming","","","{""guess"":""chicken""}","","../img/tt/1226tt.jpg","",""
"null","../img/gs/1226gs.jpg","null","reveal","image-keyboard-response","192","920342","0.0-6.0-4.26","3811872","co37828","norming","","","","","","",""
"null","../img/tt/1226tt.jpg","null","mooney2","image-keyboard-response","193","922346","0.0-6.0-5.26","3811872","co37828","norming","","","","","","",""
"2160.879999981262","","","post_reveal_questions","survey-likert","194","924512","0.0-6.0-6.26","3811872","co37828","norming","","","{""aha"":1}","[0]","../img/tt/1226tt.jpg","",""
"null","<div style=""font-size:60px;""> </div>","null","fixation","html-keyboard-response","195","924719","0.0-6.0-0.27","3811872","co37828","norming","","","","","","",""
"null","../img/tt/1366tt.jpg","null","mooney1","image-keyboard-response","196","927733","0.0-6.0-1.27","3811872","co37828","norming","","","","","","",""
"6159.025000059046","","","post_mooney1_questions","survey-likert","197","933896","0.0-6.0-2.27","3811872","co37828","norming","","","{""curiosity"":5,""confidence"":0}","[0,1]","../img/tt/1366tt.jpg","",""
"5478.40499994345","","","recognition","survey-text","198","939381","0.0-6.0-3.27","3811872","co37828","norming","","","{""guess"":""pineapple""}","","../img/tt/1366tt.jpg","",""
"null","../img/gs/1366gs.jpg","null","reveal","image-keyboard-response","199","941386","0.0-6.0-4.27","3811872","co37828","norming","","","","","","",""
"null","../img/tt/1366tt.jpg","null","mooney2","image-keyboard-response","200","943390","0.0-6.0-5.27","3811872","co37828","norming","","","","","","",""
"3356.2800000654534","","","post_reveal_questions","survey-likert","201","946751","0.0-6.0-6.27","3811872","co37828","norming","","","{""aha"":2}","[0]","../img/tt/1366tt.jpg","",""
"null","<div style=""font-size:60px;""> </div>","null","fixation","html-keyboard-response","202","946959","0.0-6.0-0.28","3811872","co37828","norming","","","","","","",""
"null","../img/tt/044tt.jpg","null","mooney1","image-keyboard-response","203","949964","0.0-6.0-1.28","3811872","co37828","norming","","","","","","",""
"6266.689999960363","","","post_mooney1_questions","survey-likert","204","956234","0.0-6.0-2.28","3811872","co37828","norming","","","{""curiosity"":3,""confidence"":4}","[0,1]","../img/tt/044tt.jpg","",""
"5768.030000035651","","","recognition","survey-text","205","962009","0.0-6.0-3.28","3811872","co37828","norming","","","{""guess"":""PC""}","","../img/tt/044tt.jpg","",""
"null","../img/gs/044gs.jpg","null","reveal","image-keyboard-response","206","964013","0.0-6.0-4.28","3811872","co37828","norming","","","","","","",""
"null","../img/tt/044tt.jpg","null","mooney2","image-keyboard-response","207","966018","0.0-6.0-5.28","3811872","co37828","norming","","","","","","",""
"4008.644999936223","","","post_reveal_questions","survey-likert","208","970030","0.0-6.0-6.28","3811872","co37828","norming","","","{""aha"":6}","[0]","../img/tt/044tt.jpg","",""
"null","<div style=""font-size:60px;""> </div>","null","fixation","html-keyboard-response","209","970239","0.0-6.0-0.29","3811872","co37828","norming","","","","","","",""
"null","../img/tt/1217tt.jpg","null","mooney1","image-keyboard-response","210","973244","0.0-6.0-1.29","3811872","co37828","norming","","","","","","",""
"10476.580000016838","","","post_mooney1_questions","survey-likert","211","983724","0.0-6.0-2.29","3811872","co37828","norming","","","{""curiosity"":4,""confidence"":4}","[0,1]","../img/tt/1217tt.jpg","",""
"8087.980000069365","","","recognition","survey-text","212","991819","0.0-6.0-3.29","3811872","co37828","norming","","","{""guess"":""AMERICAN football""}","","../img/tt/1217tt.jpg","",""
"null","../img/gs/1217gs.jpg","null","reveal","image-keyboard-response","213","993840","0.0-6.0-4.29","3811872","co37828","norming","","","","","","",""
"null","../img/tt/1217tt.jpg","null","mooney2","image-keyboard-response","214","995844","0.0-6.0-5.29","3811872","co37828","norming","","","","","","",""
"3685.1449999958277","","","post_reveal_questions","survey-likert","215","999533","0.0-6.0-6.29","3811872","co37828","norming","","","{""aha"":1}","[0]","../img/tt/1217tt.jpg","",""
"null","<div style=""font-size:60px;""> </div>","null","fixation","html-keyboard-response","216","999742","0.0-6.0-0.30","3811872","co37828","norming","","","","","","",""
"null","../img/tt/1234tt.jpg","null","mooney1","image-keyboard-response","217","1002747","0.0-6.0-1.30","3811872","co37828","norming","","","","","","",""
"8833.314999938011","","","post_mooney1_questions","survey-likert","218","1011584","0.0-6.0-2.30","3811872","co37828","norming","","","{""curiosity"":4,""confidence"":2}","[0,1]","../img/tt/1234tt.jpg","",""
"3688.7649999698624","","","recognition","survey-text","219","1015281","0.0-6.0-3.30","3811872","co37828","norming","","","{""guess"":""mermaid""}","","../img/tt/1234tt.jpg","",""
"null","../img/gs/1234gs.jpg","null","reveal","image-keyboard-response","220","1017290","0.0-6.0-4.30","3811872","co37828","norming","","","","","","",""
"null","../img/tt/1234tt.jpg","null","mooney2","image-keyboard-response","221","1019296","0.0-6.0-5.30","3811872","co37828","norming","","","","","","",""
"6789.854999980889","","","post_reveal_questions","survey-likert","222","1026090","0.0-6.0-6.30","3811872","co37828","norming","","","{""aha"":2}","[0]","../img/tt/1234tt.jpg","",""
"null","<div style=""font-size:60px;""> </div>","null","fixation","html-keyboard-response","223","1026299","0.0-6.0-0.31","3811872","co37828","norming","","","","","","",""
"null","../img/tt/1143tt.jpg","null","mooney1","image-keyboard-response","224","1029320","0.0-6.0-1.31","3811872","co37828","norming","","","","","","",""
"5296.169999986887","","","post_mooney1_questions","survey-likert","225","1034622","0.0-6.0-2.31","3811872","co37828","norming","","","{""curiosity"":2,""confidence"":5}","[0,1]","../img/tt/1143tt.jpg","",""
"3383.795000030659","","","recognition","survey-text","226","1038013","0.0-6.0-3.31","3811872","co37828","norming","","","{""guess"":""a gym""}","","../img/tt/1143tt.jpg","",""
"null","../img/gs/1143gs.jpg","null","reveal","image-keyboard-response","227","1040017","0.0-6.0-4.31","3811872","co37828","norming","","","","","","",""
"null","../img/tt/1143tt.jpg","null","mooney2","image-keyboard-response","228","1042021","0.0-6.0-5.31","3811872","co37828","norming","","","","","","",""
"2893.2499999646097","","","post_reveal_questions","survey-likert","229","1044918","0.0-6.0-6.31","3811872","co37828","norming","","","{""aha"":0}","[0]","../img/tt/1143tt.jpg","",""
"null","<div style=""font-size:60px;""> </div>","null","fixation","html-keyboard-response","230","1045125","0.0-6.0-0.32","3811872","co37828","norming","","","","","","",""
"null","../img/tt/315tt.jpg","null","mooney1","image-keyboard-response","231","1048129","0.0-6.0-1.32","3811872","co37828","norming","","","","","","",""
"12735.675000003539","","","post_mooney1_questions","survey-likert","232","1060868","0.0-6.0-2.32","3811872","co37828","norming","","","{""curiosity"":4,""confidence"":0}","[0,1]","../img/tt/315tt.jpg","",""
"1766.7299999156967","","","recognition","survey-text","233","1062642","0.0-6.0-3.32","3811872","co37828","norming","","","{""guess"":""""}","","../img/tt/315tt.jpg","",""
"null","../img/gs/315gs.jpg","null","reveal","image-keyboard-response","234","1064652","0.0-6.0-4.32","3811872","co37828","norming","","","","","","",""
"null","../img/tt/315tt.jpg","null","mooney2","image-keyboard-response","235","1066657","0.0-6.0-5.32","3811872","co37828","norming","","","","","","",""
"3685.1549999555573","","","post_reveal_questions","survey-likert","236","1070346","0.0-6.0-6.32","3811872","co37828","norming","","","{""aha"":5}","[0]","../img/tt/315tt.jpg","",""
"null","<div style=""font-size:60px;""> </div>","null","fixation","html-keyboard-response","237","1070552","0.0-6.0-0.33","3811872","co37828","norming","","","","","","",""
"null","../img/tt/126tt.jpg","null","mooney1","image-keyboard-response","238","1073563","0.0-6.0-1.33","3811872","co37828","norming","","","","","","",""
"5285.765000036918","","","post_mooney1_questions","survey-likert","239","1078853","0.0-6.0-2.33","3811872","co37828","norming","","","{""curiosity"":3,""confidence"":6}","[0,1]","../img/tt/126tt.jpg","",""
"3671.33499996271","","","recognition","survey-text","240","1082531","0.0-6.0-3.33","3811872","co37828","norming","","","{""guess"":""a cow""}","","../img/tt/126tt.jpg","",""
"null","../img/gs/126gs.jpg","null","reveal","image-keyboard-response","241","1084540","0.0-6.0-4.33","3811872","co37828","norming","","","","","","",""
"null","../img/tt/126tt.jpg","null","mooney2","image-keyboard-response","242","1086543","0.0-6.0-5.33","3811872","co37828","norming","","","","","","",""
"3152.4650000501424","","","post_reveal_questions","survey-likert","243","1089699","0.0-6.0-6.33","3811872","co37828","norming","","","{""aha"":1}","[0]","../img/tt/126tt.jpg","",""
"null","<div style=""font-size:60px;""> </div>","null","fixation","html-keyboard-response","244","1089903","0.0-6.0-0.34","3811872","co37828","norming","","","","","","",""
"null","../img/tt/001tt.jpg","null","mooney1","image-keyboard-response","245","1092912","0.0-6.0-1.34","3811872","co37828","norming","","","","","","",""
"11468.754999921657","","","post_mooney1_questions","survey-likert","246","1104385","0.0-6.0-2.34","3811872","co37828","norming","","","{""curiosity"":5,""confidence"":2}","[0,1]","../img/tt/001tt.jpg","",""
"4345.264999894425","","","recognition","survey-text","247","1108739","0.0-6.0-3.34","3811872","co37828","norming","","","{""guess"":""a rooster""}","","../img/tt/001tt.jpg","",""
"null","../img/gs/001gs.jpg","null","reveal","image-keyboard-response","248","1110745","0.0-6.0-4.34","3811872","co37828","norming","","","","","","",""
"null","../img/tt/001tt.jpg","null","mooney2","image-keyboard-response","249","1112750","0.0-6.0-5.34","3811872","co37828","norming","","","","","","",""
"1943.1999999796972","","","post_reveal_questions","survey-likert","250","1114696","0.0-6.0-6.34","3811872","co37828","norming","","","{""aha"":4}","[0]","../img/tt/001tt.jpg","",""
"null","<div style=""font-size:60px;""> </div>","null","fixation","html-keyboard-response","251","1114902","0.0-6.0-0.35","3811872","co37828","norming","","","","","","",""
"null","../img/tt/1272tt.jpg","null","mooney1","image-keyboard-response","252","1117913","0.0-6.0-1.35","3811872","co37828","norming","","","","","","",""
"10013.770000077784","","","post_mooney1_questions","survey-likert","253","1127931","0.0-6.0-2.35","3811872","co37828","norming","","","{""curiosity"":4,""confidence"":2}","[0,1]","../img/tt/1272tt.jpg","",""
"3645.7150001078844","","","recognition","survey-text","254","1131582","0.0-6.0-3.35","3811872","co37828","norming","","","{""guess"":""lion""}","","../img/tt/1272tt.jpg","",""
"null","../img/gs/1272gs.jpg","null","reveal","image-keyboard-response","255","1133590","0.0-6.0-4.35","3811872","co37828","norming","","","","","","",""
"null","../img/tt/1272tt.jpg","null","mooney2","image-keyboard-response","256","1135593","0.0-6.0-5.35","3811872","co37828","norming","","","","","","",""
"2476.355000049807","","","post_reveal_questions","survey-likert","257","1138073","0.0-6.0-6.35","3811872","co37828","norming","","","{""aha"":3}","[0]","../img/tt/1272tt.jpg","",""
"null","<div style=""font-size:60px;""> </div>","null","fixation","html-keyboard-response","258","1138278","0.0-6.0-0.36","3811872","co37828","norming","","","","","","",""
"null","../img/tt/319tt.jpg","null","mooney1","image-keyboard-response","259","1141284","0.0-6.0-1.36","3811872","co37828","norming","","","","","","",""
"5296.280000009574","","","post_mooney1_questions","survey-likert","260","1146585","0.0-6.0-2.36","3811872","co37828","norming","","","{""curiosity"":1,""confidence"":6}","[0,1]","../img/tt/319tt.jpg","",""
"5267.564999987371","","","recognition","survey-text","261","1151859","0.0-6.0-3.36","3811872","co37828","norming","","","{""guess"":""two donkeys""}","","../img/tt/319tt.jpg","",""
"null","../img/gs/319gs.jpg","null","reveal","image-keyboard-response","262","1153865","0.0-6.0-4.36","3811872","co37828","norming","","","","","","",""
"null","../img/tt/319tt.jpg","null","mooney2","image-keyboard-response","263","1155879","0.0-6.0-5.36","3811872","co37828","norming","","","","","","",""
"21008.565000025555","","","post_reveal_questions","survey-likert","264","1176891","0.0-6.0-6.36","3811872","co37828","norming","","","{""aha"":0}","[0]","../img/tt/319tt.jpg","",""
"null","<div style=""font-size:60px;""> </div>","null","fixation","html-keyboard-response","265","1177095","0.0-6.0-0.37","3811872","co37828","norming","","","","","","",""
"null","../img/tt/1118tt.jpg","null","mooney1","image-keyboard-response","266","1180100","0.0-6.0-1.37","3811872","co37828","norming","","","","","","",""
"4513.935000053607","","","post_mooney1_questions","survey-likert","267","1184618","0.0-6.0-2.37","3811872","co37828","norming","","","{""curiosity"":5,""confidence"":2}","[0,1]","../img/tt/1118tt.jpg","",""
"3509.1050000628456","","","recognition","survey-text","268","1188134","0.0-6.0-3.37","3811872","co37828","norming","","","{""guess"":""bridge""}","","../img/tt/1118tt.jpg","",""
"null","../img/gs/1118gs.jpg","null","reveal","image-keyboard-response","269","1190140","0.0-6.0-4.37","3811872","co37828","norming","","","","","","",""
"null","../img/tt/1118tt.jpg","null","mooney2","image-keyboard-response","270","1192144","0.0-6.0-5.37","3811872","co37828","norming","","","","","","",""
"2948.95499991253","","","post_reveal_questions","survey-likert","271","1195097","0.0-6.0-6.37","3811872","co37828","norming","","","{""aha"":3}","[0]","../img/tt/1118tt.jpg","",""
"null","<div style=""font-size:60px;""> </div>","null","fixation","html-keyboard-response","272","1195311","0.0-6.0-0.38","3811872","co37828","norming","","","","","","",""
"null","../img/tt/1260tt.jpg","null","mooney1","image-keyboard-response","273","1198317","0.0-6.0-1.38","3811872","co37828","norming","","","","","","",""
"10245.170000009239","","","post_mooney1_questions","survey-likert","274","1208567","0.0-6.0-2.38","3811872","co37828","norming","","","{""curiosity"":4,""confidence"":1}","[0,1]","../img/tt/1260tt.jpg","",""
"4927.284999983385","","","recognition","survey-text","275","1213506","0.0-6.0-3.38","3811872","co37828","norming","","","{""guess"":""desert""}","","../img/tt/1260tt.jpg","",""
"null","../img/gs/1260gs.jpg","null","reveal","image-keyboard-response","276","1215513","0.0-6.0-4.38","3811872","co37828","norming","","","","","","",""
"null","../img/tt/1260tt.jpg","null","mooney2","image-keyboard-response","277","1217518","0.0-6.0-5.38","3811872","co37828","norming","","","","","","",""
"2866.5000000037253","","","post_reveal_questions","survey-likert","278","1220389","0.0-6.0-6.38","3811872","co37828","norming","","","{""aha"":3}","[0]","../img/tt/1260tt.jpg","",""
"null","<div style=""font-size:60px;""> </div>","null","fixation","html-keyboard-response","279","1220593","0.0-6.0-0.39","3811872","co37828","norming","","","","","","",""
"null","../img/tt/1268tt.jpg","null","mooney1","image-keyboard-response","280","1223604","0.0-6.0-1.39","3811872","co37828","norming","","","","","","",""
"5139.4049999071285","","","post_mooney1_questions","survey-likert","281","1228748","0.0-6.0-2.39","3811872","co37828","norming","","","{""curiosity"":5,""confidence"":0}","[0,1]","../img/tt/1268tt.jpg","",""
"4388.580000028014","","","recognition","survey-text","282","1233147","0.0-6.0-3.39","3811872","co37828","norming","","","{""guess"":""water pump""}","","../img/tt/1268tt.jpg","",""
"null","../img/gs/1268gs.jpg","null","reveal","image-keyboard-response","283","1235158","0.0-6.0-4.39","3811872","co37828","norming","","","","","","",""
"null","../img/tt/1268tt.jpg","null","mooney2","image-keyboard-response","284","1237162","0.0-6.0-5.39","3811872","co37828","norming","","","","","","",""
"5554.6399999875575","","","post_reveal_questions","survey-likert","285","1242720","0.0-6.0-6.39","3811872","co37828","norming","","","{""aha"":5}","[0]","../img/tt/1268tt.jpg","",""
"null","<div style=""font-size:60px;""> </div>","null","fixation","html-keyboard-response","286","1242927","0.0-6.0-0.40","3811872","co37828","norming","","","","","","",""
"null","../img/tt/416tt.jpg","null","mooney1","image-keyboard-response","287","1245932","0.0-6.0-1.40","3811872","co37828","norming","","","","","","",""
"17853.624999988824","","","post_mooney1_questions","survey-likert","288","1263790","0.0-6.0-2.40","3811872","co37828","norming","","","{""curiosity"":4,""confidence"":6}","[0,1]","../img/tt/416tt.jpg","",""
"4415.404999977909","","","recognition","survey-text","289","1268221","0.0-6.0-3.40","3811872","co37828","norming","","","{""guess"":""ostriches""}","","../img/tt/416tt.jpg","",""
"null","../img/gs/416gs.jpg","null","reveal","image-keyboard-response","290","1270226","0.0-6.0-4.40","3811872","co37828","norming","","","","","","",""
"null","../img/tt/416tt.jpg","null","mooney2","image-keyboard-response","291","1272228","0.0-6.0-5.40","3811872","co37828","norming","","","","","","",""
"11649.055000045337","","","post_reveal_questions","survey-likert","292","1283881","0.0-6.0-6.40","3811872","co37828","norming","","","{""aha"":0}","[0]","../img/tt/416tt.jpg","",""
"null","<div style=""font-size:60px;""> </div>","null","fixation","html-keyboard-response","293","1284086","0.0-6.0-0.41","3811872","co37828","norming","","","","","","",""
"null","../img/tt/1146tt.jpg","null","mooney1","image-keyboard-response","294","1287100","0.0-6.0-1.41","3811872","co37828","norming","","","","","","",""
"8844.57499999553","","","post_mooney1_questions","survey-likert","295","1295949","0.0-6.0-2.41","3811872","co37828","norming","","","{""curiosity"":5,""confidence"":1}","[0,1]","../img/tt/1146tt.jpg","",""
"12481.460000039078","","","recognition","survey-text","296","1308437","0.0-6.0-3.41","3811872","co37828","norming","","","{""guess"":""sitting person""}","","../img/tt/1146tt.jpg","",""
"null","../img/gs/1146gs.jpg","null","reveal","image-keyboard-response","297","1310443","0.0-6.0-4.41","3811872","co37828","norming","","","","","","",""
"null","../img/tt/1146tt.jpg","null","mooney2","image-keyboard-response","298","1312448","0.0-6.0-5.41","3811872","co37828","norming","","","","","","",""
"3837.030000053346","","","post_reveal_questions","survey-likert","299","1316288","0.0-6.0-6.41","3811872","co37828","norming","","","{""aha"":4}","[0]","../img/tt/1146tt.jpg","",""
"null","<div style=""font-size:60px;""> </div>","null","fixation","html-keyboard-response","300","1316494","0.0-6.0-0.42","3811872","co37828","norming","","","","","","",""
"null","../img/tt/273tt.jpg","null","mooney1","image-keyboard-response","301","1319497","0.0-6.0-1.42","3811872","co37828","norming","","","","","","",""
"7779.99000006821","","","post_mooney1_questions","survey-likert","302","1327283","0.0-6.0-2.42","3811872","co37828","norming","","","{""curiosity"":1,""confidence"":5}","[0,1]","../img/tt/273tt.jpg","",""
"4692.919999943115","","","recognition","survey-text","303","1331982","0.0-6.0-3.42","3811872","co37828","norming","","","{""guess"":""braces""}","","../img/tt/273tt.jpg","",""
"null","../img/gs/273gs.jpg","null","reveal","image-keyboard-response","304","1333989","0.0-6.0-4.42","3811872","co37828","norming","","","","","","",""
"null","../img/tt/273tt.jpg","null","mooney2","image-keyboard-response","305","1335994","0.0-6.0-5.42","3811872","co37828","norming","","","","","","",""
"3096.0500000510365","","","post_reveal_questions","survey-likert","306","1339093","0.0-6.0-6.42","3811872","co37828","norming","","","{""aha"":0}","[0]","../img/tt/273tt.jpg","",""
"null","<div style=""font-size:60px;""> </div>","null","fixation","html-keyboard-response","307","1339298","0.0-6.0-0.43","3811872","co37828","norming","","","","","","",""
"null","../img/tt/019tt.jpg","null","mooney1","image-keyboard-response","308","1342308","0.0-6.0-1.43","3811872","co37828","norming","","","","","","",""
"6459.88999994006","","","post_mooney1_questions","survey-likert","309","1348772","0.0-6.0-2.43","3811872","co37828","norming","","","{""curiosity"":4,""confidence"":2}","[0,1]","../img/tt/019tt.jpg","",""
"5616.0349999554455","","","recognition","survey-text","310","1354396","0.0-6.0-3.43","3811872","co37828","norming","","","{""guess"":""football shoes""}","","../img/tt/019tt.jpg","",""
"null","../img/gs/019gs.jpg","null","reveal","image-keyboard-response","311","1356417","0.0-6.0-4.43","3811872","co37828","norming","","","","","","",""
"null","../img/tt/019tt.jpg","null","mooney2","image-keyboard-response","312","1358426","0.0-6.0-5.43","3811872","co37828","norming","","","","","","",""
"4984.885000041686","","","post_reveal_questions","survey-likert","313","1363415","0.0-6.0-6.43","3811872","co37828","norming","","","{""aha"":4}","[0]","../img/tt/019tt.jpg","",""
"null","<div style=""font-size:60px;""> </div>","null","fixation","html-keyboard-response","314","1363623","0.0-6.0-0.44","3811872","co37828","norming","","","","","","",""
"null","../img/tt/1243tt.jpg","null","mooney1","image-keyboard-response","315","1366628","0.0-6.0-1.44","3811872","co37828","norming","","","","","","",""
"5896.115000010468","","","post_mooney1_questions","survey-likert","316","1372528","0.0-6.0-2.44","3811872","co37828","norming","","","{""curiosity"":4,""confidence"":1}","[0,1]","../img/tt/1243tt.jpg","",""
"3066.4899999974295","","","recognition","survey-text","317","1375602","0.0-6.0-3.44","3811872","co37828","norming","","","{""guess"":""monkey""}","","../img/tt/1243tt.jpg","",""
"null","../img/gs/1243gs.jpg","null","reveal","image-keyboard-response","318","1377610","0.0-6.0-4.44","3811872","co37828","norming","","","","","","",""
"null","../img/tt/1243tt.jpg","null","mooney2","image-keyboard-response","319","1379617","0.0-6.0-5.44","3811872","co37828","norming","","","","","","",""
"7579.909999971278","","","post_reveal_questions","survey-likert","320","1387201","0.0-6.0-6.44","3811872","co37828","norming","","","{""aha"":4}","[0]","../img/tt/1243tt.jpg","",""
"null","<div style=""font-size:60px;""> </div>","null","fixation","html-keyboard-response","321","1387407","0.0-6.0-0.45","3811872","co37828","norming","","","","","","",""
"null","../img/tt/1242tt.jpg","null","mooney1","image-keyboard-response","322","1390415","0.0-6.0-1.45","3811872","co37828","norming","","","","","","",""
"7145.054999971762","","","post_mooney1_questions","survey-likert","323","1397564","0.0-6.0-2.45","3811872","co37828","norming","","","{""curiosity"":3,""confidence"":5}","[0,1]","../img/tt/1242tt.jpg","",""
"3535.93999997247","","","recognition","survey-text","324","1401111","0.0-6.0-3.45","3811872","co37828","norming","","","{""guess"":""fox""}","","../img/tt/1242tt.jpg","",""
"null","../img/gs/1242gs.jpg","null","reveal","image-keyboard-response","325","1403121","0.0-6.0-4.45","3811872","co37828","norming","","","","","","",""
"null","../img/tt/1242tt.jpg","null","mooney2","image-keyboard-response","326","1405125","0.0-6.0-5.45","3811872","co37828","norming","","","","","","",""
"1607.1100000990555","","","post_reveal_questions","survey-likert","327","1406736","0.0-6.0-6.45","3811872","co37828","norming","","","{""aha"":1}","[0]","../img/tt/1242tt.jpg","",""
"null","<div style=""font-size:60px;""> </div>","null","fixation","html-keyboard-response","328","1406946","0.0-6.0-0.46","3811872","co37828","norming","","","","","","",""
"null","../img/tt/1254tt.jpg","null","mooney1","image-keyboard-response","329","1409951","0.0-6.0-1.46","3811872","co37828","norming","","","","","","",""
"5603.58500003349","","","post_mooney1_questions","survey-likert","330","1415562","0.0-6.0-2.46","3811872","co37828","norming","","","{""curiosity"":3,""confidence"":6}","[0,1]","../img/tt/1254tt.jpg","",""
"4410.534999915399","","","recognition","survey-text","331","1419982","0.0-6.0-3.46","3811872","co37828","norming","","","{""guess"":""rabbit""}","","../img/tt/1254tt.jpg","",""
"null","../img/gs/1254gs.jpg","null","reveal","image-keyboard-response","332","1421993","0.0-6.0-4.46","3811872","co37828","norming","","","","","","",""
"null","../img/tt/1254tt.jpg","null","mooney2","image-keyboard-response","333","1424000","0.0-6.0-5.46","3811872","co37828","norming","","","","","","",""
"4455.19999996759","","","post_reveal_questions","survey-likert","334","1428459","0.0-6.0-6.46","3811872","co37828","norming","","","{""aha"":0}","[0]","../img/tt/1254tt.jpg","",""
"null","<div style=""font-size:60px;""> </div>","null","fixation","html-keyboard-response","335","1428663","0.0-6.0-0.47","3811872","co37828","norming","","","","","","",""
"null","../img/tt/1123tt.jpg","null","mooney1","image-keyboard-response","336","1431670","0.0-6.0-1.47","3811872","co37828","norming","","","","","","",""
"4493.829999933951","","","post_mooney1_questions","survey-likert","337","1436168","0.0-6.0-2.47","3811872","co37828","norming","","","{""curiosity"":1,""confidence"":6}","[0,1]","../img/tt/1123tt.jpg","",""
"4731.195000000298","","","recognition","survey-text","338","1440905","0.0-6.0-3.47","3811872","co37828","norming","","","{""guess"":""volleyball""}","","../img/tt/1123tt.jpg","",""
"null","../img/gs/1123gs.jpg","null","reveal","image-keyboard-response","339","1442913","0.0-6.0-4.47","3811872","co37828","norming","","","","","","",""
"null","../img/tt/1123tt.jpg","null","mooney2","image-keyboard-response","340","1444916","0.0-6.0-5.47","3811872","co37828","norming","","","","","","",""
"2502.464999910444","","","post_reveal_questions","survey-likert","341","1447426","0.0-6.0-6.47","3811872","co37828","norming","","","{""aha"":2}","[0]","../img/tt/1123tt.jpg","",""
"null","<div style=""font-size:60px;""> </div>","null","fixation","html-keyboard-response","342","1447628","0.0-6.0-0.48","3811872","co37828","norming","","","","","","",""
"null","../img/tt/1127tt.jpg","null","mooney1","image-keyboard-response","343","1450635","0.0-6.0-1.48","3811872","co37828","norming","","","","","","",""
"8259.055000031367","","","post_mooney1_questions","survey-likert","344","1458898","0.0-6.0-2.48","3811872","co37828","norming","","","{""curiosity"":3,""confidence"":5}","[0,1]","../img/tt/1127tt.jpg","",""
"4375.464999931864","","","recognition","survey-text","345","1463281","0.0-6.0-3.48","3811872","co37828","norming","","","{""guess"":""karate""}","","../img/tt/1127tt.jpg","",""
"null","../img/gs/1127gs.jpg","null","reveal","image-keyboard-response","346","1465288","0.0-6.0-4.48","3811872","co37828","norming","","","","","","",""
"null","../img/tt/1127tt.jpg","null","mooney2","image-keyboard-response","347","1467291","0.0-6.0-5.48","3811872","co37828","norming","","","","","","",""
"2333.5799999767914","","","post_reveal_questions","survey-likert","348","1469629","0.0-6.0-6.48","3811872","co37828","norming","","","{""aha"":3}","[0]","../img/tt/1127tt.jpg","",""
"null","<div style=""font-size:60px;""> </div>","null","fixation","html-keyboard-response","349","1469839","0.0-6.0-0.49","3811872","co37828","norming","","","","","","",""
"null","../img/tt/436tt.jpg","null","mooney1","image-keyboard-response","350","1472843","0.0-6.0-1.49","3811872","co37828","norming","","","","","","",""
"7224.374999990687","","","post_mooney1_questions","survey-likert","351","1480072","0.0-6.0-2.49","3811872","co37828","norming","","","{""curiosity"":3,""confidence"":5}","[0,1]","../img/tt/436tt.jpg","",""
"5471.599999931641","","","recognition","survey-text","352","1485550","0.0-6.0-3.49","3811872","co37828","norming","","","{""guess"":""chameleon""}","","../img/tt/436tt.jpg","",""
"null","../img/gs/436gs.jpg","null","reveal","image-keyboard-response","353","1487559","0.0-6.0-4.49","3811872","co37828","norming","","","","","","",""
"null","../img/tt/436tt.jpg","null","mooney2","image-keyboard-response","354","1489566","0.0-6.0-5.49","3811872","co37828","norming","","","","","","",""
"2902.0650000311434","","","post_reveal_questions","survey-likert","355","1492472","0.0-6.0-6.49","3811872","co37828","norming","","","{""aha"":2}","[0]","../img/tt/436tt.jpg","",""
"null","<div style=""font-size:60px;""> </div>","null","fixation","html-keyboard-response","356","1492677","0.0-6.0-0.50","3811872","co37828","norming","","","","","","",""
"null","../img/tt/036tt.jpg","null","mooney1","image-keyboard-response","357","1495686","0.0-6.0-1.50","3811872","co37828","norming","","","","","","",""
"8241.629999945872","","","post_mooney1_questions","survey-likert","358","1503934","0.0-6.0-2.50","3811872","co37828","norming","","","{""curiosity"":3,""confidence"":3}","[0,1]","../img/tt/036tt.jpg","",""
"5646.769999992102","","","recognition","survey-text","359","1509588","0.0-6.0-3.50","3811872","co37828","norming","","","{""guess"":""spilled water""}","","../img/tt/036tt.jpg","",""
"null","../img/gs/036gs.jpg","null","reveal","image-keyboard-response","360","1511597","0.0-6.0-4.50","3811872","co37828","norming","","","","","","",""
"null","../img/tt/036tt.jpg","null","mooney2","image-keyboard-response","361","1513603","0.0-6.0-5.50","3811872","co37828","norming","","","","","","",""
"2707.4450000654906","","","post_reveal_questions","survey-likert","362","1516314","0.0-6.0-6.50","3811872","co37828","norming","","","{""aha"":5}","[0]","../img/tt/036tt.jpg","",""
"null","<div style=""font-size:60px;""> </div>","null","fixation","html-keyboard-response","363","1516520","0.0-6.0-0.51","3811872","co37828","norming","","","","","","",""
"null","../img/tt/194tt.jpg","null","mooney1","image-keyboard-response","364","1519541","0.0-6.0-1.51","3811872","co37828","norming","","","","","","",""
"5975.169999990612","","","post_mooney1_questions","survey-likert","365","1525525","0.0-6.0-2.51","3811872","co37828","norming","","","{""curiosity"":3,""confidence"":4}","[0,1]","../img/tt/194tt.jpg","",""
"3999.989999923855","","","recognition","survey-text","366","1529532","0.0-6.0-3.51","3811872","co37828","norming","","","{""guess"":""harpist""}","","../img/tt/194tt.jpg","",""
"null","../img/gs/194gs.jpg","null","reveal","image-keyboard-response","367","1531542","0.0-6.0-4.51","3811872","co37828","norming","","","","","","",""
"null","../img/tt/194tt.jpg","null","mooney2","image-keyboard-response","368","1533545","0.0-6.0-5.51","3811872","co37828","norming","","","","","","",""
"12727.300000027753","","","post_reveal_questions","survey-likert","369","1546276","0.0-6.0-6.51","3811872","co37828","norming","","","{""aha"":0}","[0]","../img/tt/194tt.jpg","",""
"null","<div style=""font-size:60px;""> </div>","null","fixation","html-keyboard-response","370","1546480","0.0-6.0-0.52","3811872","co37828","norming","","","","","","",""
"null","../img/tt/1269tt.jpg","null","mooney1","image-keyboard-response","371","1549495","0.0-6.0-1.52","3811872","co37828","norming","","","","","","",""
"9369.930000044405","","","post_mooney1_questions","survey-likert","372","1558873","0.0-6.0-2.52","3811872","co37828","norming","","","{""curiosity"":1,""confidence"":6}","[0,1]","../img/tt/1269tt.jpg","",""
"4147.205000044778","","","recognition","survey-text","373","1563034","0.0-6.0-3.52","3811872","co37828","norming","","","{""guess"":""squirrel""}","","../img/tt/1269tt.jpg","",""
"null","../img/gs/1269gs.jpg","null","reveal","image-keyboard-response","374","1565038","0.0-6.0-4.52","3811872","co37828","norming","","","","","","",""
"null","../img/tt/1269tt.jpg","null","mooney2","image-keyboard-response","375","1567043","0.0-6.0-5.52","3811872","co37828","norming","","","","","","",""
"2378.3149999799207","","","post_reveal_questions","survey-likert","376","1569425","0.0-6.0-6.52","3811872","co37828","norming","","","{""aha"":0}","[0]","../img/tt/1269tt.jpg","",""
"null","<div style=""font-size:60px;""> </div>","null","fixation","html-keyboard-response","377","1569630","0.0-6.0-0.53","3811872","co37828","norming","","","","","","",""
"null","../img/tt/1270tt.jpg","null","mooney1","image-keyboard-response","378","1572639","0.0-6.0-1.53","3811872","co37828","norming","","","","","","",""
"4557.479999959469","","","post_mooney1_questions","survey-likert","379","1577201","0.0-6.0-2.53","3811872","co37828","norming","","","{""curiosity"":5,""confidence"":2}","[0,1]","../img/tt/1270tt.jpg","",""
"3100.139999995008","","","recognition","survey-text","380","1580310","0.0-6.0-3.53","3811872","co37828","norming","","","{""guess"":""bull""}","","../img/tt/1270tt.jpg","",""
"null","../img/gs/1270gs.jpg","null","reveal","image-keyboard-response","381","1582319","0.0-6.0-4.53","3811872","co37828","norming","","","","","","",""
"null","../img/tt/1270tt.jpg","null","mooney2","image-keyboard-response","382","1584324","0.0-6.0-5.53","3811872","co37828","norming","","","","","","",""
"2618.9650000305846","","","post_reveal_questions","survey-likert","383","1586946","0.0-6.0-6.53","3811872","co37828","norming","","","{""aha"":4}","[0]","../img/tt/1270tt.jpg","",""
"null","<div style=""font-size:60px;""> </div>","null","fixation","html-keyboard-response","384","1587153","0.0-6.0-0.54","3811872","co37828","norming","","","","","","",""
"null","../img/tt/060tt.jpg","null","mooney1","image-keyboard-response","385","1590167","0.0-6.0-1.54","3811872","co37828","norming","","","","","","",""
"8153.51999993436","","","post_mooney1_questions","survey-likert","386","1598325","0.0-6.0-2.54","3811872","co37828","norming","","","{""curiosity"":4,""confidence"":3}","[0,1]","../img/tt/060tt.jpg","",""
"6413.474999950267","","","recognition","survey-text","387","1604746","0.0-6.0-3.54","3811872","co37828","norming","","","{""guess"":""guinea pig""}","","../img/tt/060tt.jpg","",""
"null","../img/gs/060gs.jpg","null","reveal","image-keyboard-response","388","1606751","0.0-6.0-4.54","3811872","co37828","norming","","","","","","",""
"null","../img/tt/060tt.jpg","null","mooney2","image-keyboard-response","389","1608754","0.0-6.0-5.54","3811872","co37828","norming","","","","","","",""
"2513.939999975264","","","post_reveal_questions","survey-likert","390","1611271","0.0-6.0-6.54","3811872","co37828","norming","","","{""aha"":6}","[0]","../img/tt/060tt.jpg","",""
"null","<div style=""font-size:60px;""> </div>","null","fixation","html-keyboard-response","391","1611475","0.0-6.0-0.55","3811872","co37828","norming","","","","","","",""
"null","../img/tt/1078tt.jpg","null","mooney1","image-keyboard-response","392","1614482","0.0-6.0-1.55","3811872","co37828","norming","","","","","","",""
"7222.770000109449","","","post_mooney1_questions","survey-likert","393","1621708","0.0-6.0-2.55","3811872","co37828","norming","","","{""curiosity"":2,""confidence"":4}","[0,1]","../img/tt/1078tt.jpg","",""
"5664.29500002414","","","recognition","survey-text","394","1627385","0.0-6.0-3.55","3811872","co37828","norming","","","{""guess"":""skate boarder""}","","../img/tt/1078tt.jpg","",""
"null","../img/gs/1078gs.jpg","null","reveal","image-keyboard-response","395","1629390","0.0-6.0-4.55","3811872","co37828","norming","","","","","","",""
"null","../img/tt/1078tt.jpg","null","mooney2","image-keyboard-response","396","1631394","0.0-6.0-5.55","3811872","co37828","norming","","","","","","",""
"3177.3199999006465","","","post_reveal_questions","survey-likert","397","1634575","0.0-6.0-6.55","3811872","co37828","norming","","","{""aha"":1}","[0]","../img/tt/1078tt.jpg","",""
"null","<div style=""font-size:60px;""> </div>","null","fixation","html-keyboard-response","398","1634785","0.0-6.0-0.56","3811872","co37828","norming","","","","","","",""
"null","../img/tt/096tt.jpg","null","mooney1","image-keyboard-response","399","1637788","0.0-6.0-1.56","3811872","co37828","norming","","","","","","",""
"4066.91499997396","","","post_mooney1_questions","survey-likert","400","1641860","0.0-6.0-2.56","3811872","co37828","norming","","","{""curiosity"":1,""confidence"":6}","[0,1]","../img/tt/096tt.jpg","",""
"4394.79500008747","","","recognition","survey-text","401","1646261","0.0-6.0-3.56","3811872","co37828","norming","","","{""guess"":""piano""}","","../img/tt/096tt.jpg","",""
"null","../img/gs/096gs.jpg","null","reveal","image-keyboard-response","402","1648266","0.0-6.0-4.56","3811872","co37828","norming","","","","","","",""
"null","../img/tt/096tt.jpg","null","mooney2","image-keyboard-response","403","1650270","0.0-6.0-5.56","3811872","co37828","norming","","","","","","",""
"2426.640000077896","","","post_reveal_questions","survey-likert","404","1652701","0.0-6.0-6.56","3811872","co37828","norming","","","{""aha"":0}","[0]","../img/tt/096tt.jpg","",""
"null","<div style=""font-size:60px;""> </div>","null","fixation","html-keyboard-response","405","1652912","0.0-6.0-0.57","3811872","co37828","norming","","","","","","",""
"null","../img/tt/1055tt.jpg","null","mooney1","image-keyboard-response","406","1655915","0.0-6.0-1.57","3811872","co37828","norming","","","","","","",""
"5566.3900000508875","","","post_mooney1_questions","survey-likert","407","1661486","0.0-6.0-2.57","3811872","co37828","norming","","","{""curiosity"":4,""confidence"":1}","[0,1]","../img/tt/1055tt.jpg","",""
"3629.2350000003353","","","recognition","survey-text","408","1665122","0.0-6.0-3.57","3811872","co37828","norming","","","{""guess"":""pancakes""}","","../img/tt/1055tt.jpg","",""
"null","../img/gs/1055gs.jpg","null","reveal","image-keyboard-response","409","1667125","0.0-6.0-4.57","3811872","co37828","norming","","","","","","",""
"null","../img/tt/1055tt.jpg","null","mooney2","image-keyboard-response","410","1669137","0.0-6.0-5.57","3811872","co37828","norming","","","","","","",""
"5141.434999997728","","","post_reveal_questions","survey-likert","411","1674282","0.0-6.0-6.57","3811872","co37828","norming","","","{""aha"":3}","[0]","../img/tt/1055tt.jpg","",""
"null","<div style=""font-size:60px;""> </div>","null","fixation","html-keyboard-response","412","1674485","0.0-6.0-0.58","3811872","co37828","norming","","","","","","",""
"null","../img/tt/1200tt.jpg","null","mooney1","image-keyboard-response","413","1677491","0.0-6.0-1.58","3811872","co37828","norming","","","","","","",""
"5515.604999964125","","","post_mooney1_questions","survey-likert","414","1683010","0.0-6.0-2.58","3811872","co37828","norming","","","{""curiosity"":3,""confidence"":5}","[0,1]","../img/tt/1200tt.jpg","",""
"3598.2350000413135","","","recognition","survey-text","415","1686615","0.0-6.0-3.58","3811872","co37828","norming","","","{""guess"":""cano""}","","../img/tt/1200tt.jpg","",""
"null","../img/gs/1200gs.jpg","null","reveal","image-keyboard-response","416","1688622","0.0-6.0-4.58","3811872","co37828","norming","","","","","","",""
"null","../img/tt/1200tt.jpg","null","mooney2","image-keyboard-response","417","1690630","0.0-6.0-5.58","3811872","co37828","norming","","","","","","",""
"3069.7149999905378","","","post_reveal_questions","survey-likert","418","1693703","0.0-6.0-6.58","3811872","co37828","norming","","","{""aha"":1}","[0]","../img/tt/1200tt.jpg","",""
"null","<div style=""font-size:60px;""> </div>","null","fixation","html-keyboard-response","419","1693907","0.0-6.0-0.59","3811872","co37828","norming","","","","","","",""
"null","../img/tt/1278tt.jpg","null","mooney1","image-keyboard-response","420","1696912","0.0-6.0-1.59","3811872","co37828","norming","","","","","","",""
"4992.755000013858","","","post_mooney1_questions","survey-likert","421","1701910","0.0-6.0-2.59","3811872","co37828","norming","","","{""curiosity"":4,""confidence"":1}","[0,1]","../img/tt/1278tt.jpg","",""
"4100.600000005215","","","recognition","survey-text","422","1706017","0.0-6.0-3.59","3811872","co37828","norming","","","{""guess"":""bulldog""}","","../img/tt/1278tt.jpg","",""
"null","../img/gs/1278gs.jpg","null","reveal","image-keyboard-response","423","1708024","0.0-6.0-4.59","3811872","co37828","norming","","","","","","",""
"null","../img/tt/1278tt.jpg","null","mooney2","image-keyboard-response","424","1710030","0.0-6.0-5.59","3811872","co37828","norming","","","","","","",""
"5846.694999956526","","","post_reveal_questions","survey-likert","425","1715881","0.0-6.0-6.59","3811872","co37828","norming","","","{""aha"":3}","[0]","../img/tt/1278tt.jpg","",""
"null","<div style=""font-size:60px;""> </div>","null","fixation","html-keyboard-response","426","1716095","0.0-6.0-0.60","3811872","co37828","norming","","","","","","",""
"null","../img/tt/1353tt.jpg","null","mooney1","image-keyboard-response","427","1719101","0.0-6.0-1.60","3811872","co37828","norming","","","","","","",""
"7147.955000051297","","","post_mooney1_questions","survey-likert","428","1726254","0.0-6.0-2.60","3811872","co37828","norming","","","{""curiosity"":3,""confidence"":5}","[0,1]","../img/tt/1353tt.jpg","",""
"4348.039999953471","","","recognition","survey-text","429","1730609","0.0-6.0-3.60","3811872","co37828","norming","","","{""guess"":""hamburger""}","","../img/tt/1353tt.jpg","",""
"null","../img/gs/1353gs.jpg","null","reveal","image-keyboard-response","430","1732613","0.0-6.0-4.60","3811872","co37828","norming","","","","","","",""
"null","../img/tt/1353tt.jpg","null","mooney2","image-keyboard-response","431","1734617","0.0-6.0-5.60","3811872","co37828","norming","","","","","","",""
"3577.144999988377","","","post_reveal_questions","survey-likert","432","1738198","0.0-6.0-6.60","3811872","co37828","norming","","","{""aha"":3}","[0]","../img/tt/1353tt.jpg","",""
"null","<div style=""font-size:60px;""> </div>","null","fixation","html-keyboard-response","433","1738402","0.0-6.0-0.61","3811872","co37828","norming","","","","","","",""
"null","../img/tt/1255tt.jpg","null","mooney1","image-keyboard-response","434","1741410","0.0-6.0-1.61","3811872","co37828","norming","","","","","","",""
"4265.639999997802","","","post_mooney1_questions","survey-likert","435","1745680","0.0-6.0-2.61","3811872","co37828","norming","","","{""curiosity"":3,""confidence"":4}","[0,1]","../img/tt/1255tt.jpg","",""
"2949.1249999264255","","","recognition","survey-text","436","1748639","0.0-6.0-3.61","3811872","co37828","norming","","","{""guess"":""bunny""}","","../img/tt/1255tt.jpg","",""
"null","../img/gs/1255gs.jpg","null","reveal","image-keyboard-response","437","1750643","0.0-6.0-4.61","3811872","co37828","norming","","","","","","",""
"null","../img/tt/1255tt.jpg","null","mooney2","image-keyboard-response","438","1752646","0.0-6.0-5.61","3811872","co37828","norming","","","","","","",""
"2348.3499999856576","","","post_reveal_questions","survey-likert","439","1754998","0.0-6.0-6.61","3811872","co37828","norming","","","{""aha"":0}","[0]","../img/tt/1255tt.jpg","",""
"null","<div style=""font-size:60px;""> </div>","null","fixation","html-keyboard-response","440","1755207","0.0-6.0-0.62","3811872","co37828","norming","","","","","","",""
"null","../img/tt/094tt.jpg","null","mooney1","image-keyboard-response","441","1758212","0.0-6.0-1.62","3811872","co37828","norming","","","","","","",""
"5017.164999968372","","","post_mooney1_questions","survey-likert","442","1763233","0.0-6.0-2.62","3811872","co37828","norming","","","{""curiosity"":3,""confidence"":4}","[0,1]","../img/tt/094tt.jpg","",""
"2105.459999991581","","","recognition","survey-text","443","1765346","0.0-6.0-3.62","3811872","co37828","norming","","","{""guess"":""cow""}","","../img/tt/094tt.jpg","",""
"null","../img/gs/094gs.jpg","null","reveal","image-keyboard-response","444","1767355","0.0-6.0-4.62","3811872","co37828","norming","","","","","","",""
"null","../img/tt/094tt.jpg","null","mooney2","image-keyboard-response","445","1769360","0.0-6.0-5.62","3811872","co37828","norming","","","","","","",""
"2821.3599999435246","","","post_reveal_questions","survey-likert","446","1772185","0.0-6.0-6.62","3811872","co37828","norming","","","{""aha"":4}","[0]","../img/tt/094tt.jpg","",""
"null","<div style=""font-size:60px;""> </div>","null","fixation","html-keyboard-response","447","1772389","0.0-6.0-0.63","3811872","co37828","norming","","","","","","",""
"null","../img/tt/163tt.jpg","null","mooney1","image-keyboard-response","448","1775394","0.0-6.0-1.63","3811872","co37828","norming","","","","","","",""
"6042.935000034049","","","post_mooney1_questions","survey-likert","449","1781442","0.0-6.0-2.63","3811872","co37828","norming","","","{""curiosity"":1,""confidence"":6}","[0,1]","../img/tt/163tt.jpg","",""
"3670.6499999854714","","","recognition","survey-text","450","1785156","0.0-6.0-3.63","3811872","co37828","norming","","","{""guess"":""flower""}","","../img/tt/163tt.jpg","",""
"null","../img/gs/163gs.jpg","null","reveal","image-keyboard-response","451","1787170","0.0-6.0-4.63","3811872","co37828","norming","","","","","","",""
"null","../img/tt/163tt.jpg","null","mooney2","image-keyboard-response","452","1789176","0.0-6.0-5.63","3811872","co37828","norming","","","","","","",""
"1828.5800000885502","","","post_reveal_questions","survey-likert","453","1791008","0.0-6.0-6.63","3811872","co37828","norming","","","{""aha"":5}","[0]","../img/tt/163tt.jpg","",""
"null","<div style=""font-size:60px;""> </div>","null","fixation","html-keyboard-response","454","1791212","0.0-6.0-0.64","3811872","co37828","norming","","","","","","",""
"null","../img/tt/603tt.jpg","null","mooney1","image-keyboard-response","455","1794216","0.0-6.0-1.64","3811872","co37828","norming","","","","","","",""
"4637.370000011288","","","post_mooney1_questions","survey-likert","456","1798858","0.0-6.0-2.64","3811872","co37828","norming","","","{""curiosity"":2,""confidence"":6}","[0,1]","../img/tt/603tt.jpg","",""
"2428.040000027977","","","recognition","survey-text","457","1801295","0.0-6.0-3.64","3811872","co37828","norming","","","{""guess"":""cat""}","","../img/tt/603tt.jpg","",""
"null","../img/gs/603gs.jpg","null","reveal","image-keyboard-response","458","1803302","0.0-6.0-4.64","3811872","co37828","norming","","","","","","",""
"null","../img/tt/603tt.jpg","null","mooney2","image-keyboard-response","459","1805305","0.0-6.0-5.64","3811872","co37828","norming","","","","","","",""
"3175.675000064075","","","post_reveal_questions","survey-likert","460","1808484","0.0-6.0-6.64","3811872","co37828","norming","","","{""aha"":0}","[0]","../img/tt/603tt.jpg","",""
"null","<div style=""font-size:60px;""> </div>","null","fixation","html-keyboard-response","461","1808689","0.0-6.0-0.65","3811872","co37828","norming","","","","","","",""
"null","../img/tt/079tt.jpg","null","mooney1","image-keyboard-response","462","1811692","0.0-6.0-1.65","3811872","co37828","norming","","","","","","",""
"4791.934999986552","","","post_mooney1_questions","survey-likert","463","1816491","0.0-6.0-2.65","3811872","co37828","norming","","","{""curiosity"":2,""confidence"":5}","[0,1]","../img/tt/079tt.jpg","",""
"4662.254999973811","","","recognition","survey-text","464","1821162","0.0-6.0-3.65","3811872","co37828","norming","","","{""guess"":""grizzly bear""}","","../img/tt/079tt.jpg","",""
"null","../img/gs/079gs.jpg","null","reveal","image-keyboard-response","465","1823169","0.0-6.0-4.65","3811872","co37828","norming","","","","","","",""
"null","../img/tt/079tt.jpg","null","mooney2","image-keyboard-response","466","1825172","0.0-6.0-5.65","3811872","co37828","norming","","","","","","",""
"2203.110000002198","","","post_reveal_questions","survey-likert","467","1827379","0.0-6.0-6.65","3811872","co37828","norming","","","{""aha"":0}","[0]","../img/tt/079tt.jpg","",""
"null","<div style=""font-size:60px;""> </div>","null","fixation","html-keyboard-response","468","1827588","0.0-6.0-0.66","3811872","co37828","norming","","","","","","",""
"null","../img/tt/052tt.jpg","null","mooney1","image-keyboard-response","469","1830599","0.0-6.0-1.66","3811872","co37828","norming","","","","","","",""
"7699.804999982007","","","post_mooney1_questions","survey-likert","470","1838303","0.0-6.0-2.66","3811872","co37828","norming","","","{""curiosity"":3,""confidence"":2}","[0,1]","../img/tt/052tt.jpg","",""
"2556.5049999859184","","","recognition","survey-text","471","1840866","0.0-6.0-3.66","3811872","co37828","norming","","","{""guess"":""cake""}","","../img/tt/052tt.jpg","",""
"null","../img/gs/052gs.jpg","null","reveal","image-keyboard-response","472","1842871","0.0-6.0-4.66","3811872","co37828","norming","","","","","","",""
"null","../img/tt/052tt.jpg","null","mooney2","image-keyboard-response","473","1844875","0.0-6.0-5.66","3811872","co37828","norming","","","","","","",""
"3433.474999968894","","","post_reveal_questions","survey-likert","474","1848313","0.0-6.0-6.66","3811872","co37828","norming","","","{""aha"":4}","[0]","../img/tt/052tt.jpg","",""
"null","<div style=""font-size:60px;""> </div>","null","fixation","html-keyboard-response","475","1848518","0.0-6.0-0.67","3811872","co37828","norming","","","","","","",""
"null","../img/tt/599tt.jpg","null","mooney1","image-keyboard-response","476","1851530","0.0-6.0-1.67","3811872","co37828","norming","","","","","","",""
"7447.9600000195205","","","post_mooney1_questions","survey-likert","477","1858982","0.0-6.0-2.67","3811872","co37828","norming","","","{""curiosity"":2,""confidence"":5}","[0,1]","../img/tt/599tt.jpg","",""
"2598.9549999358132","","","recognition","survey-text","478","1861592","0.0-6.0-3.67","3811872","co37828","norming","","","{""guess"":""owls""}","","../img/tt/599tt.jpg","",""
"null","../img/gs/599gs.jpg","null","reveal","image-keyboard-response","479","1863600","0.0-6.0-4.67","3811872","co37828","norming","","","","","","",""
"null","../img/tt/599tt.jpg","null","mooney2","image-keyboard-response","480","1865603","0.0-6.0-5.67","3811872","co37828","norming","","","","","","",""
"3872.540000011213","","","post_reveal_questions","survey-likert","481","1869480","0.0-6.0-6.67","3811872","co37828","norming","","","{""aha"":0}","[0]","../img/tt/599tt.jpg","",""
"null","<div style=""font-size:60px;""> </div>","null","fixation","html-keyboard-response","482","1869691","0.0-6.0-0.68","3811872","co37828","norming","","","","","","",""
"null","../img/tt/1097tt.jpg","null","mooney1","image-keyboard-response","483","1872698","0.0-6.0-1.68","3811872","co37828","norming","","","","","","",""
"13282.315000076778","","","post_mooney1_questions","survey-likert","484","1885985","0.0-6.0-2.68","3811872","co37828","norming","","","{""curiosity"":2,""confidence"":3}","[0,1]","../img/tt/1097tt.jpg","",""
"7320.074999937788","","","recognition","survey-text","485","1893311","0.0-6.0-3.68","3811872","co37828","norming","","","{""guess"":""surfboarding""}","","../img/tt/1097tt.jpg","",""
"null","../img/gs/1097gs.jpg","null","reveal","image-keyboard-response","486","1895315","0.0-6.0-4.68","3811872","co37828","norming","","","","","","",""
"null","../img/tt/1097tt.jpg","null","mooney2","image-keyboard-response","487","1897317","0.0-6.0-5.68","3811872","co37828","norming","","","","","","",""
"4388.789999997243","","","post_reveal_questions","survey-likert","488","1901709","0.0-6.0-6.68","3811872","co37828","norming","","","{""aha"":2}","[0]","../img/tt/1097tt.jpg","",""
"null","<div style=""font-size:60px;""> </div>","null","fixation","html-keyboard-response","489","1901913","0.0-6.0-0.69","3811872","co37828","norming","","","","","","",""
"null","../img/tt/507tt.jpg","null","mooney1","image-keyboard-response","490","1904924","0.0-6.0-1.69","3811872","co37828","norming","","","","","","",""
"8518.539999960922","","","post_mooney1_questions","survey-likert","491","1913446","0.0-6.0-2.69","3811872","co37828","norming","","","{""curiosity"":2,""confidence"":3}","[0,1]","../img/tt/507tt.jpg","",""
"3930.7999999728054","","","recognition","survey-text","492","1917384","0.0-6.0-3.69","3811872","co37828","norming","","","{""guess"":""statue""}","","../img/tt/507tt.jpg","",""
"null","../img/gs/507gs.jpg","null","reveal","image-keyboard-response","493","1919390","0.0-6.0-4.69","3811872","co37828","norming","","","","","","",""
"null","../img/tt/507tt.jpg","null","mooney2","image-keyboard-response","494","1921394","0.0-6.0-5.69","3811872","co37828","norming","","","","","","",""
"2685.994999948889","","","post_reveal_questions","survey-likert","495","1924084","0.0-6.0-6.69","3811872","co37828","norming","","","{""aha"":2}","[0]","../img/tt/507tt.jpg","",""
"null","<div style=""font-size:60px;""> </div>","null","fixation","html-keyboard-response","496","1924288","0.0-6.0-0.70","3811872","co37828","norming","","","","","","",""
"null","../img/tt/1080tt.jpg","null","mooney1","image-keyboard-response","497","1927295","0.0-6.0-1.70","3811872","co37828","norming","","","","","","",""
"6452.464999980293","","","post_mooney1_questions","survey-likert","498","1933751","0.0-6.0-2.70","3811872","co37828","norming","","","{""curiosity"":4,""confidence"":1}","[0,1]","../img/tt/1080tt.jpg","",""
"4075.550000066869","","","recognition","survey-text","499","1937834","0.0-6.0-3.70","3811872","co37828","norming","","","{""guess"":""bridge""}","","../img/tt/1080tt.jpg","",""
"null","../img/gs/1080gs.jpg","null","reveal","image-keyboard-response","500","1939839","0.0-6.0-4.70","3811872","co37828","norming","","","","","","",""
"null","../img/tt/1080tt.jpg","null","mooney2","image-keyboard-response","501","1941845","0.0-6.0-5.70","3811872","co37828","norming","","","","","","",""
"2915.9249999793246","","","post_reveal_questions","survey-likert","502","1944765","0.0-6.0-6.70","3811872","co37828","norming","","","{""aha"":5}","[0]","../img/tt/1080tt.jpg","",""
"null","<div style=""font-size:60px;""> </div>","null","fixation","html-keyboard-response","503","1944986","0.0-6.0-0.71","3811872","co37828","norming","","","","","","",""
"null","../img/tt/1227tt.jpg","null","mooney1","image-keyboard-response","504","1947991","0.0-6.0-1.71","3811872","co37828","norming","","","","","","",""
"4596.225000103004","","","post_mooney1_questions","survey-likert","505","1952592","0.0-6.0-2.71","3811872","co37828","norming","","","{""curiosity"":0,""confidence"":6}","[0,1]","../img/tt/1227tt.jpg","",""
"3846.9099999638274","","","recognition","survey-text","506","1956449","0.0-6.0-3.71","3811872","co37828","norming","","","{""guess"":""chickens""}","","../img/tt/1227tt.jpg","",""
"null","../img/gs/1227gs.jpg","null","reveal","image-keyboard-response","507","1958456","0.0-6.0-4.71","3811872","co37828","norming","","","","","","",""
"null","../img/tt/1227tt.jpg","null","mooney2","image-keyboard-response","508","1960459","0.0-6.0-5.71","3811872","co37828","norming","","","","","","",""
"2784.484999952838","","","post_reveal_questions","survey-likert","509","1963247","0.0-6.0-6.71","3811872","co37828","norming","","","{""aha"":0}","[0]","../img/tt/1227tt.jpg","",""
"null","<div style=""font-size:60px;""> </div>","null","fixation","html-keyboard-response","510","1963457","0.0-6.0-0.72","3811872","co37828","norming","","","","","","",""
"null","../img/tt/378tt.jpg","null","mooney1","image-keyboard-response","511","1966462","0.0-6.0-1.72","3811872","co37828","norming","","","","","","",""
"7385.415000026114","","","post_mooney1_questions","survey-likert","512","1973852","0.0-6.0-2.72","3811872","co37828","norming","","","{""curiosity"":5,""confidence"":1}","[0,1]","../img/tt/378tt.jpg","",""
"3891.539999982342","","","recognition","survey-text","513","1977750","0.0-6.0-3.72","3811872","co37828","norming","","","{""guess"":""sheep""}","","../img/tt/378tt.jpg","",""
"null","../img/gs/378gs.jpg","null","reveal","image-keyboard-response","514","1979764","0.0-6.0-4.72","3811872","co37828","norming","","","","","","",""
"null","../img/tt/378tt.jpg","null","mooney2","image-keyboard-response","515","1981768","0.0-6.0-5.72","3811872","co37828","norming","","","","","","",""
"3117.3600000329316","","","post_reveal_questions","survey-likert","516","1984889","0.0-6.0-6.72","3811872","co37828","norming","","","{""aha"":3}","[0]","../img/tt/378tt.jpg","",""
"null","<div style=""font-size:60px;""> </div>","null","fixation","html-keyboard-response","517","1985106","0.0-6.0-0.73","3811872","co37828","norming","","","","","","",""
"null","../img/tt/1101tt.jpg","null","mooney1","image-keyboard-response","518","1988123","0.0-6.0-1.73","3811872","co37828","norming","","","","","","",""
"7289.579999982379","","","post_mooney1_questions","survey-likert","519","1995419","0.0-6.0-2.73","3811872","co37828","norming","","","{""curiosity"":2,""confidence"":5}","[0,1]","../img/tt/1101tt.jpg","",""
"5114.304999937303","","","recognition","survey-text","520","2000551","0.0-6.0-3.73","3811872","co37828","norming","","","{""guess"":""sleeping person""}","","../img/tt/1101tt.jpg","",""
"null","../img/gs/1101gs.jpg","null","reveal","image-keyboard-response","521","2002554","0.0-6.0-4.73","3811872","co37828","norming","","","","","","",""
"null","../img/tt/1101tt.jpg","null","mooney2","image-keyboard-response","522","2004562","0.0-6.0-5.73","3811872","co37828","norming","","","","","","",""
"3355.600000009872","","","post_reveal_questions","survey-likert","523","2007921","0.0-6.0-6.73","3811872","co37828","norming","","","{""aha"":3}","[0]","../img/tt/1101tt.jpg","",""
"null","<div style=""font-size:60px;""> </div>","null","fixation","html-keyboard-response","524","2008125","0.0-6.0-0.74","3811872","co37828","norming","","","","","","",""
"null","../img/tt/046tt.jpg","null","mooney1","image-keyboard-response","525","2011145","0.0-6.0-1.74","3811872","co37828","norming","","","","","","",""
"5926.615000003949","","","post_mooney1_questions","survey-likert","526","2017076","0.0-6.0-2.74","3811872","co37828","norming","","","{""curiosity"":5,""confidence"":2}","[0,1]","../img/tt/046tt.jpg","",""
"3906.60999994725","","","recognition","survey-text","527","2020990","0.0-6.0-3.74","3811872","co37828","norming","","","{""guess"":""wolves""}","","../img/tt/046tt.jpg","",""
"null","../img/gs/046gs.jpg","null","reveal","image-keyboard-response","528","2022997","0.0-6.0-4.74","3811872","co37828","norming","","","","","","",""
"null","../img/tt/046tt.jpg","null","mooney2","image-keyboard-response","529","2025003","0.0-6.0-5.74","3811872","co37828","norming","","","","","","",""
"4996.550000039861","","","post_reveal_questions","survey-likert","530","2030003","0.0-6.0-6.74","3811872","co37828","norming","","","{""aha"":3}","[0]","../img/tt/046tt.jpg","",""
"null","<div style=""font-size:60px;""> </div>","null","fixation","html-keyboard-response","531","2030213","0.0-6.0-0.75","3811872","co37828","norming","","","","","","",""
"null","../img/tt/1275tt.jpg","null","mooney1","image-keyboard-response","532","2033220","0.0-6.0-1.75","3811872","co37828","norming","","","","","","",""
"5270.234999945387","","","post_mooney1_questions","survey-likert","533","2038499","0.0-6.0-2.75","3811872","co37828","norming","","","{""curiosity"":2,""confidence"":4}","[0,1]","../img/tt/1275tt.jpg","",""
"3026.56000002753","","","recognition","survey-text","534","2041532","0.0-6.0-3.75","3811872","co37828","norming","","","{""guess"":""pig""}","","../img/tt/1275tt.jpg","",""
"null","../img/gs/1275gs.jpg","null","reveal","image-keyboard-response","535","2043537","0.0-6.0-4.75","3811872","co37828","norming","","","","","","",""
"null","../img/tt/1275tt.jpg","null","mooney2","image-keyboard-response","536","2045543","0.0-6.0-5.75","3811872","co37828","norming","","","","","","",""
"6978.804999962449","","","post_reveal_questions","survey-likert","537","2052526","0.0-6.0-6.75","3811872","co37828","norming","","","{""aha"":1}","[0]","../img/tt/1275tt.jpg","",""
"null","<div style=""font-size:60px;""> </div>","null","fixation","html-keyboard-response","538","2052736","0.0-6.0-0.76","3811872","co37828","norming","","","","","","",""
"null","../img/tt/481tt.jpg","null","mooney1","image-keyboard-response","539","2055740","0.0-6.0-1.76","3811872","co37828","norming","","","","","","",""
"6753.969999961555","","","post_mooney1_questions","survey-likert","540","2062498","0.0-6.0-2.76","3811872","co37828","norming","","","{""curiosity"":2,""confidence"":5}","[0,1]","../img/tt/481tt.jpg","",""
"2527.8300000354648","","","recognition","survey-text","541","2065033","0.0-6.0-3.76","3811872","co37828","norming","","","{""guess"":""dog""}","","../img/tt/481tt.jpg","",""
"null","../img/gs/481gs.jpg","null","reveal","image-keyboard-response","542","2067043","0.0-6.0-4.76","3811872","co37828","norming","","","","","","",""
"null","../img/tt/481tt.jpg","null","mooney2","image-keyboard-response","543","2069049","0.0-6.0-5.76","3811872","co37828","norming","","","","","","",""
"2205.459999968298","","","post_reveal_questions","survey-likert","544","2071257","0.0-6.0-6.76","3811872","co37828","norming","","","{""aha"":1}","[0]","../img/tt/481tt.jpg","",""
"null","<div style=""font-size:60px;""> </div>","null","fixation","html-keyboard-response","545","2071465","0.0-6.0-0.77","3811872","co37828","norming","","","","","","",""
"null","../img/tt/081tt.jpg","null","mooney1","image-keyboard-response","546","2074469","0.0-6.0-1.77","3811872","co37828","norming","","","","","","",""
"6841.689999913797","","","post_mooney1_questions","survey-likert","547","2081315","0.0-6.0-2.77","3811872","co37828","norming","","","{""curiosity"":1,""confidence"":6}","[0,1]","../img/tt/081tt.jpg","",""
"2586.5900000790134","","","recognition","survey-text","548","2083909","0.0-6.0-3.77","3811872","co37828","norming","","","{""guess"":""frog""}","","../img/tt/081tt.jpg","",""
"null","../img/gs/081gs.jpg","null","reveal","image-keyboard-response","549","2085914","0.0-6.0-4.77","3811872","co37828","norming","","","","","","",""
"null","../img/tt/081tt.jpg","null","mooney2","image-keyboard-response","550","2087920","0.0-6.0-5.77","3811872","co37828","norming","","","","","","",""
