"rt","stimulus","key_press","test_part","trial_type","trial_index","time_elapsed","internal_node_id","totalTime","subject","experiment_name","button_pressed","success","responses","question_order","currentStim","old","correct"
"6694.999999999999","Welcome to the experiment. This is an online experiment so please don't close the tab/window until we say goodbye.  Press any key to begin.","32","instructions","html-keyboard-response","0","6709","0.0-0.0","2553877","co37912","norming","","","","","","",""
"2907","<div style='word-wrap: break-word; width: 900px'><h3>Please consider this information carefully before deciding whether to participate in this research</h3><ul style='text-align: left; font-size: .8em;'><li><b>Purpose of the research</b>: To examine how people process images.</li><li><b>What you will do in this research</b>:  Stimuli (images) will be presented on the computer and you will be asked different questions about them.</li><li><b>Time required</b>: Participation will take between 45 and 60 minutes to complete.</li><li><b>Risks</b>:  There are no anticipated risks associated with participating in this study. The effects of participating should be comparable to those you would experience from viewing a computer monitor for 30 minutes and using a mouse or keyboard.</li><li><b>Benefits</b>:  This study provides no benefits to you individually except for the credit. The study provides important information about the nature of perception and learning.</li><li><b>Confidentiality</b>:  Your participation in this study will remain confidential. No personally identifiable information will be associated with your data. Your de-identified data may be shared with other researchers and used in future projects.</li><li><b>Participation and withdrawal</b>:  Your participation in this study is completely voluntary and you may refuse to participate or you may choose to withdraw at any time without penalty.</li><li><b>How to contact the researchers</b>: If you have questions or concerns about your participation or payment, or want to request a summary of research findings, please contact Sander Van de Cruys (KU Leuven), at sander.vandecruys@kuleuven.be.</li></ul><p>The nature and purpose of this research have been sufficiently explained and I agree to participate in this study.  I understand that I am free to withdraw at any time without incurring any penalty.</p><p>Please consent by clicking the button below to continue. Otherwise, please exit the study at this time.</p></div>","","instructions","html-button-response","1","9618","0.0-1.0","2553877","co37912","norming","0","","","","","",""
"","","","instructions","fullscreen","2","12846","0.0-2.0","2553877","co37912","norming","","true","","","","",""
"25462","","","sona","survey-html-form","3","38311","0.0-3.0","2553877","co37912","norming","","","[{""name"":""sonaid"",""value"":""37912""},{""name"":""debrief"",""value"":""yes""},{""name"":""datajoin"",""value"":""yes""}]","","","",""
"36494","<div style='word-wrap: break-word; width: 900px'><h3>Instructions</h3><p>This experiment will have 3 parts. In the first part you will see a series of distorted images like the one below on the left. As you can see in the righthand image, the distorted images are derived from actual photographs. In what follows, you will <strong>briefly</strong> be presented with <strong>only</strong> the distorted image.</p> <div style='float: left; margin-right: 20px;'><img src='../img/018tt.jpg' height='250' width='250'></img></div><div style='float: right; margin-left: 20px;'><img src='../img/018gs.jpg' height='250' width='250'></img></div><p>Subsequently you will be asked a few questions about the image: One question on how <strong>curious</strong> you are about the solution and one on how <strong>confident</strong> you are that you know the solution.</p>Next, we ask you to make a guess on what is in the image. Note that it is OK to name just the <strong>basic level category</strong>. For example when you see a parrot in the image, 'parrot' will obviously be a correct answer but also correct is 'bird'. However, 'animal' will <strong>not</strong> be counted as a correct response. For the example above, 'rose' would be correct or 'flower', but not 'plant'. When soccer players are depicted, 'soccer', 'football', 'soccer players' will be correct, but not 'humans', 'outdoors', or 'sports'. You do not need to describe the image in full, just name the main object in it <strong>in one or two words</strong>. All images depict objects from one of the following broad level categories: animals, inanimate objects, plants, sports, vehicles, and food. Recognizing means knowing <strong>more</strong> than these broad labels for a given image. But we always encourage you to <strong>make a guess</strong> if you can. Note that you are allowed to use <strong>Dutch and English</strong> in your answers, whatever comes easiest for you.</p><p>Press any key to continue.</p></div>","32","instructions","html-keyboard-response","4","74807","0.0-4.0","2553877","co37912","norming","","","","","","",""
"11839","<div style='word-wrap: break-word; width: 900px'><h3>Instructions</h3> <p>Next, the solution image will be revealed to you and you'll be asked to indicate how strong your <strong>aha-experience</strong> was after seeing the solution. This describes the positive feeling of the 'click' you sometimes experience, when the pieces of the 'puzzle' fall together and you suddenly have 'insight' in the image.</p><img src='aha.jpg' height='188' width='250'></img><p>Note that there are no right or wrong answers. We are interested in what <strong>you</strong> see in the image and how <strong>you</strong> feel about it.</p><p>Press any key to start the experiment.</p></div>","32","instructions","html-keyboard-response","5","86647","0.0-5.0","2553877","co37912","norming","","","","","","",""
"null","<div style=""font-size:60px;""> </div>","null","fixation","html-keyboard-response","6","86850","0.0-6.0-0.0","2553877","co37912","norming","","","","","","",""
"null","../img/tt/1227tt.jpg","null","mooney1","image-keyboard-response","7","89853","0.0-6.0-1.0","2553877","co37912","norming","","","","","","",""
"5538.999999999985","","","post_mooney1_questions","survey-likert","8","95394","0.0-6.0-2.0","2553877","co37912","norming","","","{""curiosity"":4,""confidence"":1}","[0,1]","../img/tt/1227tt.jpg","",""
"3410","","","recognition","survey-text","9","98812","0.0-6.0-3.0","2553877","co37912","norming","","","{""guess"":""KIPPEN""}","","../img/tt/1227tt.jpg","",""
"null","../img/gs/1227gs.jpg","null","reveal","image-keyboard-response","10","100815","0.0-6.0-4.0","2553877","co37912","norming","","","","","","",""
"null","../img/tt/1227tt.jpg","null","mooney2","image-keyboard-response","11","102817","0.0-6.0-5.0","2553877","co37912","norming","","","","","","",""
"2399","","","post_reveal_questions","survey-likert","12","105218","0.0-6.0-6.0","2553877","co37912","norming","","","{""aha"":1}","[0]","../img/tt/1227tt.jpg","",""
"null","<div style=""font-size:60px;""> </div>","null","fixation","html-keyboard-response","13","105424","0.0-6.0-0.1","2553877","co37912","norming","","","","","","",""
"null","../img/tt/010tt.jpg","null","mooney1","image-keyboard-response","14","108426","0.0-6.0-1.1","2553877","co37912","norming","","","","","","",""
"6265.000000000015","","","post_mooney1_questions","survey-likert","15","114695","0.0-6.0-2.1","2553877","co37912","norming","","","{""curiosity"":4,""confidence"":1}","[0,1]","../img/tt/010tt.jpg","",""
"1965","","","recognition","survey-text","16","116669","0.0-6.0-3.1","2553877","co37912","norming","","","{""guess"":""HAND""}","","../img/tt/010tt.jpg","",""
"null","../img/gs/010gs.jpg","null","reveal","image-keyboard-response","17","118672","0.0-6.0-4.1","2553877","co37912","norming","","","","","","",""
"null","../img/tt/010tt.jpg","null","mooney2","image-keyboard-response","18","120674","0.0-6.0-5.1","2553877","co37912","norming","","","","","","",""
"2595","","","post_reveal_questions","survey-likert","19","123271","0.0-6.0-6.1","2553877","co37912","norming","","","{""aha"":2}","[0]","../img/tt/010tt.jpg","",""
"null","<div style=""font-size:60px;""> </div>","null","fixation","html-keyboard-response","20","123474","0.0-6.0-0.2","2553877","co37912","norming","","","","","","",""
"null","../img/tt/1241tt.jpg","null","mooney1","image-keyboard-response","21","126476","0.0-6.0-1.2","2553877","co37912","norming","","","","","","",""
"8342","","","post_mooney1_questions","survey-likert","22","134819","0.0-6.0-2.2","2553877","co37912","norming","","","{""curiosity"":4,""confidence"":1}","[0,1]","../img/tt/1241tt.jpg","",""
"3041","","","recognition","survey-text","23","137867","0.0-6.0-3.2","2553877","co37912","norming","","","{""guess"":""OLIFANT""}","","../img/tt/1241tt.jpg","",""
"null","../img/gs/1241gs.jpg","null","reveal","image-keyboard-response","24","139868","0.0-6.0-4.2","2553877","co37912","norming","","","","","","",""
"null","../img/tt/1241tt.jpg","null","mooney2","image-keyboard-response","25","141870","0.0-6.0-5.2","2553877","co37912","norming","","","","","","",""
"3846","","","post_reveal_questions","survey-likert","26","145718","0.0-6.0-6.2","2553877","co37912","norming","","","{""aha"":1}","[0]","../img/tt/1241tt.jpg","",""
"null","<div style=""font-size:60px;""> </div>","null","fixation","html-keyboard-response","27","145921","0.0-6.0-0.3","2553877","co37912","norming","","","","","","",""
"null","../img/tt/078tt.jpg","null","mooney1","image-keyboard-response","28","148924","0.0-6.0-1.3","2553877","co37912","norming","","","","","","",""
"7027","","","post_mooney1_questions","survey-likert","29","155954","0.0-6.0-2.3","2553877","co37912","norming","","","{""curiosity"":4,""confidence"":1}","[0,1]","../img/tt/078tt.jpg","",""
"2125","","","recognition","survey-text","30","158088","0.0-6.0-3.3","2553877","co37912","norming","","","{""guess"":""DRUIVEN""}","","../img/tt/078tt.jpg","",""
"null","../img/gs/078gs.jpg","null","reveal","image-keyboard-response","31","160090","0.0-6.0-4.3","2553877","co37912","norming","","","","","","",""
"null","../img/tt/078tt.jpg","null","mooney2","image-keyboard-response","32","162092","0.0-6.0-5.3","2553877","co37912","norming","","","","","","",""
"1808.000000000029","","","post_reveal_questions","survey-likert","33","163902","0.0-6.0-6.3","2553877","co37912","norming","","","{""aha"":1}","[0]","../img/tt/078tt.jpg","",""
"null","<div style=""font-size:60px;""> </div>","null","fixation","html-keyboard-response","34","164104","0.0-6.0-0.4","2553877","co37912","norming","","","","","","",""
"null","../img/tt/440tt.jpg","null","mooney1","image-keyboard-response","35","167105","0.0-6.0-1.4","2553877","co37912","norming","","","","","","",""
"4439","","","post_mooney1_questions","survey-likert","36","171546","0.0-6.0-2.4","2553877","co37912","norming","","","{""curiosity"":4,""confidence"":1}","[0,1]","../img/tt/440tt.jpg","",""
"3345","","","recognition","survey-text","37","174897","0.0-6.0-3.4","2553877","co37912","norming","","","{""guess"":""PAARD""}","","../img/tt/440tt.jpg","",""
"null","../img/gs/440gs.jpg","null","reveal","image-keyboard-response","38","176900","0.0-6.0-4.4","2553877","co37912","norming","","","","","","",""
"null","../img/tt/440tt.jpg","null","mooney2","image-keyboard-response","39","178902","0.0-6.0-5.4","2553877","co37912","norming","","","","","","",""
"3008","","","post_reveal_questions","survey-likert","40","181913","0.0-6.0-6.4","2553877","co37912","norming","","","{""aha"":3}","[0]","../img/tt/440tt.jpg","",""
"null","<div style=""font-size:60px;""> </div>","null","fixation","html-keyboard-response","41","182117","0.0-6.0-0.5","2553877","co37912","norming","","","","","","",""
"null","../img/tt/096tt.jpg","null","mooney1","image-keyboard-response","42","185119","0.0-6.0-1.5","2553877","co37912","norming","","","","","","",""
"5193","","","post_mooney1_questions","survey-likert","43","190315","0.0-6.0-2.5","2553877","co37912","norming","","","{""curiosity"":2,""confidence"":5}","[0,1]","../img/tt/096tt.jpg","",""
"2239","","","recognition","survey-text","44","192562","0.0-6.0-3.5","2553877","co37912","norming","","","{""guess"":""PIANO""}","","../img/tt/096tt.jpg","",""
"null","../img/gs/096gs.jpg","null","reveal","image-keyboard-response","45","194563","0.0-6.0-4.5","2553877","co37912","norming","","","","","","",""
"null","../img/tt/096tt.jpg","null","mooney2","image-keyboard-response","46","196565","0.0-6.0-5.5","2553877","co37912","norming","","","","","","",""
"1826","","","post_reveal_questions","survey-likert","47","198394","0.0-6.0-6.5","2553877","co37912","norming","","","{""aha"":2}","[0]","../img/tt/096tt.jpg","",""
"null","<div style=""font-size:60px;""> </div>","null","fixation","html-keyboard-response","48","198597","0.0-6.0-0.6","2553877","co37912","norming","","","","","","",""
"null","../img/tt/056tt.jpg","null","mooney1","image-keyboard-response","49","201600","0.0-6.0-1.6","2553877","co37912","norming","","","","","","",""
"5278","","","post_mooney1_questions","survey-likert","50","206880","0.0-6.0-2.6","2553877","co37912","norming","","","{""curiosity"":4,""confidence"":2}","[0,1]","../img/tt/056tt.jpg","",""
"2039","","","recognition","survey-text","51","208927","0.0-6.0-3.6","2553877","co37912","norming","","","{""guess"":""WOLF""}","","../img/tt/056tt.jpg","",""
"null","../img/gs/056gs.jpg","null","reveal","image-keyboard-response","52","210929","0.0-6.0-4.6","2553877","co37912","norming","","","","","","",""
"null","../img/tt/056tt.jpg","null","mooney2","image-keyboard-response","53","212931","0.0-6.0-5.6","2553877","co37912","norming","","","","","","",""
"2646.999999999971","","","post_reveal_questions","survey-likert","54","215580","0.0-6.0-6.6","2553877","co37912","norming","","","{""aha"":3}","[0]","../img/tt/056tt.jpg","",""
"null","<div style=""font-size:60px;""> </div>","null","fixation","html-keyboard-response","55","215782","0.0-6.0-0.7","2553877","co37912","norming","","","","","","",""
"null","../img/tt/1260tt.jpg","null","mooney1","image-keyboard-response","56","218783","0.0-6.0-1.7","2553877","co37912","norming","","","","","","",""
"10211","","","post_mooney1_questions","survey-likert","57","228996","0.0-6.0-2.7","2553877","co37912","norming","","","{""curiosity"":5,""confidence"":0}","[0,1]","../img/tt/1260tt.jpg","",""
"981","","","recognition","survey-text","58","229984","0.0-6.0-3.7","2553877","co37912","norming","","","{""guess"":""""}","","../img/tt/1260tt.jpg","",""
"null","../img/gs/1260gs.jpg","null","reveal","image-keyboard-response","59","231985","0.0-6.0-4.7","2553877","co37912","norming","","","","","","",""
"null","../img/tt/1260tt.jpg","null","mooney2","image-keyboard-response","60","233987","0.0-6.0-5.7","2553877","co37912","norming","","","","","","",""
"1931","","","post_reveal_questions","survey-likert","61","235920","0.0-6.0-6.7","2553877","co37912","norming","","","{""aha"":4}","[0]","../img/tt/1260tt.jpg","",""
"null","<div style=""font-size:60px;""> </div>","null","fixation","html-keyboard-response","62","236121","0.0-6.0-0.8","2553877","co37912","norming","","","","","","",""
"null","../img/tt/1228tt.jpg","null","mooney1","image-keyboard-response","63","239123","0.0-6.0-1.8","2553877","co37912","norming","","","","","","",""
"3551","","","post_mooney1_questions","survey-likert","64","242677","0.0-6.0-2.8","2553877","co37912","norming","","","{""curiosity"":4,""confidence"":1}","[0,1]","../img/tt/1228tt.jpg","",""
"1513","","","recognition","survey-text","65","244198","0.0-6.0-3.8","2553877","co37912","norming","","","{""guess"":""GANS""}","","../img/tt/1228tt.jpg","",""
"null","../img/gs/1228gs.jpg","null","reveal","image-keyboard-response","66","246200","0.0-6.0-4.8","2553877","co37912","norming","","","","","","",""
"null","../img/tt/1228tt.jpg","null","mooney2","image-keyboard-response","67","248202","0.0-6.0-5.8","2553877","co37912","norming","","","","","","",""
"1769","","","post_reveal_questions","survey-likert","68","249972","0.0-6.0-6.8","2553877","co37912","norming","","","{""aha"":3}","[0]","../img/tt/1228tt.jpg","",""
"null","<div style=""font-size:60px;""> </div>","null","fixation","html-keyboard-response","69","250175","0.0-6.0-0.9","2553877","co37912","norming","","","","","","",""
"null","../img/tt/1012tt.jpg","null","mooney1","image-keyboard-response","70","253177","0.0-6.0-1.9","2553877","co37912","norming","","","","","","",""
"6010","","","post_mooney1_questions","survey-likert","71","259189","0.0-6.0-2.9","2553877","co37912","norming","","","{""curiosity"":4,""confidence"":2}","[0,1]","../img/tt/1012tt.jpg","",""
"28575","","","recognition","survey-text","72","287773","0.0-6.0-3.9","2553877","co37912","norming","","","{""guess"":""PAARD""}","","../img/tt/1012tt.jpg","",""
"null","../img/gs/1012gs.jpg","null","reveal","image-keyboard-response","73","289775","0.0-6.0-4.9","2553877","co37912","norming","","","","","","",""
"null","../img/tt/1012tt.jpg","null","mooney2","image-keyboard-response","74","291776","0.0-6.0-5.9","2553877","co37912","norming","","","","","","",""
"2032","","","post_reveal_questions","survey-likert","75","293810","0.0-6.0-6.9","2553877","co37912","norming","","","{""aha"":2}","[0]","../img/tt/1012tt.jpg","",""
"null","<div style=""font-size:60px;""> </div>","null","fixation","html-keyboard-response","76","294013","0.0-6.0-0.10","2553877","co37912","norming","","","","","","",""
"null","../img/tt/123tt.jpg","null","mooney1","image-keyboard-response","77","297015","0.0-6.0-1.10","2553877","co37912","norming","","","","","","",""
"3397","","","post_mooney1_questions","survey-likert","78","300415","0.0-6.0-2.10","2553877","co37912","norming","","","{""curiosity"":4,""confidence"":1}","[0,1]","../img/tt/123tt.jpg","",""
"1596","","","recognition","survey-text","79","302020","0.0-6.0-3.10","2553877","co37912","norming","","","{""guess"":""BOOT""}","","../img/tt/123tt.jpg","",""
"null","../img/gs/123gs.jpg","null","reveal","image-keyboard-response","80","304022","0.0-6.0-4.10","2553877","co37912","norming","","","","","","",""
"null","../img/tt/123tt.jpg","null","mooney2","image-keyboard-response","81","306024","0.0-6.0-5.10","2553877","co37912","norming","","","","","","",""
"1167","","","post_reveal_questions","survey-likert","82","307193","0.0-6.0-6.10","2553877","co37912","norming","","","{""aha"":2}","[0]","../img/tt/123tt.jpg","",""
"null","<div style=""font-size:60px;""> </div>","null","fixation","html-keyboard-response","83","307396","0.0-6.0-0.11","2553877","co37912","norming","","","","","","",""
"null","../img/tt/1066tt.jpg","null","mooney1","image-keyboard-response","84","310399","0.0-6.0-1.11","2553877","co37912","norming","","","","","","",""
"3246.000000000058","","","post_mooney1_questions","survey-likert","85","313647","0.0-6.0-2.11","2553877","co37912","norming","","","{""curiosity"":4,""confidence"":1}","[0,1]","../img/tt/1066tt.jpg","",""
"2279","","","recognition","survey-text","86","315935","0.0-6.0-3.11","2553877","co37912","norming","","","{""guess"":""BUS""}","","../img/tt/1066tt.jpg","",""
"null","../img/gs/1066gs.jpg","null","reveal","image-keyboard-response","87","317938","0.0-6.0-4.11","2553877","co37912","norming","","","","","","",""
"null","../img/tt/1066tt.jpg","null","mooney2","image-keyboard-response","88","319940","0.0-6.0-5.11","2553877","co37912","norming","","","","","","",""
"1533","","","post_reveal_questions","survey-likert","89","321475","0.0-6.0-6.11","2553877","co37912","norming","","","{""aha"":3}","[0]","../img/tt/1066tt.jpg","",""
"null","<div style=""font-size:60px;""> </div>","null","fixation","html-keyboard-response","90","321678","0.0-6.0-0.12","2553877","co37912","norming","","","","","","",""
"null","../img/tt/1279tt.jpg","null","mooney1","image-keyboard-response","91","324680","0.0-6.0-1.12","2553877","co37912","norming","","","","","","",""
"6891","","","post_mooney1_questions","survey-likert","92","331574","0.0-6.0-2.12","2553877","co37912","norming","","","{""curiosity"":4,""confidence"":1}","[0,1]","../img/tt/1279tt.jpg","",""
"3234","","","recognition","survey-text","93","334816","0.0-6.0-3.12","2553877","co37912","norming","","","{""guess"":""""}","","../img/tt/1279tt.jpg","",""
"null","../img/gs/1279gs.jpg","null","reveal","image-keyboard-response","94","336817","0.0-6.0-4.12","2553877","co37912","norming","","","","","","",""
"null","../img/tt/1279tt.jpg","null","mooney2","image-keyboard-response","95","338820","0.0-6.0-5.12","2553877","co37912","norming","","","","","","",""
"1947","","","post_reveal_questions","survey-likert","96","340769","0.0-6.0-6.12","2553877","co37912","norming","","","{""aha"":1}","[0]","../img/tt/1279tt.jpg","",""
"null","<div style=""font-size:60px;""> </div>","null","fixation","html-keyboard-response","97","340971","0.0-6.0-0.13","2553877","co37912","norming","","","","","","",""
"null","../img/tt/194tt.jpg","null","mooney1","image-keyboard-response","98","343974","0.0-6.0-1.13","2553877","co37912","norming","","","","","","",""
"7950.000000000058","","","post_mooney1_questions","survey-likert","99","351927","0.0-6.0-2.13","2553877","co37912","norming","","","{""curiosity"":3,""confidence"":1}","[0,1]","../img/tt/194tt.jpg","",""
"1844","","","recognition","survey-text","100","353779","0.0-6.0-3.13","2553877","co37912","norming","","","{""guess"":""VROUW""}","","../img/tt/194tt.jpg","",""
"null","../img/gs/194gs.jpg","null","reveal","image-keyboard-response","101","355780","0.0-6.0-4.13","2553877","co37912","norming","","","","","","",""
"null","../img/tt/194tt.jpg","null","mooney2","image-keyboard-response","102","357782","0.0-6.0-5.13","2553877","co37912","norming","","","","","","",""
"2163","","","post_reveal_questions","survey-likert","103","359946","0.0-6.0-6.13","2553877","co37912","norming","","","{""aha"":2}","[0]","../img/tt/194tt.jpg","",""
"null","<div style=""font-size:60px;""> </div>","null","fixation","html-keyboard-response","104","360151","0.0-6.0-0.14","2553877","co37912","norming","","","","","","",""
"null","../img/tt/080tt.jpg","null","mooney1","image-keyboard-response","105","363153","0.0-6.0-1.14","2553877","co37912","norming","","","","","","",""
"7754","","","post_mooney1_questions","survey-likert","106","370910","0.0-6.0-2.14","2553877","co37912","norming","","","{""curiosity"":4,""confidence"":0}","[0,1]","../img/tt/080tt.jpg","",""
"1780","","","recognition","survey-text","107","372698","0.0-6.0-3.14","2553877","co37912","norming","","","{""guess"":""BERG""}","","../img/tt/080tt.jpg","",""
"null","../img/gs/080gs.jpg","null","reveal","image-keyboard-response","108","374699","0.0-6.0-4.14","2553877","co37912","norming","","","","","","",""
"null","../img/tt/080tt.jpg","null","mooney2","image-keyboard-response","109","376700","0.0-6.0-5.14","2553877","co37912","norming","","","","","","",""
"3055.999999999942","","","post_reveal_questions","survey-likert","110","379757","0.0-6.0-6.14","2553877","co37912","norming","","","{""aha"":3}","[0]","../img/tt/080tt.jpg","",""
"null","<div style=""font-size:60px;""> </div>","null","fixation","html-keyboard-response","111","379961","0.0-6.0-0.15","2553877","co37912","norming","","","","","","",""
"null","../img/tt/1084tt.jpg","null","mooney1","image-keyboard-response","112","382963","0.0-6.0-1.15","2553877","co37912","norming","","","","","","",""
"9960","","","post_mooney1_questions","survey-likert","113","392926","0.0-6.0-2.15","2553877","co37912","norming","","","{""curiosity"":4,""confidence"":1}","[0,1]","../img/tt/1084tt.jpg","",""
"1972.9999999999418","","","recognition","survey-text","114","394907","0.0-6.0-3.15","2553877","co37912","norming","","","{""guess"":""BORD""}","","../img/tt/1084tt.jpg","",""
"null","../img/gs/1084gs.jpg","null","reveal","image-keyboard-response","115","396908","0.0-6.0-4.15","2553877","co37912","norming","","","","","","",""
"null","../img/tt/1084tt.jpg","null","mooney2","image-keyboard-response","116","398910","0.0-6.0-5.15","2553877","co37912","norming","","","","","","",""
"5079","","","post_reveal_questions","survey-likert","117","403991","0.0-6.0-6.15","2553877","co37912","norming","","","{""aha"":4}","[0]","../img/tt/1084tt.jpg","",""
"null","<div style=""font-size:60px;""> </div>","null","fixation","html-keyboard-response","118","404194","0.0-6.0-0.16","2553877","co37912","norming","","","","","","",""
"null","../img/tt/1063tt.jpg","null","mooney1","image-keyboard-response","119","407196","0.0-6.0-1.16","2553877","co37912","norming","","","","","","",""
"5033","","","post_mooney1_questions","survey-likert","120","412232","0.0-6.0-2.16","2553877","co37912","norming","","","{""curiosity"":2,""confidence"":3}","[0,1]","../img/tt/1063tt.jpg","",""
"4640","","","recognition","survey-text","121","416879","0.0-6.0-3.16","2553877","co37912","norming","","","{""guess"":""PAARD""}","","../img/tt/1063tt.jpg","",""
"null","../img/gs/1063gs.jpg","null","reveal","image-keyboard-response","122","418880","0.0-6.0-4.16","2553877","co37912","norming","","","","","","",""
"null","../img/tt/1063tt.jpg","null","mooney2","image-keyboard-response","123","420883","0.0-6.0-5.16","2553877","co37912","norming","","","","","","",""
"2483","","","post_reveal_questions","survey-likert","124","423367","0.0-6.0-6.16","2553877","co37912","norming","","","{""aha"":0}","[0]","../img/tt/1063tt.jpg","",""
"null","<div style=""font-size:60px;""> </div>","null","fixation","html-keyboard-response","125","423568","0.0-6.0-0.17","2553877","co37912","norming","","","","","","",""
"null","../img/tt/1276tt.jpg","null","mooney1","image-keyboard-response","126","426570","0.0-6.0-1.17","2553877","co37912","norming","","","","","","",""
"3858.999999999942","","","post_mooney1_questions","survey-likert","127","430431","0.0-6.0-2.17","2553877","co37912","norming","","","{""curiosity"":4,""confidence"":1}","[0,1]","../img/tt/1276tt.jpg","",""
"1847","","","recognition","survey-text","128","432284","0.0-6.0-3.17","2553877","co37912","norming","","","{""guess"":""ZWIJN""}","","../img/tt/1276tt.jpg","",""
"null","../img/gs/1276gs.jpg","null","reveal","image-keyboard-response","129","434286","0.0-6.0-4.17","2553877","co37912","norming","","","","","","",""
"null","../img/tt/1276tt.jpg","null","mooney2","image-keyboard-response","130","436288","0.0-6.0-5.17","2553877","co37912","norming","","","","","","",""
"1280","","","post_reveal_questions","survey-likert","131","437571","0.0-6.0-6.17","2553877","co37912","norming","","","{""aha"":2}","[0]","../img/tt/1276tt.jpg","",""
"null","<div style=""font-size:60px;""> </div>","null","fixation","html-keyboard-response","132","437773","0.0-6.0-0.18","2553877","co37912","norming","","","","","","",""
"null","../img/tt/416tt.jpg","null","mooney1","image-keyboard-response","133","440774","0.0-6.0-1.18","2553877","co37912","norming","","","","","","",""
"6322","","","post_mooney1_questions","survey-likert","134","447098","0.0-6.0-2.18","2553877","co37912","norming","","","{""curiosity"":4,""confidence"":0}","[0,1]","../img/tt/416tt.jpg","",""
"3163","","","recognition","survey-text","135","450269","0.0-6.0-3.18","2553877","co37912","norming","","","{""guess"":""LANDSCHAP""}","","../img/tt/416tt.jpg","",""
"null","../img/gs/416gs.jpg","null","reveal","image-keyboard-response","136","452271","0.0-6.0-4.18","2553877","co37912","norming","","","","","","",""
"null","../img/tt/416tt.jpg","null","mooney2","image-keyboard-response","137","454272","0.0-6.0-5.18","2553877","co37912","norming","","","","","","",""
"2359","","","post_reveal_questions","survey-likert","138","456633","0.0-6.0-6.18","2553877","co37912","norming","","","{""aha"":1}","[0]","../img/tt/416tt.jpg","",""
"null","<div style=""font-size:60px;""> </div>","null","fixation","html-keyboard-response","139","456835","0.0-6.0-0.19","2553877","co37912","norming","","","","","","",""
"null","../img/tt/378tt.jpg","null","mooney1","image-keyboard-response","140","459838","0.0-6.0-1.19","2553877","co37912","norming","","","","","","",""
"3281","","","post_mooney1_questions","survey-likert","141","463120","0.0-6.0-2.19","2553877","co37912","norming","","","{""curiosity"":4,""confidence"":1}","[0,1]","../img/tt/378tt.jpg","",""
"3075","","","recognition","survey-text","142","466202","0.0-6.0-3.19","2553877","co37912","norming","","","{""guess"":""PUMA""}","","../img/tt/378tt.jpg","",""
"null","../img/gs/378gs.jpg","null","reveal","image-keyboard-response","143","468203","0.0-6.0-4.19","2553877","co37912","norming","","","","","","",""
"null","../img/tt/378tt.jpg","null","mooney2","image-keyboard-response","144","470205","0.0-6.0-5.19","2553877","co37912","norming","","","","","","",""
"1998","","","post_reveal_questions","survey-likert","145","472204","0.0-6.0-6.19","2553877","co37912","norming","","","{""aha"":4}","[0]","../img/tt/378tt.jpg","",""
"null","<div style=""font-size:60px;""> </div>","null","fixation","html-keyboard-response","146","472408","0.0-6.0-0.20","2553877","co37912","norming","","","","","","",""
"null","../img/tt/031tt.jpg","null","mooney1","image-keyboard-response","147","475410","0.0-6.0-1.20","2553877","co37912","norming","","","","","","",""
"5054.999999999942","","","post_mooney1_questions","survey-likert","148","480467","0.0-6.0-2.20","2553877","co37912","norming","","","{""curiosity"":3,""confidence"":1}","[0,1]","../img/tt/031tt.jpg","",""
"1841","","","recognition","survey-text","149","482314","0.0-6.0-3.20","2553877","co37912","norming","","","{""guess"":""KAT""}","","../img/tt/031tt.jpg","",""
"null","../img/gs/031gs.jpg","null","reveal","image-keyboard-response","150","484316","0.0-6.0-4.20","2553877","co37912","norming","","","","","","",""
"null","../img/tt/031tt.jpg","null","mooney2","image-keyboard-response","151","486318","0.0-6.0-5.20","2553877","co37912","norming","","","","","","",""
"1757","","","post_reveal_questions","survey-likert","152","488077","0.0-6.0-6.20","2553877","co37912","norming","","","{""aha"":3}","[0]","../img/tt/031tt.jpg","",""
"null","<div style=""font-size:60px;""> </div>","null","fixation","html-keyboard-response","153","488280","0.0-6.0-0.21","2553877","co37912","norming","","","","","","",""
"null","../img/tt/008tt.jpg","null","mooney1","image-keyboard-response","154","491283","0.0-6.0-1.21","2553877","co37912","norming","","","","","","",""
"5772","","","post_mooney1_questions","survey-likert","155","497056","0.0-6.0-2.21","2553877","co37912","norming","","","{""curiosity"":3,""confidence"":0}","[0,1]","../img/tt/008tt.jpg","",""
"1296","","","recognition","survey-text","156","498358","0.0-6.0-3.21","2553877","co37912","norming","","","{""guess"":""""}","","../img/tt/008tt.jpg","",""
"null","../img/gs/008gs.jpg","null","reveal","image-keyboard-response","157","500359","0.0-6.0-4.21","2553877","co37912","norming","","","","","","",""
"null","../img/tt/008tt.jpg","null","mooney2","image-keyboard-response","158","502360","0.0-6.0-5.21","2553877","co37912","norming","","","","","","",""
"3110","","","post_reveal_questions","survey-likert","159","505472","0.0-6.0-6.21","2553877","co37912","norming","","","{""aha"":2}","[0]","../img/tt/008tt.jpg","",""
"null","<div style=""font-size:60px;""> </div>","null","fixation","html-keyboard-response","160","505674","0.0-6.0-0.22","2553877","co37912","norming","","","","","","",""
"null","../img/tt/1353tt.jpg","null","mooney1","image-keyboard-response","161","508676","0.0-6.0-1.22","2553877","co37912","norming","","","","","","",""
"3768.000000000058","","","post_mooney1_questions","survey-likert","162","512446","0.0-6.0-2.22","2553877","co37912","norming","","","{""curiosity"":4,""confidence"":1}","[0,1]","../img/tt/1353tt.jpg","",""
"2837","","","recognition","survey-text","163","515290","0.0-6.0-3.22","2553877","co37912","norming","","","{""guess"":""BRILLENDOOS""}","","../img/tt/1353tt.jpg","",""
"null","../img/gs/1353gs.jpg","null","reveal","image-keyboard-response","164","517291","0.0-6.0-4.22","2553877","co37912","norming","","","","","","",""
"null","../img/tt/1353tt.jpg","null","mooney2","image-keyboard-response","165","519293","0.0-6.0-5.22","2553877","co37912","norming","","","","","","",""
"2428","","","post_reveal_questions","survey-likert","166","521723","0.0-6.0-6.22","2553877","co37912","norming","","","{""aha"":3}","[0]","../img/tt/1353tt.jpg","",""
"null","<div style=""font-size:60px;""> </div>","null","fixation","html-keyboard-response","167","521926","0.0-6.0-0.23","2553877","co37912","norming","","","","","","",""
"null","../img/tt/1078tt.jpg","null","mooney1","image-keyboard-response","168","524929","0.0-6.0-1.23","2553877","co37912","norming","","","","","","",""
"6309","","","post_mooney1_questions","survey-likert","169","531239","0.0-6.0-2.23","2553877","co37912","norming","","","{""curiosity"":2,""confidence"":1}","[0,1]","../img/tt/1078tt.jpg","",""
"8054","","","recognition","survey-text","170","539298","0.0-6.0-3.23","2553877","co37912","norming","","","{""guess"":""SKATEBOARD""}","","../img/tt/1078tt.jpg","",""
"null","../img/gs/1078gs.jpg","null","reveal","image-keyboard-response","171","541300","0.0-6.0-4.23","2553877","co37912","norming","","","","","","",""
"null","../img/tt/1078tt.jpg","null","mooney2","image-keyboard-response","172","543303","0.0-6.0-5.23","2553877","co37912","norming","","","","","","",""
"5773","","","post_reveal_questions","survey-likert","173","549078","0.0-6.0-6.23","2553877","co37912","norming","","","{""aha"":3}","[0]","../img/tt/1078tt.jpg","",""
"null","<div style=""font-size:60px;""> </div>","null","fixation","html-keyboard-response","174","549281","0.0-6.0-0.24","2553877","co37912","norming","","","","","","",""
"null","../img/tt/1048tt.jpg","null","mooney1","image-keyboard-response","175","552283","0.0-6.0-1.24","2553877","co37912","norming","","","","","","",""
"3348","","","post_mooney1_questions","survey-likert","176","555633","0.0-6.0-2.24","2553877","co37912","norming","","","{""curiosity"":3,""confidence"":1}","[0,1]","../img/tt/1048tt.jpg","",""
"1661","","","recognition","survey-text","177","557303","0.0-6.0-3.24","2553877","co37912","norming","","","{""guess"":""PAARD""}","","../img/tt/1048tt.jpg","",""
"null","../img/gs/1048gs.jpg","null","reveal","image-keyboard-response","178","559305","0.0-6.0-4.24","2553877","co37912","norming","","","","","","",""
"null","../img/tt/1048tt.jpg","null","mooney2","image-keyboard-response","179","561307","0.0-6.0-5.24","2553877","co37912","norming","","","","","","",""
"1327","","","post_reveal_questions","survey-likert","180","562636","0.0-6.0-6.24","2553877","co37912","norming","","","{""aha"":4}","[0]","../img/tt/1048tt.jpg","",""
"null","<div style=""font-size:60px;""> </div>","null","fixation","html-keyboard-response","181","562839","0.0-6.0-0.25","2553877","co37912","norming","","","","","","",""
"null","../img/tt/1142tt.jpg","null","mooney1","image-keyboard-response","182","565841","0.0-6.0-1.25","2553877","co37912","norming","","","","","","",""
"3009","","","post_mooney1_questions","survey-likert","183","568852","0.0-6.0-2.25","2553877","co37912","norming","","","{""curiosity"":2,""confidence"":1}","[0,1]","../img/tt/1142tt.jpg","",""
"2480","","","recognition","survey-text","184","571339","0.0-6.0-3.25","2553877","co37912","norming","","","{""guess"":""TENNIS""}","","../img/tt/1142tt.jpg","",""
"null","../img/gs/1142gs.jpg","null","reveal","image-keyboard-response","185","573341","0.0-6.0-4.25","2553877","co37912","norming","","","","","","",""
"null","../img/tt/1142tt.jpg","null","mooney2","image-keyboard-response","186","575343","0.0-6.0-5.25","2553877","co37912","norming","","","","","","",""
"1715","","","post_reveal_questions","survey-likert","187","577061","0.0-6.0-6.25","2553877","co37912","norming","","","{""aha"":3}","[0]","../img/tt/1142tt.jpg","",""
"null","<div style=""font-size:60px;""> </div>","null","fixation","html-keyboard-response","188","577265","0.0-6.0-0.26","2553877","co37912","norming","","","","","","",""
"null","../img/tt/1086tt.jpg","null","mooney1","image-keyboard-response","189","580267","0.0-6.0-1.26","2553877","co37912","norming","","","","","","",""
"3297","","","post_mooney1_questions","survey-likert","190","583566","0.0-6.0-2.26","2553877","co37912","norming","","","{""curiosity"":3,""confidence"":1}","[0,1]","../img/tt/1086tt.jpg","",""
"2165","","","recognition","survey-text","191","585738","0.0-6.0-3.26","2553877","co37912","norming","","","{""guess"":""WOLF""}","","../img/tt/1086tt.jpg","",""
"null","../img/gs/1086gs.jpg","null","reveal","image-keyboard-response","192","587740","0.0-6.0-4.26","2553877","co37912","norming","","","","","","",""
"null","../img/tt/1086tt.jpg","null","mooney2","image-keyboard-response","193","589741","0.0-6.0-5.26","2553877","co37912","norming","","","","","","",""
"2443","","","post_reveal_questions","survey-likert","194","592185","0.0-6.0-6.26","2553877","co37912","norming","","","{""aha"":4}","[0]","../img/tt/1086tt.jpg","",""
"null","<div style=""font-size:60px;""> </div>","null","fixation","html-keyboard-response","195","592389","0.0-6.0-0.27","2553877","co37912","norming","","","","","","",""
"null","../img/tt/1236tt.jpg","null","mooney1","image-keyboard-response","196","595390","0.0-6.0-1.27","2553877","co37912","norming","","","","","","",""
"4167","","","post_mooney1_questions","survey-likert","197","599558","0.0-6.0-2.27","2553877","co37912","norming","","","{""curiosity"":2,""confidence"":4}","[0,1]","../img/tt/1236tt.jpg","",""
"1772.0000000001164","","","recognition","survey-text","198","601336","0.0-6.0-3.27","2553877","co37912","norming","","","{""guess"":""EEND""}","","../img/tt/1236tt.jpg","",""
"null","../img/gs/1236gs.jpg","null","reveal","image-keyboard-response","199","603339","0.0-6.0-4.27","2553877","co37912","norming","","","","","","",""
"null","../img/tt/1236tt.jpg","null","mooney2","image-keyboard-response","200","605341","0.0-6.0-5.27","2553877","co37912","norming","","","","","","",""
"3241","","","post_reveal_questions","survey-likert","201","608584","0.0-6.0-6.27","2553877","co37912","norming","","","{""aha"":3}","[0]","../img/tt/1236tt.jpg","",""
"null","<div style=""font-size:60px;""> </div>","null","fixation","html-keyboard-response","202","608788","0.0-6.0-0.28","2553877","co37912","norming","","","","","","",""
"null","../img/tt/1096tt.jpg","null","mooney1","image-keyboard-response","203","611790","0.0-6.0-1.28","2553877","co37912","norming","","","","","","",""
"4916.000000000116","","","post_mooney1_questions","survey-likert","204","616707","0.0-6.0-2.28","2553877","co37912","norming","","","{""curiosity"":2,""confidence"":4}","[0,1]","../img/tt/1096tt.jpg","",""
"1962","","","recognition","survey-text","205","618675","0.0-6.0-3.28","2553877","co37912","norming","","","{""guess"":""PAARD""}","","../img/tt/1096tt.jpg","",""
"null","../img/gs/1096gs.jpg","null","reveal","image-keyboard-response","206","620677","0.0-6.0-4.28","2553877","co37912","norming","","","","","","",""
"null","../img/tt/1096tt.jpg","null","mooney2","image-keyboard-response","207","622680","0.0-6.0-5.28","2553877","co37912","norming","","","","","","",""
"2037","","","post_reveal_questions","survey-likert","208","624719","0.0-6.0-6.28","2553877","co37912","norming","","","{""aha"":1}","[0]","../img/tt/1096tt.jpg","",""
"null","<div style=""font-size:60px;""> </div>","null","fixation","html-keyboard-response","209","624921","0.0-6.0-0.29","2553877","co37912","norming","","","","","","",""
"null","../img/tt/1366tt.jpg","null","mooney1","image-keyboard-response","210","627923","0.0-6.0-1.29","2553877","co37912","norming","","","","","","",""
"4036","","","post_mooney1_questions","survey-likert","211","631961","0.0-6.0-2.29","2553877","co37912","norming","","","{""curiosity"":4,""confidence"":0}","[0,1]","../img/tt/1366tt.jpg","",""
"4500","","","recognition","survey-text","212","636468","0.0-6.0-3.29","2553877","co37912","norming","","","{""guess"":""BURRITO""}","","../img/tt/1366tt.jpg","",""
"null","../img/gs/1366gs.jpg","null","reveal","image-keyboard-response","213","638471","0.0-6.0-4.29","2553877","co37912","norming","","","","","","",""
"null","../img/tt/1366tt.jpg","null","mooney2","image-keyboard-response","214","640473","0.0-6.0-5.29","2553877","co37912","norming","","","","","","",""
"1853.0000000001164","","","post_reveal_questions","survey-likert","215","642327","0.0-6.0-6.29","2553877","co37912","norming","","","{""aha"":3}","[0]","../img/tt/1366tt.jpg","",""
"null","<div style=""font-size:60px;""> </div>","null","fixation","html-keyboard-response","216","642530","0.0-6.0-0.30","2553877","co37912","norming","","","","","","",""
"null","../img/tt/111tt.jpg","null","mooney1","image-keyboard-response","217","645531","0.0-6.0-1.30","2553877","co37912","norming","","","","","","",""
"3786","","","post_mooney1_questions","survey-likert","218","649318","0.0-6.0-2.30","2553877","co37912","norming","","","{""curiosity"":1,""confidence"":5}","[0,1]","../img/tt/111tt.jpg","",""
"2066","","","recognition","survey-text","219","651392","0.0-6.0-3.30","2553877","co37912","norming","","","{""guess"":""DOUCHE""}","","../img/tt/111tt.jpg","",""
"null","../img/gs/111gs.jpg","null","reveal","image-keyboard-response","220","653394","0.0-6.0-4.30","2553877","co37912","norming","","","","","","",""
"null","../img/tt/111tt.jpg","null","mooney2","image-keyboard-response","221","655396","0.0-6.0-5.30","2553877","co37912","norming","","","","","","",""
"1798","","","post_reveal_questions","survey-likert","222","657195","0.0-6.0-6.30","2553877","co37912","norming","","","{""aha"":0}","[0]","../img/tt/111tt.jpg","",""
"null","<div style=""font-size:60px;""> </div>","null","fixation","html-keyboard-response","223","657398","0.0-6.0-0.31","2553877","co37912","norming","","","","","","",""
"null","../img/tt/270tt.jpg","null","mooney1","image-keyboard-response","224","660400","0.0-6.0-1.31","2553877","co37912","norming","","","","","","",""
"4292","","","post_mooney1_questions","survey-likert","225","664696","0.0-6.0-2.31","2553877","co37912","norming","","","{""curiosity"":3,""confidence"":1}","[0,1]","../img/tt/270tt.jpg","",""
"1547","","","recognition","survey-text","226","666251","0.0-6.0-3.31","2553877","co37912","norming","","","{""guess"":""JAGER""}","","../img/tt/270tt.jpg","",""
"null","../img/gs/270gs.jpg","null","reveal","image-keyboard-response","227","668253","0.0-6.0-4.31","2553877","co37912","norming","","","","","","",""
"null","../img/tt/270tt.jpg","null","mooney2","image-keyboard-response","228","670256","0.0-6.0-5.31","2553877","co37912","norming","","","","","","",""
"1131","","","post_reveal_questions","survey-likert","229","671389","0.0-6.0-6.31","2553877","co37912","norming","","","{""aha"":3}","[0]","../img/tt/270tt.jpg","",""
"null","<div style=""font-size:60px;""> </div>","null","fixation","html-keyboard-response","230","671592","0.0-6.0-0.32","2553877","co37912","norming","","","","","","",""
"null","../img/tt/1261tt.jpg","null","mooney1","image-keyboard-response","231","674595","0.0-6.0-1.32","2553877","co37912","norming","","","","","","",""
"4540.000000000116","","","post_mooney1_questions","survey-likert","232","679136","0.0-6.0-2.32","2553877","co37912","norming","","","{""curiosity"":4,""confidence"":1}","[0,1]","../img/tt/1261tt.jpg","",""
"4635","","","recognition","survey-text","233","683779","0.0-6.0-3.32","2553877","co37912","norming","","","{""guess"":""LUIPAARD""}","","../img/tt/1261tt.jpg","",""
"null","../img/gs/1261gs.jpg","null","reveal","image-keyboard-response","234","685781","0.0-6.0-4.32","2553877","co37912","norming","","","","","","",""
"null","../img/tt/1261tt.jpg","null","mooney2","image-keyboard-response","235","687784","0.0-6.0-5.32","2553877","co37912","norming","","","","","","",""
"2141","","","post_reveal_questions","survey-likert","236","689927","0.0-6.0-6.32","2553877","co37912","norming","","","{""aha"":0}","[0]","../img/tt/1261tt.jpg","",""
"null","<div style=""font-size:60px;""> </div>","null","fixation","html-keyboard-response","237","690130","0.0-6.0-0.33","2553877","co37912","norming","","","","","","",""
"null","../img/tt/1116tt.jpg","null","mooney1","image-keyboard-response","238","693132","0.0-6.0-1.33","2553877","co37912","norming","","","","","","",""
"4797","","","post_mooney1_questions","survey-likert","239","697932","0.0-6.0-2.33","2553877","co37912","norming","","","{""curiosity"":4,""confidence"":0}","[0,1]","../img/tt/1116tt.jpg","",""
"1933","","","recognition","survey-text","240","699871","0.0-6.0-3.33","2553877","co37912","norming","","","{""guess"":""OEVER""}","","../img/tt/1116tt.jpg","",""
"null","../img/gs/1116gs.jpg","null","reveal","image-keyboard-response","241","701874","0.0-6.0-4.33","2553877","co37912","norming","","","","","","",""
"null","../img/tt/1116tt.jpg","null","mooney2","image-keyboard-response","242","703876","0.0-6.0-5.33","2553877","co37912","norming","","","","","","",""
"2604","","","post_reveal_questions","survey-likert","243","706482","0.0-6.0-6.33","2553877","co37912","norming","","","{""aha"":1}","[0]","../img/tt/1116tt.jpg","",""
"null","<div style=""font-size:60px;""> </div>","null","fixation","html-keyboard-response","244","706685","0.0-6.0-0.34","2553877","co37912","norming","","","","","","",""
"null","../img/tt/1278tt.jpg","null","mooney1","image-keyboard-response","245","709686","0.0-6.0-1.34","2553877","co37912","norming","","","","","","",""
"3199.0000000001164","","","post_mooney1_questions","survey-likert","246","712887","0.0-6.0-2.34","2553877","co37912","norming","","","{""curiosity"":3,""confidence"":1}","[0,1]","../img/tt/1278tt.jpg","",""
"1688","","","recognition","survey-text","247","714582","0.0-6.0-3.34","2553877","co37912","norming","","","{""guess"":""HOND""}","","../img/tt/1278tt.jpg","",""
"null","../img/gs/1278gs.jpg","null","reveal","image-keyboard-response","248","716584","0.0-6.0-4.34","2553877","co37912","norming","","","","","","",""
"null","../img/tt/1278tt.jpg","null","mooney2","image-keyboard-response","249","718586","0.0-6.0-5.34","2553877","co37912","norming","","","","","","",""
"1443.0000000001164","","","post_reveal_questions","survey-likert","250","720031","0.0-6.0-6.34","2553877","co37912","norming","","","{""aha"":4}","[0]","../img/tt/1278tt.jpg","",""
"null","<div style=""font-size:60px;""> </div>","null","fixation","html-keyboard-response","251","720233","0.0-6.0-0.35","2553877","co37912","norming","","","","","","",""
"null","../img/tt/1127tt.jpg","null","mooney1","image-keyboard-response","252","723235","0.0-6.0-1.35","2553877","co37912","norming","","","","","","",""
"5290","","","post_mooney1_questions","survey-likert","253","728528","0.0-6.0-2.35","2553877","co37912","norming","","","{""curiosity"":2,""confidence"":4}","[0,1]","../img/tt/1127tt.jpg","",""
"6313","","","recognition","survey-text","254","734848","0.0-6.0-3.35","2553877","co37912","norming","","","{""guess"":""SCHERMEN""}","","../img/tt/1127tt.jpg","",""
"null","../img/gs/1127gs.jpg","null","reveal","image-keyboard-response","255","736850","0.0-6.0-4.35","2553877","co37912","norming","","","","","","",""
"null","../img/tt/1127tt.jpg","null","mooney2","image-keyboard-response","256","738852","0.0-6.0-5.35","2553877","co37912","norming","","","","","","",""
"3955.9999999998836","","","post_reveal_questions","survey-likert","257","742810","0.0-6.0-6.35","2553877","co37912","norming","","","{""aha"":4}","[0]","../img/tt/1127tt.jpg","",""
"null","<div style=""font-size:60px;""> </div>","null","fixation","html-keyboard-response","258","743013","0.0-6.0-0.36","2553877","co37912","norming","","","","","","",""
"null","../img/tt/1200tt.jpg","null","mooney1","image-keyboard-response","259","746015","0.0-6.0-1.36","2553877","co37912","norming","","","","","","",""
"4289.000000000116","","","post_mooney1_questions","survey-likert","260","750306","0.0-6.0-2.36","2553877","co37912","norming","","","{""curiosity"":3,""confidence"":1}","[0,1]","../img/tt/1200tt.jpg","",""
"1517","","","recognition","survey-text","261","751829","0.0-6.0-3.36","2553877","co37912","norming","","","{""guess"":""BOOT""}","","../img/tt/1200tt.jpg","",""
"null","../img/gs/1200gs.jpg","null","reveal","image-keyboard-response","262","753831","0.0-6.0-4.36","2553877","co37912","norming","","","","","","",""
"null","../img/tt/1200tt.jpg","null","mooney2","image-keyboard-response","263","755833","0.0-6.0-5.36","2553877","co37912","norming","","","","","","",""
"3465.0000000001164","","","post_reveal_questions","survey-likert","264","759301","0.0-6.0-6.36","2553877","co37912","norming","","","{""aha"":2}","[0]","../img/tt/1200tt.jpg","",""
"null","<div style=""font-size:60px;""> </div>","null","fixation","html-keyboard-response","265","759503","0.0-6.0-0.37","2553877","co37912","norming","","","","","","",""
"null","../img/tt/091tt.jpg","null","mooney1","image-keyboard-response","266","762506","0.0-6.0-1.37","2553877","co37912","norming","","","","","","",""
"3463","","","post_mooney1_questions","survey-likert","267","765970","0.0-6.0-2.37","2553877","co37912","norming","","","{""curiosity"":3,""confidence"":1}","[0,1]","../img/tt/091tt.jpg","",""
"3494","","","recognition","survey-text","268","769471","0.0-6.0-3.37","2553877","co37912","norming","","","{""guess"":""KROKODIL""}","","../img/tt/091tt.jpg","",""
"null","../img/gs/091gs.jpg","null","reveal","image-keyboard-response","269","771473","0.0-6.0-4.37","2553877","co37912","norming","","","","","","",""
"null","../img/tt/091tt.jpg","null","mooney2","image-keyboard-response","270","773475","0.0-6.0-5.37","2553877","co37912","norming","","","","","","",""
"1516","","","post_reveal_questions","survey-likert","271","774993","0.0-6.0-6.37","2553877","co37912","norming","","","{""aha"":3}","[0]","../img/tt/091tt.jpg","",""
"null","<div style=""font-size:60px;""> </div>","null","fixation","html-keyboard-response","272","775195","0.0-6.0-0.38","2553877","co37912","norming","","","","","","",""
"null","../img/tt/1154tt.jpg","null","mooney1","image-keyboard-response","273","778198","0.0-6.0-1.38","2553877","co37912","norming","","","","","","",""
"5493","","","post_mooney1_questions","survey-likert","274","783693","0.0-6.0-2.38","2553877","co37912","norming","","","{""curiosity"":4,""confidence"":2}","[0,1]","../img/tt/1154tt.jpg","",""
"1807","","","recognition","survey-text","275","785506","0.0-6.0-3.38","2553877","co37912","norming","","","{""guess"":""KAJAK""}","","../img/tt/1154tt.jpg","",""
"null","../img/gs/1154gs.jpg","null","reveal","image-keyboard-response","276","787508","0.0-6.0-4.38","2553877","co37912","norming","","","","","","",""
"null","../img/tt/1154tt.jpg","null","mooney2","image-keyboard-response","277","789511","0.0-6.0-5.38","2553877","co37912","norming","","","","","","",""
"2783","","","post_reveal_questions","survey-likert","278","792295","0.0-6.0-6.38","2553877","co37912","norming","","","{""aha"":2}","[0]","../img/tt/1154tt.jpg","",""
"null","<div style=""font-size:60px;""> </div>","null","fixation","html-keyboard-response","279","792498","0.0-6.0-0.39","2553877","co37912","norming","","","","","","",""
"null","../img/tt/001tt.jpg","null","mooney1","image-keyboard-response","280","795500","0.0-6.0-1.39","2553877","co37912","norming","","","","","","",""
"3644","","","post_mooney1_questions","survey-likert","281","799145","0.0-6.0-2.39","2553877","co37912","norming","","","{""curiosity"":1,""confidence"":5}","[0,1]","../img/tt/001tt.jpg","",""
"2549","","","recognition","survey-text","282","801704","0.0-6.0-3.39","2553877","co37912","norming","","","{""guess"":""UIL""}","","../img/tt/001tt.jpg","",""
"null","../img/gs/001gs.jpg","null","reveal","image-keyboard-response","283","803705","0.0-6.0-4.39","2553877","co37912","norming","","","","","","",""
"null","../img/tt/001tt.jpg","null","mooney2","image-keyboard-response","284","805706","0.0-6.0-5.39","2553877","co37912","norming","","","","","","",""
"1347","","","post_reveal_questions","survey-likert","285","807055","0.0-6.0-6.39","2553877","co37912","norming","","","{""aha"":0}","[0]","../img/tt/001tt.jpg","",""
"null","<div style=""font-size:60px;""> </div>","null","fixation","html-keyboard-response","286","807259","0.0-6.0-0.40","2553877","co37912","norming","","","","","","",""
"null","../img/tt/1002tt.jpg","null","mooney1","image-keyboard-response","287","810261","0.0-6.0-1.40","2553877","co37912","norming","","","","","","",""
"3622","","","post_mooney1_questions","survey-likert","288","813885","0.0-6.0-2.40","2553877","co37912","norming","","","{""curiosity"":2,""confidence"":3}","[0,1]","../img/tt/1002tt.jpg","",""
"1501","","","recognition","survey-text","289","815392","0.0-6.0-3.40","2553877","co37912","norming","","","{""guess"":""BEER""}","","../img/tt/1002tt.jpg","",""
"null","../img/gs/1002gs.jpg","null","reveal","image-keyboard-response","290","817394","0.0-6.0-4.40","2553877","co37912","norming","","","","","","",""
"null","../img/tt/1002tt.jpg","null","mooney2","image-keyboard-response","291","819396","0.0-6.0-5.40","2553877","co37912","norming","","","","","","",""
"1312","","","post_reveal_questions","survey-likert","292","820709","0.0-6.0-6.40","2553877","co37912","norming","","","{""aha"":0}","[0]","../img/tt/1002tt.jpg","",""
"null","<div style=""font-size:60px;""> </div>","null","fixation","html-keyboard-response","293","820912","0.0-6.0-0.41","2553877","co37912","norming","","","","","","",""
"null","../img/tt/1205tt.jpg","null","mooney1","image-keyboard-response","294","823915","0.0-6.0-1.41","2553877","co37912","norming","","","","","","",""
"3470","","","post_mooney1_questions","survey-likert","295","827388","0.0-6.0-2.41","2553877","co37912","norming","","","{""curiosity"":4,""confidence"":0}","[0,1]","../img/tt/1205tt.jpg","",""
"1530","","","recognition","survey-text","296","828926","0.0-6.0-3.41","2553877","co37912","norming","","","{""guess"":""""}","","../img/tt/1205tt.jpg","",""
"null","../img/gs/1205gs.jpg","null","reveal","image-keyboard-response","297","830929","0.0-6.0-4.41","2553877","co37912","norming","","","","","","",""
"null","../img/tt/1205tt.jpg","null","mooney2","image-keyboard-response","298","832931","0.0-6.0-5.41","2553877","co37912","norming","","","","","","",""
"2660.9999999998836","","","post_reveal_questions","survey-likert","299","835594","0.0-6.0-6.41","2553877","co37912","norming","","","{""aha"":2}","[0]","../img/tt/1205tt.jpg","",""
"null","<div style=""font-size:60px;""> </div>","null","fixation","html-keyboard-response","300","835797","0.0-6.0-0.42","2553877","co37912","norming","","","","","","",""
"null","../img/tt/517tt.jpg","null","mooney1","image-keyboard-response","301","838799","0.0-6.0-1.42","2553877","co37912","norming","","","","","","",""
"3278","","","post_mooney1_questions","survey-likert","302","842080","0.0-6.0-2.42","2553877","co37912","norming","","","{""curiosity"":3,""confidence"":0}","[0,1]","../img/tt/517tt.jpg","",""
"4328","","","recognition","survey-text","303","846416","0.0-6.0-3.42","2553877","co37912","norming","","","{""guess"":""STOKSTAARTJE""}","","../img/tt/517tt.jpg","",""
"null","../img/gs/517gs.jpg","null","reveal","image-keyboard-response","304","848419","0.0-6.0-4.42","2553877","co37912","norming","","","","","","",""
"null","../img/tt/517tt.jpg","null","mooney2","image-keyboard-response","305","850421","0.0-6.0-5.42","2553877","co37912","norming","","","","","","",""
"1055","","","post_reveal_questions","survey-likert","306","851479","0.0-6.0-6.42","2553877","co37912","norming","","","{""aha"":2}","[0]","../img/tt/517tt.jpg","",""
"null","<div style=""font-size:60px;""> </div>","null","fixation","html-keyboard-response","307","851682","0.0-6.0-0.43","2553877","co37912","norming","","","","","","",""
"null","../img/tt/279tt.jpg","null","mooney1","image-keyboard-response","308","854684","0.0-6.0-1.43","2553877","co37912","norming","","","","","","",""
"4710","","","post_mooney1_questions","survey-likert","309","859396","0.0-6.0-2.43","2553877","co37912","norming","","","{""curiosity"":1,""confidence"":6}","[0,1]","../img/tt/279tt.jpg","",""
"2430.0000000001164","","","recognition","survey-text","310","861832","0.0-6.0-3.43","2553877","co37912","norming","","","{""guess"":""KOALA""}","","../img/tt/279tt.jpg","",""
"null","../img/gs/279gs.jpg","null","reveal","image-keyboard-response","311","863833","0.0-6.0-4.43","2553877","co37912","norming","","","","","","",""
"null","../img/tt/279tt.jpg","null","mooney2","image-keyboard-response","312","865835","0.0-6.0-5.43","2553877","co37912","norming","","","","","","",""
"1338.9999999998836","","","post_reveal_questions","survey-likert","313","867176","0.0-6.0-6.43","2553877","co37912","norming","","","{""aha"":1}","[0]","../img/tt/279tt.jpg","",""
"null","<div style=""font-size:60px;""> </div>","null","fixation","html-keyboard-response","314","867378","0.0-6.0-0.44","2553877","co37912","norming","","","","","","",""
"null","../img/tt/1049tt.jpg","null","mooney1","image-keyboard-response","315","870380","0.0-6.0-1.44","2553877","co37912","norming","","","","","","",""
"3864","","","post_mooney1_questions","survey-likert","316","874246","0.0-6.0-2.44","2553877","co37912","norming","","","{""curiosity"":4,""confidence"":0}","[0,1]","../img/tt/1049tt.jpg","",""
"1294","","","recognition","survey-text","317","875547","0.0-6.0-3.44","2553877","co37912","norming","","","{""guess"":""""}","","../img/tt/1049tt.jpg","",""
"null","../img/gs/1049gs.jpg","null","reveal","image-keyboard-response","318","877549","0.0-6.0-4.44","2553877","co37912","norming","","","","","","",""
"null","../img/tt/1049tt.jpg","null","mooney2","image-keyboard-response","319","879551","0.0-6.0-5.44","2553877","co37912","norming","","","","","","",""
"2104","","","post_reveal_questions","survey-likert","320","881656","0.0-6.0-6.44","2553877","co37912","norming","","","{""aha"":4}","[0]","../img/tt/1049tt.jpg","",""
"null","<div style=""font-size:60px;""> </div>","null","fixation","html-keyboard-response","321","881860","0.0-6.0-0.45","2553877","co37912","norming","","","","","","",""
"null","../img/tt/1151tt.jpg","null","mooney1","image-keyboard-response","322","884862","0.0-6.0-1.45","2553877","co37912","norming","","","","","","",""
"4810","","","post_mooney1_questions","survey-likert","323","889674","0.0-6.0-2.45","2553877","co37912","norming","","","{""curiosity"":3,""confidence"":1}","[0,1]","../img/tt/1151tt.jpg","",""
"4325","","","recognition","survey-text","324","894008","0.0-6.0-3.45","2553877","co37912","norming","","","{""guess"":""BERGBEKLIMMEN""}","","../img/tt/1151tt.jpg","",""
"null","../img/gs/1151gs.jpg","null","reveal","image-keyboard-response","325","896010","0.0-6.0-4.45","2553877","co37912","norming","","","","","","",""
"null","../img/tt/1151tt.jpg","null","mooney2","image-keyboard-response","326","898011","0.0-6.0-5.45","2553877","co37912","norming","","","","","","",""
"1767","","","post_reveal_questions","survey-likert","327","899779","0.0-6.0-6.45","2553877","co37912","norming","","","{""aha"":3}","[0]","../img/tt/1151tt.jpg","",""
"null","<div style=""font-size:60px;""> </div>","null","fixation","html-keyboard-response","328","899983","0.0-6.0-0.46","2553877","co37912","norming","","","","","","",""
"null","../img/tt/353tt.jpg","null","mooney1","image-keyboard-response","329","902985","0.0-6.0-1.46","2553877","co37912","norming","","","","","","",""
"3767","","","post_mooney1_questions","survey-likert","330","906754","0.0-6.0-2.46","2553877","co37912","norming","","","{""curiosity"":2,""confidence"":4}","[0,1]","../img/tt/353tt.jpg","",""
"5256","","","recognition","survey-text","331","912018","0.0-6.0-3.46","2553877","co37912","norming","","","{""guess"":""PINGUIN""}","","../img/tt/353tt.jpg","",""
"null","../img/gs/353gs.jpg","null","reveal","image-keyboard-response","332","914019","0.0-6.0-4.46","2553877","co37912","norming","","","","","","",""
"null","../img/tt/353tt.jpg","null","mooney2","image-keyboard-response","333","916021","0.0-6.0-5.46","2553877","co37912","norming","","","","","","",""
"1494.0000000001164","","","post_reveal_questions","survey-likert","334","917516","0.0-6.0-6.46","2553877","co37912","norming","","","{""aha"":0}","[0]","../img/tt/353tt.jpg","",""
"null","<div style=""font-size:60px;""> </div>","null","fixation","html-keyboard-response","335","917718","0.0-6.0-0.47","2553877","co37912","norming","","","","","","",""
"null","../img/tt/064tt.jpg","null","mooney1","image-keyboard-response","336","920719","0.0-6.0-1.47","2553877","co37912","norming","","","","","","",""
"3184","","","post_mooney1_questions","survey-likert","337","923905","0.0-6.0-2.47","2553877","co37912","norming","","","{""curiosity"":3,""confidence"":1}","[0,1]","../img/tt/064tt.jpg","",""
"4292.000000000116","","","recognition","survey-text","338","928204","0.0-6.0-3.47","2553877","co37912","norming","","","{""guess"":""SCHILDPAD""}","","../img/tt/064tt.jpg","",""
"null","../img/gs/064gs.jpg","null","reveal","image-keyboard-response","339","930207","0.0-6.0-4.47","2553877","co37912","norming","","","","","","",""
"null","../img/tt/064tt.jpg","null","mooney2","image-keyboard-response","340","932210","0.0-6.0-5.47","2553877","co37912","norming","","","","","","",""
"1354.9999999998836","","","post_reveal_questions","survey-likert","341","933568","0.0-6.0-6.47","2553877","co37912","norming","","","{""aha"":2}","[0]","../img/tt/064tt.jpg","",""
"null","<div style=""font-size:60px;""> </div>","null","fixation","html-keyboard-response","342","933771","0.0-6.0-0.48","2553877","co37912","norming","","","","","","",""
"null","../img/tt/1188tt.jpg","null","mooney1","image-keyboard-response","343","936772","0.0-6.0-1.48","2553877","co37912","norming","","","","","","",""
"3563","","","post_mooney1_questions","survey-likert","344","940338","0.0-6.0-2.48","2553877","co37912","norming","","","{""curiosity"":1,""confidence"":4}","[0,1]","../img/tt/1188tt.jpg","",""
"3626","","","recognition","survey-text","345","943972","0.0-6.0-3.48","2553877","co37912","norming","","","{""guess"":""WIELRENNER""}","","../img/tt/1188tt.jpg","",""
"null","../img/gs/1188gs.jpg","null","reveal","image-keyboard-response","346","945973","0.0-6.0-4.48","2553877","co37912","norming","","","","","","",""
"null","../img/tt/1188tt.jpg","null","mooney2","image-keyboard-response","347","947975","0.0-6.0-5.48","2553877","co37912","norming","","","","","","",""
"2611","","","post_reveal_questions","survey-likert","348","950587","0.0-6.0-6.48","2553877","co37912","norming","","","{""aha"":1}","[0]","../img/tt/1188tt.jpg","",""
"null","<div style=""font-size:60px;""> </div>","null","fixation","html-keyboard-response","349","950789","0.0-6.0-0.49","2553877","co37912","norming","","","","","","",""
"null","../img/tt/1232tt.jpg","null","mooney1","image-keyboard-response","350","953790","0.0-6.0-1.49","2553877","co37912","norming","","","","","","",""
"4638","","","post_mooney1_questions","survey-likert","351","958431","0.0-6.0-2.49","2553877","co37912","norming","","","{""curiosity"":2,""confidence"":3}","[0,1]","../img/tt/1232tt.jpg","",""
"1840","","","recognition","survey-text","352","960279","0.0-6.0-3.49","2553877","co37912","norming","","","{""guess"":""DUIF""}","","../img/tt/1232tt.jpg","",""
"null","../img/gs/1232gs.jpg","null","reveal","image-keyboard-response","353","962281","0.0-6.0-4.49","2553877","co37912","norming","","","","","","",""
"null","../img/tt/1232tt.jpg","null","mooney2","image-keyboard-response","354","964283","0.0-6.0-5.49","2553877","co37912","norming","","","","","","",""
"1382","","","post_reveal_questions","survey-likert","355","965667","0.0-6.0-6.49","2553877","co37912","norming","","","{""aha"":1}","[0]","../img/tt/1232tt.jpg","",""
"null","<div style=""font-size:60px;""> </div>","null","fixation","html-keyboard-response","356","965869","0.0-6.0-0.50","2553877","co37912","norming","","","","","","",""
"null","../img/tt/163tt.jpg","null","mooney1","image-keyboard-response","357","968871","0.0-6.0-1.50","2553877","co37912","norming","","","","","","",""
"3758","","","post_mooney1_questions","survey-likert","358","972631","0.0-6.0-2.50","2553877","co37912","norming","","","{""curiosity"":4,""confidence"":1}","[0,1]","../img/tt/163tt.jpg","",""
"3588.9999999998836","","","recognition","survey-text","359","976226","0.0-6.0-3.50","2553877","co37912","norming","","","{""guess"":""BLOEMKOOL""}","","../img/tt/163tt.jpg","",""
"null","../img/gs/163gs.jpg","null","reveal","image-keyboard-response","360","978228","0.0-6.0-4.50","2553877","co37912","norming","","","","","","",""
"null","../img/tt/163tt.jpg","null","mooney2","image-keyboard-response","361","980230","0.0-6.0-5.50","2553877","co37912","norming","","","","","","",""
"2307","","","post_reveal_questions","survey-likert","362","982539","0.0-6.0-6.50","2553877","co37912","norming","","","{""aha"":2}","[0]","../img/tt/163tt.jpg","",""
"null","<div style=""font-size:60px;""> </div>","null","fixation","html-keyboard-response","363","982741","0.0-6.0-0.51","2553877","co37912","norming","","","","","","",""
"null","../img/tt/098tt.jpg","null","mooney1","image-keyboard-response","364","985743","0.0-6.0-1.51","2553877","co37912","norming","","","","","","",""
"4058","","","post_mooney1_questions","survey-likert","365","989804","0.0-6.0-2.51","2553877","co37912","norming","","","{""curiosity"":4,""confidence"":1}","[0,1]","../img/tt/098tt.jpg","",""
"2443.9999999998836","","","recognition","survey-text","366","992255","0.0-6.0-3.51","2553877","co37912","norming","","","{""guess"":""VOGEL""}","","../img/tt/098tt.jpg","",""
"null","../img/gs/098gs.jpg","null","reveal","image-keyboard-response","367","994257","0.0-6.0-4.51","2553877","co37912","norming","","","","","","",""
"null","../img/tt/098tt.jpg","null","mooney2","image-keyboard-response","368","996258","0.0-6.0-5.51","2553877","co37912","norming","","","","","","",""
"3089","","","post_reveal_questions","survey-likert","369","999348","0.0-6.0-6.51","2553877","co37912","norming","","","{""aha"":2}","[0]","../img/tt/098tt.jpg","",""
"null","<div style=""font-size:60px;""> </div>","null","fixation","html-keyboard-response","370","999552","0.0-6.0-0.52","2553877","co37912","norming","","","","","","",""
"null","../img/tt/435tt.jpg","null","mooney1","image-keyboard-response","371","1002555","0.0-6.0-1.52","2553877","co37912","norming","","","","","","",""
"3755","","","post_mooney1_questions","survey-likert","372","1006312","0.0-6.0-2.52","2553877","co37912","norming","","","{""curiosity"":1,""confidence"":5}","[0,1]","../img/tt/435tt.jpg","",""
"3727","","","recognition","survey-text","373","1010047","0.0-6.0-3.52","2553877","co37912","norming","","","{""guess"":""BILJART""}","","../img/tt/435tt.jpg","",""
"null","../img/gs/435gs.jpg","null","reveal","image-keyboard-response","374","1012049","0.0-6.0-4.52","2553877","co37912","norming","","","","","","",""
"null","../img/tt/435tt.jpg","null","mooney2","image-keyboard-response","375","1014052","0.0-6.0-5.52","2553877","co37912","norming","","","","","","",""
"2306.9999999998836","","","post_reveal_questions","survey-likert","376","1016360","0.0-6.0-6.52","2553877","co37912","norming","","","{""aha"":1}","[0]","../img/tt/435tt.jpg","",""
"null","<div style=""font-size:60px;""> </div>","null","fixation","html-keyboard-response","377","1016562","0.0-6.0-0.53","2553877","co37912","norming","","","","","","",""
"null","../img/tt/1191tt.jpg","null","mooney1","image-keyboard-response","378","1019565","0.0-6.0-1.53","2553877","co37912","norming","","","","","","",""
"4433.999999999884","","","post_mooney1_questions","survey-likert","379","1024000","0.0-6.0-2.53","2553877","co37912","norming","","","{""curiosity"":4,""confidence"":1}","[0,1]","../img/tt/1191tt.jpg","",""
"1743.9999999998836","","","recognition","survey-text","380","1025750","0.0-6.0-3.53","2553877","co37912","norming","","","{""guess"":""PAARD""}","","../img/tt/1191tt.jpg","",""
"null","../img/gs/1191gs.jpg","null","reveal","image-keyboard-response","381","1027752","0.0-6.0-4.53","2553877","co37912","norming","","","","","","",""
"null","../img/tt/1191tt.jpg","null","mooney2","image-keyboard-response","382","1029753","0.0-6.0-5.53","2553877","co37912","norming","","","","","","",""
"1340.0000000001164","","","post_reveal_questions","survey-likert","383","1031093","0.0-6.0-6.53","2553877","co37912","norming","","","{""aha"":3}","[0]","../img/tt/1191tt.jpg","",""
"null","<div style=""font-size:60px;""> </div>","null","fixation","html-keyboard-response","384","1031296","0.0-6.0-0.54","2553877","co37912","norming","","","","","","",""
"null","../img/tt/1211tt.jpg","null","mooney1","image-keyboard-response","385","1034298","0.0-6.0-1.54","2553877","co37912","norming","","","","","","",""
"4140.000000000116","","","post_mooney1_questions","survey-likert","386","1038440","0.0-6.0-2.54","2553877","co37912","norming","","","{""curiosity"":4,""confidence"":0}","[0,1]","../img/tt/1211tt.jpg","",""
"788","","","recognition","survey-text","387","1039234","0.0-6.0-3.54","2553877","co37912","norming","","","{""guess"":""""}","","../img/tt/1211tt.jpg","",""
"null","../img/gs/1211gs.jpg","null","reveal","image-keyboard-response","388","1041235","0.0-6.0-4.54","2553877","co37912","norming","","","","","","",""
"null","../img/tt/1211tt.jpg","null","mooney2","image-keyboard-response","389","1043237","0.0-6.0-5.54","2553877","co37912","norming","","","","","","",""
"2020","","","post_reveal_questions","survey-likert","390","1045258","0.0-6.0-6.54","2553877","co37912","norming","","","{""aha"":2}","[0]","../img/tt/1211tt.jpg","",""
"null","<div style=""font-size:60px;""> </div>","null","fixation","html-keyboard-response","391","1045461","0.0-6.0-0.55","2553877","co37912","norming","","","","","","",""
"null","../img/tt/524tt.jpg","null","mooney1","image-keyboard-response","392","1048463","0.0-6.0-1.55","2553877","co37912","norming","","","","","","",""
"3184","","","post_mooney1_questions","survey-likert","393","1051649","0.0-6.0-2.55","2553877","co37912","norming","","","{""curiosity"":1,""confidence"":5}","[0,1]","../img/tt/524tt.jpg","",""
"4578","","","recognition","survey-text","394","1056235","0.0-6.0-3.55","2553877","co37912","norming","","","{""guess"":""OLIFANT""}","","../img/tt/524tt.jpg","",""
"null","../img/gs/524gs.jpg","null","reveal","image-keyboard-response","395","1058235","0.0-6.0-4.55","2553877","co37912","norming","","","","","","",""
"null","../img/tt/524tt.jpg","null","mooney2","image-keyboard-response","396","1060237","0.0-6.0-5.55","2553877","co37912","norming","","","","","","",""
"2927","","","post_reveal_questions","survey-likert","397","1063165","0.0-6.0-6.55","2553877","co37912","norming","","","{""aha"":4}","[0]","../img/tt/524tt.jpg","",""
"null","<div style=""font-size:60px;""> </div>","null","fixation","html-keyboard-response","398","1063368","0.0-6.0-0.56","2553877","co37912","norming","","","","","","",""
"null","../img/tt/1097tt.jpg","null","mooney1","image-keyboard-response","399","1066370","0.0-6.0-1.56","2553877","co37912","norming","","","","","","",""
"4819","","","post_mooney1_questions","survey-likert","400","1071190","0.0-6.0-2.56","2553877","co37912","norming","","","{""curiosity"":4,""confidence"":1}","[0,1]","../img/tt/1097tt.jpg","",""
"2693","","","recognition","survey-text","401","1073889","0.0-6.0-3.56","2553877","co37912","norming","","","{""guess"":""TENNIS""}","","../img/tt/1097tt.jpg","",""
"null","../img/gs/1097gs.jpg","null","reveal","image-keyboard-response","402","1075890","0.0-6.0-4.56","2553877","co37912","norming","","","","","","",""
"null","../img/tt/1097tt.jpg","null","mooney2","image-keyboard-response","403","1077891","0.0-6.0-5.56","2553877","co37912","norming","","","","","","",""
"1955.9999999997672","","","post_reveal_questions","survey-likert","404","1079847","0.0-6.0-6.56","2553877","co37912","norming","","","{""aha"":3}","[0]","../img/tt/1097tt.jpg","",""
"null","<div style=""font-size:60px;""> </div>","null","fixation","html-keyboard-response","405","1080050","0.0-6.0-0.57","2553877","co37912","norming","","","","","","",""
"null","../img/tt/412tt.jpg","null","mooney1","image-keyboard-response","406","1083052","0.0-6.0-1.57","2553877","co37912","norming","","","","","","",""
"3254","","","post_mooney1_questions","survey-likert","407","1086308","0.0-6.0-2.57","2553877","co37912","norming","","","{""curiosity"":2,""confidence"":4}","[0,1]","../img/tt/412tt.jpg","",""
"2513","","","recognition","survey-text","408","1088827","0.0-6.0-3.57","2553877","co37912","norming","","","{""guess"":""PARFUM""}","","../img/tt/412tt.jpg","",""
"null","../img/gs/412gs.jpg","null","reveal","image-keyboard-response","409","1090829","0.0-6.0-4.57","2553877","co37912","norming","","","","","","",""
"null","../img/tt/412tt.jpg","null","mooney2","image-keyboard-response","410","1092831","0.0-6.0-5.57","2553877","co37912","norming","","","","","","",""
"1301","","","post_reveal_questions","survey-likert","411","1094134","0.0-6.0-6.57","2553877","co37912","norming","","","{""aha"":3}","[0]","../img/tt/412tt.jpg","",""
"null","<div style=""font-size:60px;""> </div>","null","fixation","html-keyboard-response","412","1094336","0.0-6.0-0.58","2553877","co37912","norming","","","","","","",""
"null","../img/tt/1143tt.jpg","null","mooney1","image-keyboard-response","413","1097337","0.0-6.0-1.58","2553877","co37912","norming","","","","","","",""
"3218","","","post_mooney1_questions","survey-likert","414","1100557","0.0-6.0-2.58","2553877","co37912","norming","","","{""curiosity"":2,""confidence"":2}","[0,1]","../img/tt/1143tt.jpg","",""
"5098","","","recognition","survey-text","415","1105662","0.0-6.0-3.58","2553877","co37912","norming","","","{""guess"":""ATLETIEK""}","","../img/tt/1143tt.jpg","",""
"null","../img/gs/1143gs.jpg","null","reveal","image-keyboard-response","416","1107664","0.0-6.0-4.58","2553877","co37912","norming","","","","","","",""
"null","../img/tt/1143tt.jpg","null","mooney2","image-keyboard-response","417","1109665","0.0-6.0-5.58","2553877","co37912","norming","","","","","","",""
"2225","","","post_reveal_questions","survey-likert","418","1111891","0.0-6.0-6.58","2553877","co37912","norming","","","{""aha"":3}","[0]","../img/tt/1143tt.jpg","",""
"null","<div style=""font-size:60px;""> </div>","null","fixation","html-keyboard-response","419","1112093","0.0-6.0-0.59","2553877","co37912","norming","","","","","","",""
"null","../img/tt/1130tt.jpg","null","mooney1","image-keyboard-response","420","1115096","0.0-6.0-1.59","2553877","co37912","norming","","","","","","",""
"5304","","","post_mooney1_questions","survey-likert","421","1120401","0.0-6.0-2.59","2553877","co37912","norming","","","{""curiosity"":1,""confidence"":5}","[0,1]","../img/tt/1130tt.jpg","",""
"4195","","","recognition","survey-text","422","1124603","0.0-6.0-3.59","2553877","co37912","norming","","","{""guess"":""WIELRENNER""}","","../img/tt/1130tt.jpg","",""
"null","../img/gs/1130gs.jpg","null","reveal","image-keyboard-response","423","1126604","0.0-6.0-4.59","2553877","co37912","norming","","","","","","",""
"null","../img/tt/1130tt.jpg","null","mooney2","image-keyboard-response","424","1128606","0.0-6.0-5.59","2553877","co37912","norming","","","","","","",""
"1618","","","post_reveal_questions","survey-likert","425","1130225","0.0-6.0-6.59","2553877","co37912","norming","","","{""aha"":2}","[0]","../img/tt/1130tt.jpg","",""
"null","<div style=""font-size:60px;""> </div>","null","fixation","html-keyboard-response","426","1130427","0.0-6.0-0.60","2553877","co37912","norming","","","","","","",""
"null","../img/tt/1269tt.jpg","null","mooney1","image-keyboard-response","427","1133428","0.0-6.0-1.60","2553877","co37912","norming","","","","","","",""
"3777","","","post_mooney1_questions","survey-likert","428","1137208","0.0-6.0-2.60","2553877","co37912","norming","","","{""curiosity"":2,""confidence"":4}","[0,1]","../img/tt/1269tt.jpg","",""
"2242","","","recognition","survey-text","429","1139459","0.0-6.0-3.60","2553877","co37912","norming","","","{""guess"":""EEKHOORN""}","","../img/tt/1269tt.jpg","",""
"null","../img/gs/1269gs.jpg","null","reveal","image-keyboard-response","430","1141461","0.0-6.0-4.60","2553877","co37912","norming","","","","","","",""
"null","../img/tt/1269tt.jpg","null","mooney2","image-keyboard-response","431","1143462","0.0-6.0-5.60","2553877","co37912","norming","","","","","","",""
"3068","","","post_reveal_questions","survey-likert","432","1146531","0.0-6.0-6.60","2553877","co37912","norming","","","{""aha"":1}","[0]","../img/tt/1269tt.jpg","",""
"null","<div style=""font-size:60px;""> </div>","null","fixation","html-keyboard-response","433","1146735","0.0-6.0-0.61","2553877","co37912","norming","","","","","","",""
"null","../img/tt/1122tt.jpg","null","mooney1","image-keyboard-response","434","1149737","0.0-6.0-1.61","2553877","co37912","norming","","","","","","",""
"3678","","","post_mooney1_questions","survey-likert","435","1153416","0.0-6.0-2.61","2553877","co37912","norming","","","{""curiosity"":3,""confidence"":1}","[0,1]","../img/tt/1122tt.jpg","",""
"1597","","","recognition","survey-text","436","1155021","0.0-6.0-3.61","2553877","co37912","norming","","","{""guess"":""BOTEN""}","","../img/tt/1122tt.jpg","",""
"null","../img/gs/1122gs.jpg","null","reveal","image-keyboard-response","437","1157023","0.0-6.0-4.61","2553877","co37912","norming","","","","","","",""
"null","../img/tt/1122tt.jpg","null","mooney2","image-keyboard-response","438","1159024","0.0-6.0-5.61","2553877","co37912","norming","","","","","","",""
"1558","","","post_reveal_questions","survey-likert","439","1160583","0.0-6.0-6.61","2553877","co37912","norming","","","{""aha"":1}","[0]","../img/tt/1122tt.jpg","",""
"null","<div style=""font-size:60px;""> </div>","null","fixation","html-keyboard-response","440","1160785","0.0-6.0-0.62","2553877","co37912","norming","","","","","","",""
"null","../img/tt/1199tt.jpg","null","mooney1","image-keyboard-response","441","1163788","0.0-6.0-1.62","2553877","co37912","norming","","","","","","",""
"3331","","","post_mooney1_questions","survey-likert","442","1167120","0.0-6.0-2.62","2553877","co37912","norming","","","{""curiosity"":1,""confidence"":4}","[0,1]","../img/tt/1199tt.jpg","",""
"2230","","","recognition","survey-text","443","1169358","0.0-6.0-3.62","2553877","co37912","norming","","","{""guess"":""TURNEN""}","","../img/tt/1199tt.jpg","",""
"null","../img/gs/1199gs.jpg","null","reveal","image-keyboard-response","444","1171360","0.0-6.0-4.62","2553877","co37912","norming","","","","","","",""
"null","../img/tt/1199tt.jpg","null","mooney2","image-keyboard-response","445","1173362","0.0-6.0-5.62","2553877","co37912","norming","","","","","","",""
"2892","","","post_reveal_questions","survey-likert","446","1176256","0.0-6.0-6.62","2553877","co37912","norming","","","{""aha"":2}","[0]","../img/tt/1199tt.jpg","",""
"null","<div style=""font-size:60px;""> </div>","null","fixation","html-keyboard-response","447","1176459","0.0-6.0-0.63","2553877","co37912","norming","","","","","","",""
"null","../img/tt/319tt.jpg","null","mooney1","image-keyboard-response","448","1179460","0.0-6.0-1.63","2553877","co37912","norming","","","","","","",""
"4776","","","post_mooney1_questions","survey-likert","449","1184238","0.0-6.0-2.63","2553877","co37912","norming","","","{""curiosity"":5,""confidence"":0}","[0,1]","../img/tt/319tt.jpg","",""
"1267","","","recognition","survey-text","450","1185512","0.0-6.0-3.63","2553877","co37912","norming","","","{""guess"":""""}","","../img/tt/319tt.jpg","",""
"null","../img/gs/319gs.jpg","null","reveal","image-keyboard-response","451","1187514","0.0-6.0-4.63","2553877","co37912","norming","","","","","","",""
"null","../img/tt/319tt.jpg","null","mooney2","image-keyboard-response","452","1189515","0.0-6.0-5.63","2553877","co37912","norming","","","","","","",""
"2029","","","post_reveal_questions","survey-likert","453","1191545","0.0-6.0-6.63","2553877","co37912","norming","","","{""aha"":5}","[0]","../img/tt/319tt.jpg","",""
"null","<div style=""font-size:60px;""> </div>","null","fixation","html-keyboard-response","454","1191747","0.0-6.0-0.64","2553877","co37912","norming","","","","","","",""
"null","../img/tt/032tt.jpg","null","mooney1","image-keyboard-response","455","1194749","0.0-6.0-1.64","2553877","co37912","norming","","","","","","",""
"5157.999999999767","","","post_mooney1_questions","survey-likert","456","1199908","0.0-6.0-2.64","2553877","co37912","norming","","","{""curiosity"":5,""confidence"":1}","[0,1]","../img/tt/032tt.jpg","",""
"4416","","","recognition","survey-text","457","1204332","0.0-6.0-3.64","2553877","co37912","norming","","","{""guess"":""KROKODIL""}","","../img/tt/032tt.jpg","",""
"null","../img/gs/032gs.jpg","null","reveal","image-keyboard-response","458","1206333","0.0-6.0-4.64","2553877","co37912","norming","","","","","","",""
"null","../img/tt/032tt.jpg","null","mooney2","image-keyboard-response","459","1208334","0.0-6.0-5.64","2553877","co37912","norming","","","","","","",""
"2637","","","post_reveal_questions","survey-likert","460","1210972","0.0-6.0-6.64","2553877","co37912","norming","","","{""aha"":4}","[0]","../img/tt/032tt.jpg","",""
"null","<div style=""font-size:60px;""> </div>","null","fixation","html-keyboard-response","461","1211173","0.0-6.0-0.65","2553877","co37912","norming","","","","","","",""
"null","../img/tt/306tt.jpg","null","mooney1","image-keyboard-response","462","1214175","0.0-6.0-1.65","2553877","co37912","norming","","","","","","",""
"4671","","","post_mooney1_questions","survey-likert","463","1218851","0.0-6.0-2.65","2553877","co37912","norming","","","{""curiosity"":5,""confidence"":0}","[0,1]","../img/tt/306tt.jpg","",""
"1086","","","recognition","survey-text","464","1219944","0.0-6.0-3.65","2553877","co37912","norming","","","{""guess"":""""}","","../img/tt/306tt.jpg","",""
"null","../img/gs/306gs.jpg","null","reveal","image-keyboard-response","465","1221946","0.0-6.0-4.65","2553877","co37912","norming","","","","","","",""
"null","../img/tt/306tt.jpg","null","mooney2","image-keyboard-response","466","1223948","0.0-6.0-5.65","2553877","co37912","norming","","","","","","",""
"3105","","","post_reveal_questions","survey-likert","467","1227055","0.0-6.0-6.65","2553877","co37912","norming","","","{""aha"":4}","[0]","../img/tt/306tt.jpg","",""
"null","<div style=""font-size:60px;""> </div>","null","fixation","html-keyboard-response","468","1227257","0.0-6.0-0.66","2553877","co37912","norming","","","","","","",""
"null","../img/tt/380tt.jpg","null","mooney1","image-keyboard-response","469","1230259","0.0-6.0-1.66","2553877","co37912","norming","","","","","","",""
"6060.999999999767","","","post_mooney1_questions","survey-likert","470","1236322","0.0-6.0-2.66","2553877","co37912","norming","","","{""curiosity"":4,""confidence"":0}","[0,1]","../img/tt/380tt.jpg","",""
"8563","","","recognition","survey-text","471","1244892","0.0-6.0-3.66","2553877","co37912","norming","","","{""guess"":""ZOOGDIER""}","","../img/tt/380tt.jpg","",""
"null","../img/gs/380gs.jpg","null","reveal","image-keyboard-response","472","1246894","0.0-6.0-4.66","2553877","co37912","norming","","","","","","",""
"null","../img/tt/380tt.jpg","null","mooney2","image-keyboard-response","473","1248895","0.0-6.0-5.66","2553877","co37912","norming","","","","","","",""
"1337","","","post_reveal_questions","survey-likert","474","1250234","0.0-6.0-6.66","2553877","co37912","norming","","","{""aha"":3}","[0]","../img/tt/380tt.jpg","",""
"null","<div style=""font-size:60px;""> </div>","null","fixation","html-keyboard-response","475","1250436","0.0-6.0-0.67","2553877","co37912","norming","","","","","","",""
"null","../img/tt/1234tt.jpg","null","mooney1","image-keyboard-response","476","1253438","0.0-6.0-1.67","2553877","co37912","norming","","","","","","",""
"5041","","","post_mooney1_questions","survey-likert","477","1258481","0.0-6.0-2.67","2553877","co37912","norming","","","{""curiosity"":3,""confidence"":1}","[0,1]","../img/tt/1234tt.jpg","",""
"3025","","","recognition","survey-text","478","1261514","0.0-6.0-3.67","2553877","co37912","norming","","","{""guess"":""BOOTJE""}","","../img/tt/1234tt.jpg","",""
"null","../img/gs/1234gs.jpg","null","reveal","image-keyboard-response","479","1263515","0.0-6.0-4.67","2553877","co37912","norming","","","","","","",""
"null","../img/tt/1234tt.jpg","null","mooney2","image-keyboard-response","480","1265518","0.0-6.0-5.67","2553877","co37912","norming","","","","","","",""
"1559.0000000002328","","","post_reveal_questions","survey-likert","481","1267078","0.0-6.0-6.67","2553877","co37912","norming","","","{""aha"":4}","[0]","../img/tt/1234tt.jpg","",""
"null","<div style=""font-size:60px;""> </div>","null","fixation","html-keyboard-response","482","1267279","0.0-6.0-0.68","2553877","co37912","norming","","","","","","",""
"null","../img/tt/468tt.jpg","null","mooney1","image-keyboard-response","483","1270281","0.0-6.0-1.68","2553877","co37912","norming","","","","","","",""
"3398","","","post_mooney1_questions","survey-likert","484","1273681","0.0-6.0-2.68","2553877","co37912","norming","","","{""curiosity"":1,""confidence"":6}","[0,1]","../img/tt/468tt.jpg","",""
"1946","","","recognition","survey-text","485","1275637","0.0-6.0-3.68","2553877","co37912","norming","","","{""guess"":""VIOOL""}","","../img/tt/468tt.jpg","",""
"null","../img/gs/468gs.jpg","null","reveal","image-keyboard-response","486","1277639","0.0-6.0-4.68","2553877","co37912","norming","","","","","","",""
"null","../img/tt/468tt.jpg","null","mooney2","image-keyboard-response","487","1279641","0.0-6.0-5.68","2553877","co37912","norming","","","","","","",""
"3383","","","post_reveal_questions","survey-likert","488","1283026","0.0-6.0-6.68","2553877","co37912","norming","","","{""aha"":0}","[0]","../img/tt/468tt.jpg","",""
"null","<div style=""font-size:60px;""> </div>","null","fixation","html-keyboard-response","489","1283228","0.0-6.0-0.69","2553877","co37912","norming","","","","","","",""
"null","../img/tt/1069tt.jpg","null","mooney1","image-keyboard-response","490","1286230","0.0-6.0-1.69","2553877","co37912","norming","","","","","","",""
"5536","","","post_mooney1_questions","survey-likert","491","1291767","0.0-6.0-2.69","2553877","co37912","norming","","","{""curiosity"":5,""confidence"":0}","[0,1]","../img/tt/1069tt.jpg","",""
"4026.000000000233","","","recognition","survey-text","492","1295800","0.0-6.0-3.69","2553877","co37912","norming","","","{""guess"":""LANDSCHAP""}","","../img/tt/1069tt.jpg","",""
"null","../img/gs/1069gs.jpg","null","reveal","image-keyboard-response","493","1297802","0.0-6.0-4.69","2553877","co37912","norming","","","","","","",""
"null","../img/tt/1069tt.jpg","null","mooney2","image-keyboard-response","494","1299804","0.0-6.0-5.69","2553877","co37912","norming","","","","","","",""
"1646","","","post_reveal_questions","survey-likert","495","1301451","0.0-6.0-6.69","2553877","co37912","norming","","","{""aha"":3}","[0]","../img/tt/1069tt.jpg","",""
"null","<div style=""font-size:60px;""> </div>","null","fixation","html-keyboard-response","496","1301655","0.0-6.0-0.70","2553877","co37912","norming","","","","","","",""
"null","../img/tt/1027tt.jpg","null","mooney1","image-keyboard-response","497","1304656","0.0-6.0-1.70","2553877","co37912","norming","","","","","","",""
"4175","","","post_mooney1_questions","survey-likert","498","1308833","0.0-6.0-2.70","2553877","co37912","norming","","","{""curiosity"":2,""confidence"":4}","[0,1]","../img/tt/1027tt.jpg","",""
"1736","","","recognition","survey-text","499","1310577","0.0-6.0-3.70","2553877","co37912","norming","","","{""guess"":""KOE""}","","../img/tt/1027tt.jpg","",""
"null","../img/gs/1027gs.jpg","null","reveal","image-keyboard-response","500","1312580","0.0-6.0-4.70","2553877","co37912","norming","","","","","","",""
"null","../img/tt/1027tt.jpg","null","mooney2","image-keyboard-response","501","1314582","0.0-6.0-5.70","2553877","co37912","norming","","","","","","",""
"1211","","","post_reveal_questions","survey-likert","502","1315795","0.0-6.0-6.70","2553877","co37912","norming","","","{""aha"":2}","[0]","../img/tt/1027tt.jpg","",""
"null","<div style=""font-size:60px;""> </div>","null","fixation","html-keyboard-response","503","1315998","0.0-6.0-0.71","2553877","co37912","norming","","","","","","",""
"null","../img/tt/315tt.jpg","null","mooney1","image-keyboard-response","504","1319001","0.0-6.0-1.71","2553877","co37912","norming","","","","","","",""
"3878","","","post_mooney1_questions","survey-likert","505","1322881","0.0-6.0-2.71","2553877","co37912","norming","","","{""curiosity"":1,""confidence"":5}","[0,1]","../img/tt/315tt.jpg","",""
"1638","","","recognition","survey-text","506","1324526","0.0-6.0-3.71","2553877","co37912","norming","","","{""guess"":""KAT""}","","../img/tt/315tt.jpg","",""
"null","../img/gs/315gs.jpg","null","reveal","image-keyboard-response","507","1326529","0.0-6.0-4.71","2553877","co37912","norming","","","","","","",""
"null","../img/tt/315tt.jpg","null","mooney2","image-keyboard-response","508","1328531","0.0-6.0-5.71","2553877","co37912","norming","","","","","","",""
"2708","","","post_reveal_questions","survey-likert","509","1331242","0.0-6.0-6.71","2553877","co37912","norming","","","{""aha"":0}","[0]","../img/tt/315tt.jpg","",""
"null","<div style=""font-size:60px;""> </div>","null","fixation","html-keyboard-response","510","1331445","0.0-6.0-0.72","2553877","co37912","norming","","","","","","",""
"null","../img/tt/567tt.jpg","null","mooney1","image-keyboard-response","511","1334447","0.0-6.0-1.72","2553877","co37912","norming","","","","","","",""
"3664","","","post_mooney1_questions","survey-likert","512","1338114","0.0-6.0-2.72","2553877","co37912","norming","","","{""curiosity"":1,""confidence"":5}","[0,1]","../img/tt/567tt.jpg","",""
"7907","","","recognition","survey-text","513","1346031","0.0-6.0-3.72","2553877","co37912","norming","","","{""guess"":""BROODROOSTER""}","","../img/tt/567tt.jpg","",""
"null","../img/gs/567gs.jpg","null","reveal","image-keyboard-response","514","1348033","0.0-6.0-4.72","2553877","co37912","norming","","","","","","",""
"null","../img/tt/567tt.jpg","null","mooney2","image-keyboard-response","515","1350036","0.0-6.0-5.72","2553877","co37912","norming","","","","","","",""
"1391","","","post_reveal_questions","survey-likert","516","1351429","0.0-6.0-6.72","2553877","co37912","norming","","","{""aha"":0}","[0]","../img/tt/567tt.jpg","",""
"null","<div style=""font-size:60px;""> </div>","null","fixation","html-keyboard-response","517","1351632","0.0-6.0-0.73","2553877","co37912","norming","","","","","","",""
"null","../img/tt/1024tt.jpg","null","mooney1","image-keyboard-response","518","1354635","0.0-6.0-1.73","2553877","co37912","norming","","","","","","",""
"4493.999999999767","","","post_mooney1_questions","survey-likert","519","1359133","0.0-6.0-2.73","2553877","co37912","norming","","","{""curiosity"":3,""confidence"":1}","[0,1]","../img/tt/1024tt.jpg","",""
"1827","","","recognition","survey-text","520","1360967","0.0-6.0-3.73","2553877","co37912","norming","","","{""guess"":""TENNIS""}","","../img/tt/1024tt.jpg","",""
"null","../img/gs/1024gs.jpg","null","reveal","image-keyboard-response","521","1362969","0.0-6.0-4.73","2553877","co37912","norming","","","","","","",""
"null","../img/tt/1024tt.jpg","null","mooney2","image-keyboard-response","522","1364972","0.0-6.0-5.73","2553877","co37912","norming","","","","","","",""
"1834.9999999997672","","","post_reveal_questions","survey-likert","523","1366809","0.0-6.0-6.73","2553877","co37912","norming","","","{""aha"":4}","[0]","../img/tt/1024tt.jpg","",""
"null","<div style=""font-size:60px;""> </div>","null","fixation","html-keyboard-response","524","1367013","0.0-6.0-0.74","2553877","co37912","norming","","","","","","",""
"null","../img/tt/052tt.jpg","null","mooney1","image-keyboard-response","525","1370015","0.0-6.0-1.74","2553877","co37912","norming","","","","","","",""
"3047","","","post_mooney1_questions","survey-likert","526","1373064","0.0-6.0-2.74","2553877","co37912","norming","","","{""curiosity"":3,""confidence"":1}","[0,1]","../img/tt/052tt.jpg","",""
"2666","","","recognition","survey-text","527","1375738","0.0-6.0-3.74","2553877","co37912","norming","","","{""guess"":""TROMMEL""}","","../img/tt/052tt.jpg","",""
"null","../img/gs/052gs.jpg","null","reveal","image-keyboard-response","528","1377741","0.0-6.0-4.74","2553877","co37912","norming","","","","","","",""
"null","../img/tt/052tt.jpg","null","mooney2","image-keyboard-response","529","1379743","0.0-6.0-5.74","2553877","co37912","norming","","","","","","",""
"1334","","","post_reveal_questions","survey-likert","530","1381079","0.0-6.0-6.74","2553877","co37912","norming","","","{""aha"":4}","[0]","../img/tt/052tt.jpg","",""
"null","<div style=""font-size:60px;""> </div>","null","fixation","html-keyboard-response","531","1381282","0.0-6.0-0.75","2553877","co37912","norming","","","","","","",""
"null","../img/tt/1044tt.jpg","null","mooney1","image-keyboard-response","532","1384285","0.0-6.0-1.75","2553877","co37912","norming","","","","","","",""
"3977.000000000233","","","post_mooney1_questions","survey-likert","533","1388264","0.0-6.0-2.75","2553877","co37912","norming","","","{""curiosity"":5,""confidence"":0}","[0,1]","../img/tt/1044tt.jpg","",""
"1100","","","recognition","survey-text","534","1389374","0.0-6.0-3.75","2553877","co37912","norming","","","{""guess"":""""}","","../img/tt/1044tt.jpg","",""
"null","../img/gs/1044gs.jpg","null","reveal","image-keyboard-response","535","1391376","0.0-6.0-4.75","2553877","co37912","norming","","","","","","",""
"null","../img/tt/1044tt.jpg","null","mooney2","image-keyboard-response","536","1393379","0.0-6.0-5.75","2553877","co37912","norming","","","","","","",""
"1367","","","post_reveal_questions","survey-likert","537","1394747","0.0-6.0-6.75","2553877","co37912","norming","","","{""aha"":5}","[0]","../img/tt/1044tt.jpg","",""
"null","<div style=""font-size:60px;""> </div>","null","fixation","html-keyboard-response","538","1394951","0.0-6.0-0.76","2553877","co37912","norming","","","","","","",""
"null","../img/tt/1118tt.jpg","null","mooney1","image-keyboard-response","539","1397953","0.0-6.0-1.76","2553877","co37912","norming","","","","","","",""
"5137","","","post_mooney1_questions","survey-likert","540","1403092","0.0-6.0-2.76","2553877","co37912","norming","","","{""curiosity"":4,""confidence"":1}","[0,1]","../img/tt/1118tt.jpg","",""
"1587.9999999997672","","","recognition","survey-text","541","1404688","0.0-6.0-3.76","2553877","co37912","norming","","","{""guess"":""BEREN""}","","../img/tt/1118tt.jpg","",""
"null","../img/gs/1118gs.jpg","null","reveal","image-keyboard-response","542","1406690","0.0-6.0-4.76","2553877","co37912","norming","","","","","","",""
"null","../img/tt/1118tt.jpg","null","mooney2","image-keyboard-response","543","1408692","0.0-6.0-5.76","2553877","co37912","norming","","","","","","",""
"3349","","","post_reveal_questions","survey-likert","544","1412044","0.0-6.0-6.76","2553877","co37912","norming","","","{""aha"":5}","[0]","../img/tt/1118tt.jpg","",""
"null","<div style=""font-size:60px;""> </div>","null","fixation","html-keyboard-response","545","1412247","0.0-6.0-0.77","2553877","co37912","norming","","","","","","",""
"null","../img/tt/1250tt.jpg","null","mooney1","image-keyboard-response","546","1415249","0.0-6.0-1.77","2553877","co37912","norming","","","","","","",""
"6848.000000000233","","","post_mooney1_questions","survey-likert","547","1422100","0.0-6.0-2.77","2553877","co37912","norming","","","{""curiosity"":4,""confidence"":0}","[0,1]","../img/tt/1250tt.jpg","",""
"1835","","","recognition","survey-text","548","1423943","0.0-6.0-3.77","2553877","co37912","norming","","","{""guess"":""OTTER""}","","../img/tt/1250tt.jpg","",""
"null","../img/gs/1250gs.jpg","null","reveal","image-keyboard-response","549","1425945","0.0-6.0-4.77","2553877","co37912","norming","","","","","","",""
"null","../img/tt/1250tt.jpg","null","mooney2","image-keyboard-response","550","1427948","0.0-6.0-5.77","2553877","co37912","norming","","","","","","",""
"1349","","","post_reveal_questions","survey-likert","551","1429300","0.0-6.0-6.77","2553877","co37912","norming","","","{""aha"":4}","[0]","../img/tt/1250tt.jpg","",""
"null","<div style=""font-size:60px;""> </div>","null","fixation","html-keyboard-response","552","1429503","0.0-6.0-0.78","2553877","co37912","norming","","","","","","",""
"null","../img/tt/046tt.jpg","null","mooney1","image-keyboard-response","553","1432505","0.0-6.0-1.78","2553877","co37912","norming","","","","","","",""
"7021","","","post_mooney1_questions","survey-likert","554","1439529","0.0-6.0-2.78","2553877","co37912","norming","","","{""curiosity"":3,""confidence"":1}","[0,1]","../img/tt/046tt.jpg","",""
"1793","","","recognition","survey-text","555","1441330","0.0-6.0-3.78","2553877","co37912","norming","","","{""guess"":""HOND""}","","../img/tt/046tt.jpg","",""
"null","../img/gs/046gs.jpg","null","reveal","image-keyboard-response","556","1443332","0.0-6.0-4.78","2553877","co37912","norming","","","","","","",""
"null","../img/tt/046tt.jpg","null","mooney2","image-keyboard-response","557","1445335","0.0-6.0-5.78","2553877","co37912","norming","","","","","","",""
"1690","","","post_reveal_questions","survey-likert","558","1447027","0.0-6.0-6.78","2553877","co37912","norming","","","{""aha"":3}","[0]","../img/tt/046tt.jpg","",""
"null","<div style=""font-size:60px;""> </div>","null","fixation","html-keyboard-response","559","1447229","0.0-6.0-0.79","2553877","co37912","norming","","","","","","",""
"null","../img/tt/135tt.jpg","null","mooney1","image-keyboard-response","560","1450231","0.0-6.0-1.79","2553877","co37912","norming","","","","","","",""
"3333","","","post_mooney1_questions","survey-likert","561","1453567","0.0-6.0-2.79","2553877","co37912","norming","","","{""curiosity"":1,""confidence"":5}","[0,1]","../img/tt/135tt.jpg","",""
"2057","","","recognition","survey-text","562","1455632","0.0-6.0-3.79","2553877","co37912","norming","","","{""guess"":""TOILET""}","","../img/tt/135tt.jpg","",""
"null","../img/gs/135gs.jpg","null","reveal","image-keyboard-response","563","1457635","0.0-6.0-4.79","2553877","co37912","norming","","","","","","",""
"null","../img/tt/135tt.jpg","null","mooney2","image-keyboard-response","564","1459637","0.0-6.0-5.79","2553877","co37912","norming","","","","","","",""
"1612.9999999997672","","","post_reveal_questions","survey-likert","565","1461252","0.0-6.0-6.79","2553877","co37912","norming","","","{""aha"":0}","[0]","../img/tt/135tt.jpg","",""
