"rt","stimulus","key_press","test_part","trial_type","trial_index","time_elapsed","internal_node_id","totalTime","subject","experiment_name","button_pressed","success","responses","question_order","currentStim","old","correct"
"10468.469999963418","Welcome to the experiment. This is an online experiment so please don't close the tab/window until we say goodbye.  Press any key to begin.","32","instructions","html-keyboard-response","0","10495","0.0-0.0","3197138","co379","norming","","","","","","",""
"36231.144999852404","<div style='word-wrap: break-word; width: 900px'><h3>Please consider this information carefully before deciding whether to participate in this research</h3><ul style='text-align: left; font-size: .8em;'><li><b>Purpose of the research</b>: To examine how people process images.</li><li><b>What you will do in this research</b>:  Stimuli (images) will be presented on the computer and you will be asked different questions about them.</li><li><b>Time required</b>: Participation will take between 45 and 60 minutes to complete.</li><li><b>Risks</b>:  There are no anticipated risks associated with participating in this study. The effects of participating should be comparable to those you would experience from viewing a computer monitor for 30 minutes and using a mouse or keyboard.</li><li><b>Benefits</b>:  This study provides no benefits to you individually except for the credit. The study provides important information about the nature of perception and learning.</li><li><b>Confidentiality</b>:  Your participation in this study will remain confidential. No personally identifiable information will be associated with your data. Your de-identified data may be shared with other researchers and used in future projects.</li><li><b>Participation and withdrawal</b>:  Your participation in this study is completely voluntary and you may refuse to participate or you may choose to withdraw at any time without penalty.</li><li><b>How to contact the researchers</b>: If you have questions or concerns about your participation or payment, or want to request a summary of research findings, please contact Sander Van de Cruys (KU Leuven), at sander.vandecruys@kuleuven.be.</li></ul><p>The nature and purpose of this research have been sufficiently explained and I agree to participate in this study.  I understand that I am free to withdraw at any time without incurring any penalty.</p><p>Please consent by clicking the button below to continue. Otherwise, please exit the study at this time.</p></div>","","instructions","html-button-response","1","46733","0.0-1.0","3197138","co379","norming","0","","","","","",""
"","","","instructions","fullscreen","2","52243","0.0-2.0","3197138","co379","norming","","true","","","","",""
"25918.834999902174","","","sona","survey-html-form","3","78168","0.0-3.0","3197138","co379","norming","","","[{""name"":""sonaid"",""value"":""379""},{""name"":""debrief"",""value"":""no""},{""name"":""datajoin"",""value"":""yes""}]","","","",""
"19190.18999999389","<div style='word-wrap: break-word; width: 900px'><h3>Instructions</h3><p>This experiment will have 3 parts. In the first part you will see a series of distorted images like the one below on the left. As you can see in the righthand image, the distorted images are derived from actual photographs. In what follows, you will <strong>briefly</strong> be presented with <strong>only</strong> the distorted image.</p> <div style='float: left; margin-right: 20px;'><img src='../img/018tt.jpg' height='250' width='250'></img></div><div style='float: right; margin-left: 20px;'><img src='../img/018gs.jpg' height='250' width='250'></img></div><p>Subsequently you will be asked a few questions about the image: One question on how <strong>curious</strong> you are about the solution and one on how <strong>confident</strong> you are that you know the solution.</p>Next, we ask you to make a guess on what is in the image. Note that it is OK to name just the <strong>basic level category</strong>. For example when you see a parrot in the image, 'parrot' will obviously be a correct answer but also correct is 'bird'. However, 'animal' will <strong>not</strong> be counted as a correct response. For the example above, 'rose' would be correct or 'flower', but not 'plant'. When soccer players are depicted, 'soccer', 'football', 'soccer players' will be correct, but not 'humans', 'outdoors', or 'sports'. You do not need to describe the image in full, just name the main object in it <strong>in one or two words</strong>. All images depict objects from one of the following broad level categories: animals, inanimate objects, plants, sports, vehicles, and food. Recognizing means knowing <strong>more</strong> than these broad labels for a given image. But we always encourage you to <strong>make a guess</strong> if you can. Note that you are allowed to use <strong>Dutch and English</strong> in your answers, whatever comes easiest for you.</p><p>Press any key to continue.</p></div>","32","instructions","html-keyboard-response","4","97364","0.0-4.0","3197138","co379","norming","","","","","","",""
"2432.7650000341237","<div style='word-wrap: break-word; width: 900px'><h3>Instructions</h3> <p>Next, the solution image will be revealed to you and you'll be asked to indicate how strong your <strong>aha-experience</strong> was after seeing the solution. This describes the positive feeling of the 'click' you sometimes experience, when the pieces of the 'puzzle' fall together and you suddenly have 'insight' in the image.</p><img src='aha.jpg' height='188' width='250'></img><p>Note that there are no right or wrong answers. We are interested in what <strong>you</strong> see in the image and how <strong>you</strong> feel about it.</p><p>Press any key to start the experiment.</p></div>","32","instructions","html-keyboard-response","5","99800","0.0-5.0","3197138","co379","norming","","","","","","",""
"null","<div style=""font-size:60px;""> </div>","null","fixation","html-keyboard-response","6","100009","0.0-6.0-0.0","3197138","co379","norming","","","","","","",""
"null","../img/tt/056tt.jpg","null","mooney1","image-keyboard-response","7","103021","0.0-6.0-1.0","3197138","co379","norming","","","","","","",""
"7476.594999898225","","","post_mooney1_questions","survey-likert","8","110502","0.0-6.0-2.0","3197138","co379","norming","","","{""curiosity"":4,""confidence"":1}","[0,1]","../img/tt/056tt.jpg","",""
"7763.3350000251085","","","recognition","survey-text","9","118270","0.0-6.0-3.0","3197138","co379","norming","","","{""guess"":""Flower""}","","../img/tt/056tt.jpg","",""
"null","../img/gs/056gs.jpg","null","reveal","image-keyboard-response","10","120277","0.0-6.0-4.0","3197138","co379","norming","","","","","","",""
"null","../img/tt/056tt.jpg","null","mooney2","image-keyboard-response","11","122283","0.0-6.0-5.0","3197138","co379","norming","","","","","","",""
"8871.280000079423","","","post_reveal_questions","survey-likert","12","131157","0.0-6.0-6.0","3197138","co379","norming","","","{""aha"":0}","[0]","../img/tt/056tt.jpg","",""
"null","<div style=""font-size:60px;""> </div>","null","fixation","html-keyboard-response","13","131368","0.0-6.0-0.1","3197138","co379","norming","","","","","","",""
"null","../img/tt/279tt.jpg","null","mooney1","image-keyboard-response","14","134387","0.0-6.0-1.1","3197138","co379","norming","","","","","","",""
"5251.909999875352","","","post_mooney1_questions","survey-likert","15","139642","0.0-6.0-2.1","3197138","co379","norming","","","{""curiosity"":5,""confidence"":4}","[0,1]","../img/tt/279tt.jpg","",""
"18287.70500002429","","","recognition","survey-text","16","157935","0.0-6.0-3.1","3197138","co379","norming","","","{""guess"":""koala""}","","../img/tt/279tt.jpg","",""
"null","../img/gs/279gs.jpg","null","reveal","image-keyboard-response","17","159938","0.0-6.0-4.1","3197138","co379","norming","","","","","","",""
"null","../img/tt/279tt.jpg","null","mooney2","image-keyboard-response","18","161945","0.0-6.0-5.1","3197138","co379","norming","","","","","","",""
"3795.3600001055747","","","post_reveal_questions","survey-likert","19","165744","0.0-6.0-6.1","3197138","co379","norming","","","{""aha"":4}","[0]","../img/tt/279tt.jpg","",""
"null","<div style=""font-size:60px;""> </div>","null","fixation","html-keyboard-response","20","165956","0.0-6.0-0.2","3197138","co379","norming","","","","","","",""
"null","../img/tt/1268tt.jpg","null","mooney1","image-keyboard-response","21","168967","0.0-6.0-1.2","3197138","co379","norming","","","","","","",""
"7884.2949999962","","","post_mooney1_questions","survey-likert","22","176853","0.0-6.0-2.2","3197138","co379","norming","","","{""curiosity"":4,""confidence"":2}","[0,1]","../img/tt/1268tt.jpg","",""
"3893.0099999997765","","","recognition","survey-text","23","180753","0.0-6.0-3.2","3197138","co379","norming","","","{""guess"":""goose""}","","../img/tt/1268tt.jpg","",""
"null","../img/gs/1268gs.jpg","null","reveal","image-keyboard-response","24","182774","0.0-6.0-4.2","3197138","co379","norming","","","","","","",""
"null","../img/tt/1268tt.jpg","null","mooney2","image-keyboard-response","25","184782","0.0-6.0-5.2","3197138","co379","norming","","","","","","",""
"3618.5500000137836","","","post_reveal_questions","survey-likert","26","188404","0.0-6.0-6.2","3197138","co379","norming","","","{""aha"":1}","[0]","../img/tt/1268tt.jpg","",""
"null","<div style=""font-size:60px;""> </div>","null","fixation","html-keyboard-response","27","188619","0.0-6.0-0.3","3197138","co379","norming","","","","","","",""
"null","../img/tt/1012tt.jpg","null","mooney1","image-keyboard-response","28","191624","0.0-6.0-1.3","3197138","co379","norming","","","","","","",""
"6545.149999903515","","","post_mooney1_questions","survey-likert","29","198173","0.0-6.0-2.3","3197138","co379","norming","","","{""curiosity"":5,""confidence"":1}","[0,1]","../img/tt/1012tt.jpg","",""
"4982.13000013493","","","recognition","survey-text","30","203159","0.0-6.0-3.3","3197138","co379","norming","","","{""guess"":""bad""}","","../img/tt/1012tt.jpg","",""
"null","../img/gs/1012gs.jpg","null","reveal","image-keyboard-response","31","205173","0.0-6.0-4.3","3197138","co379","norming","","","","","","",""
"null","../img/tt/1012tt.jpg","null","mooney2","image-keyboard-response","32","207189","0.0-6.0-5.3","3197138","co379","norming","","","","","","",""
"3670.5000000074506","","","post_reveal_questions","survey-likert","33","210863","0.0-6.0-6.3","3197138","co379","norming","","","{""aha"":0}","[0]","../img/tt/1012tt.jpg","",""
"null","<div style=""font-size:60px;""> </div>","null","fixation","html-keyboard-response","34","211070","0.0-6.0-0.4","3197138","co379","norming","","","","","","",""
"null","../img/tt/1063tt.jpg","null","mooney1","image-keyboard-response","35","214076","0.0-6.0-1.4","3197138","co379","norming","","","","","","",""
"5867.7949998527765","","","post_mooney1_questions","survey-likert","36","219948","0.0-6.0-2.4","3197138","co379","norming","","","{""curiosity"":6,""confidence"":1}","[0,1]","../img/tt/1063tt.jpg","",""
"10753.905000165105","","","recognition","survey-text","37","230708","0.0-6.0-3.4","3197138","co379","norming","","","{""guess"":""cow""}","","../img/tt/1063tt.jpg","",""
"null","../img/gs/1063gs.jpg","null","reveal","image-keyboard-response","38","232719","0.0-6.0-4.4","3197138","co379","norming","","","","","","",""
"null","../img/tt/1063tt.jpg","null","mooney2","image-keyboard-response","39","234728","0.0-6.0-5.4","3197138","co379","norming","","","","","","",""
"5712.860000086948","","","post_reveal_questions","survey-likert","40","240444","0.0-6.0-6.4","3197138","co379","norming","","","{""aha"":1}","[0]","../img/tt/1063tt.jpg","",""
"null","<div style=""font-size:60px;""> </div>","null","fixation","html-keyboard-response","41","240652","0.0-6.0-0.5","3197138","co379","norming","","","","","","",""
"null","../img/tt/1260tt.jpg","null","mooney1","image-keyboard-response","42","243660","0.0-6.0-1.5","3197138","co379","norming","","","","","","",""
"5377.940000034869","","","post_mooney1_questions","survey-likert","43","249042","0.0-6.0-2.5","3197138","co379","norming","","","{""curiosity"":4,""confidence"":4}","[0,1]","../img/tt/1260tt.jpg","",""
"2597.774999914691","","","recognition","survey-text","44","251646","0.0-6.0-3.5","3197138","co379","norming","","","{""guess"":""mouse""}","","../img/tt/1260tt.jpg","",""
"null","../img/gs/1260gs.jpg","null","reveal","image-keyboard-response","45","253652","0.0-6.0-4.5","3197138","co379","norming","","","","","","",""
"null","../img/tt/1260tt.jpg","null","mooney2","image-keyboard-response","46","255656","0.0-6.0-5.5","3197138","co379","norming","","","","","","",""
"3494.9600000400096","","","post_reveal_questions","survey-likert","47","259153","0.0-6.0-6.5","3197138","co379","norming","","","{""aha"":3}","[0]","../img/tt/1260tt.jpg","",""
"null","<div style=""font-size:60px;""> </div>","null","fixation","html-keyboard-response","48","259372","0.0-6.0-0.6","3197138","co379","norming","","","","","","",""
"null","../img/tt/080tt.jpg","null","mooney1","image-keyboard-response","49","262386","0.0-6.0-1.6","3197138","co379","norming","","","","","","",""
"7320.605000015348","","","post_mooney1_questions","survey-likert","50","269711","0.0-6.0-2.6","3197138","co379","norming","","","{""curiosity"":4,""confidence"":0}","[0,1]","../img/tt/080tt.jpg","",""
"5823.519999859855","","","recognition","survey-text","51","275543","0.0-6.0-3.6","3197138","co379","norming","","","{""guess"":""No idea""}","","../img/tt/080tt.jpg","",""
"null","../img/gs/080gs.jpg","null","reveal","image-keyboard-response","52","277552","0.0-6.0-4.6","3197138","co379","norming","","","","","","",""
"null","../img/tt/080tt.jpg","null","mooney2","image-keyboard-response","53","279564","0.0-6.0-5.6","3197138","co379","norming","","","","","","",""
"4113.309999927878","","","post_reveal_questions","survey-likert","54","283680","0.0-6.0-6.6","3197138","co379","norming","","","{""aha"":4}","[0]","../img/tt/080tt.jpg","",""
"null","<div style=""font-size:60px;""> </div>","null","fixation","html-keyboard-response","55","283893","0.0-6.0-0.7","3197138","co379","norming","","","","","","",""
"null","../img/tt/046tt.jpg","null","mooney1","image-keyboard-response","56","286901","0.0-6.0-1.7","3197138","co379","norming","","","","","","",""
"5125.779999885708","","","post_mooney1_questions","survey-likert","57","292030","0.0-6.0-2.7","3197138","co379","norming","","","{""curiosity"":4,""confidence"":2}","[0,1]","../img/tt/046tt.jpg","",""
"18085.74500004761","","","recognition","survey-text","58","310119","0.0-6.0-3.7","3197138","co379","norming","","","{""guess"":""Monkey""}","","../img/tt/046tt.jpg","",""
"null","../img/gs/046gs.jpg","null","reveal","image-keyboard-response","59","312138","0.0-6.0-4.7","3197138","co379","norming","","","","","","",""
"null","../img/tt/046tt.jpg","null","mooney2","image-keyboard-response","60","314152","0.0-6.0-5.7","3197138","co379","norming","","","","","","",""
"3438.755000010133","","","post_reveal_questions","survey-likert","61","317593","0.0-6.0-6.7","3197138","co379","norming","","","{""aha"":2}","[0]","../img/tt/046tt.jpg","",""
"null","<div style=""font-size:60px;""> </div>","null","fixation","html-keyboard-response","62","317812","0.0-6.0-0.8","3197138","co379","norming","","","","","","",""
"null","../img/tt/105tt.jpg","null","mooney1","image-keyboard-response","63","320821","0.0-6.0-1.8","3197138","co379","norming","","","","","","",""
"5070.8349999040365","","","post_mooney1_questions","survey-likert","64","325895","0.0-6.0-2.8","3197138","co379","norming","","","{""curiosity"":4,""confidence"":3}","[0,1]","../img/tt/105tt.jpg","",""
"1812.05500010401","","","recognition","survey-text","65","327714","0.0-6.0-3.8","3197138","co379","norming","","","{""guess"":""spider""}","","../img/tt/105tt.jpg","",""
"null","../img/gs/105gs.jpg","null","reveal","image-keyboard-response","66","329717","0.0-6.0-4.8","3197138","co379","norming","","","","","","",""
"null","../img/tt/105tt.jpg","null","mooney2","image-keyboard-response","67","331722","0.0-6.0-5.8","3197138","co379","norming","","","","","","",""
"3769.7550000157207","","","post_reveal_questions","survey-likert","68","335496","0.0-6.0-6.8","3197138","co379","norming","","","{""aha"":5}","[0]","../img/tt/105tt.jpg","",""
"null","<div style=""font-size:60px;""> </div>","null","fixation","html-keyboard-response","69","335708","0.0-6.0-0.9","3197138","co379","norming","","","","","","",""
"null","../img/tt/1200tt.jpg","null","mooney1","image-keyboard-response","70","338722","0.0-6.0-1.9","3197138","co379","norming","","","","","","",""
"14055.185000179335","","","post_mooney1_questions","survey-likert","71","352782","0.0-6.0-2.9","3197138","co379","norming","","","{""curiosity"":3,""confidence"":2}","[0,1]","../img/tt/1200tt.jpg","",""
"3399.8000000137836","","","recognition","survey-text","72","356188","0.0-6.0-3.9","3197138","co379","norming","","","{""guess"":""wild boar""}","","../img/tt/1200tt.jpg","",""
"null","../img/gs/1200gs.jpg","null","reveal","image-keyboard-response","73","358201","0.0-6.0-4.9","3197138","co379","norming","","","","","","",""
"null","../img/tt/1200tt.jpg","null","mooney2","image-keyboard-response","74","360216","0.0-6.0-5.9","3197138","co379","norming","","","","","","",""
"4306.365000084043","","","post_reveal_questions","survey-likert","75","364525","0.0-6.0-6.9","3197138","co379","norming","","","{""aha"":4}","[0]","../img/tt/1200tt.jpg","",""
"null","<div style=""font-size:60px;""> </div>","null","fixation","html-keyboard-response","76","364729","0.0-6.0-0.10","3197138","co379","norming","","","","","","",""
"null","../img/tt/1199tt.jpg","null","mooney1","image-keyboard-response","77","367749","0.0-6.0-1.10","3197138","co379","norming","","","","","","",""
"4036.280000116676","","","post_mooney1_questions","survey-likert","78","371788","0.0-6.0-2.10","3197138","co379","norming","","","{""curiosity"":5,""confidence"":5}","[0,1]","../img/tt/1199tt.jpg","",""
"8818.200000096112","","","recognition","survey-text","79","380612","0.0-6.0-3.10","3197138","co379","norming","","","{""guess"":""kayak""}","","../img/tt/1199tt.jpg","",""
"null","../img/gs/1199gs.jpg","null","reveal","image-keyboard-response","80","382616","0.0-6.0-4.10","3197138","co379","norming","","","","","","",""
"null","../img/tt/1199tt.jpg","null","mooney2","image-keyboard-response","81","384620","0.0-6.0-5.10","3197138","co379","norming","","","","","","",""
"4539.314999943599","","","post_reveal_questions","survey-likert","82","389163","0.0-6.0-6.10","3197138","co379","norming","","","{""aha"":6}","[0]","../img/tt/1199tt.jpg","",""
"null","<div style=""font-size:60px;""> </div>","null","fixation","html-keyboard-response","83","389378","0.0-6.0-0.11","3197138","co379","norming","","","","","","",""
"null","../img/tt/1126tt.jpg","null","mooney1","image-keyboard-response","84","392397","0.0-6.0-1.11","3197138","co379","norming","","","","","","",""
"4799.240000080317","","","post_mooney1_questions","survey-likert","85","397201","0.0-6.0-2.11","3197138","co379","norming","","","{""curiosity"":4,""confidence"":3}","[0,1]","../img/tt/1126tt.jpg","",""
"1685.7199999503791","","","recognition","survey-text","86","398890","0.0-6.0-3.11","3197138","co379","norming","","","{""guess"":""tree""}","","../img/tt/1126tt.jpg","",""
"null","../img/gs/1126gs.jpg","null","reveal","image-keyboard-response","87","400893","0.0-6.0-4.11","3197138","co379","norming","","","","","","",""
"null","../img/tt/1126tt.jpg","null","mooney2","image-keyboard-response","88","402901","0.0-6.0-5.11","3197138","co379","norming","","","","","","",""
"2826.5849999152124","","","post_reveal_questions","survey-likert","89","405731","0.0-6.0-6.11","3197138","co379","norming","","","{""aha"":4}","[0]","../img/tt/1126tt.jpg","",""
"null","<div style=""font-size:60px;""> </div>","null","fixation","html-keyboard-response","90","405947","0.0-6.0-0.12","3197138","co379","norming","","","","","","",""
"null","../img/tt/318tt.jpg","null","mooney1","image-keyboard-response","91","408965","0.0-6.0-1.12","3197138","co379","norming","","","","","","",""
"6186.9250000454485","","","post_mooney1_questions","survey-likert","92","415155","0.0-6.0-2.12","3197138","co379","norming","","","{""curiosity"":3,""confidence"":1}","[0,1]","../img/tt/318tt.jpg","",""
"3964.695000089705","","","recognition","survey-text","93","419124","0.0-6.0-3.12","3197138","co379","norming","","","{""guess"":""hockeyplayer""}","","../img/tt/318tt.jpg","",""
"null","../img/gs/318gs.jpg","null","reveal","image-keyboard-response","94","421128","0.0-6.0-4.12","3197138","co379","norming","","","","","","",""
"null","../img/tt/318tt.jpg","null","mooney2","image-keyboard-response","95","423146","0.0-6.0-5.12","3197138","co379","norming","","","","","","",""
"2913.7249998748302","","","post_reveal_questions","survey-likert","96","426062","0.0-6.0-6.12","3197138","co379","norming","","","{""aha"":4}","[0]","../img/tt/318tt.jpg","",""
"null","<div style=""font-size:60px;""> </div>","null","fixation","html-keyboard-response","97","426275","0.0-6.0-0.13","3197138","co379","norming","","","","","","",""
"null","../img/tt/405tt.jpg","null","mooney1","image-keyboard-response","98","429285","0.0-6.0-1.13","3197138","co379","norming","","","","","","",""
"6574.8650000896305","","","post_mooney1_questions","survey-likert","99","435863","0.0-6.0-2.13","3197138","co379","norming","","","{""curiosity"":3,""confidence"":1}","[0,1]","../img/tt/405tt.jpg","",""
"1875.6750000175089","","","recognition","survey-text","100","437745","0.0-6.0-3.13","3197138","co379","norming","","","{""guess"":""koala""}","","../img/tt/405tt.jpg","",""
"null","../img/gs/405gs.jpg","null","reveal","image-keyboard-response","101","439765","0.0-6.0-4.13","3197138","co379","norming","","","","","","",""
"null","../img/tt/405tt.jpg","null","mooney2","image-keyboard-response","102","441774","0.0-6.0-5.13","3197138","co379","norming","","","","","","",""
"4643.295000074431","","","post_reveal_questions","survey-likert","103","446421","0.0-6.0-6.13","3197138","co379","norming","","","{""aha"":4}","[0]","../img/tt/405tt.jpg","",""
"null","<div style=""font-size:60px;""> </div>","null","fixation","html-keyboard-response","104","446624","0.0-6.0-0.14","3197138","co379","norming","","","","","","",""
"null","../img/tt/078tt.jpg","null","mooney1","image-keyboard-response","105","449629","0.0-6.0-1.14","3197138","co379","norming","","","","","","",""
"11569.27499989979","","","post_mooney1_questions","survey-likert","106","461203","0.0-6.0-2.14","3197138","co379","norming","","","{""curiosity"":4,""confidence"":4}","[0,1]","../img/tt/078tt.jpg","",""
"2017.3899999354035","","","recognition","survey-text","107","463227","0.0-6.0-3.14","3197138","co379","norming","","","{""guess"":""grapes""}","","../img/tt/078tt.jpg","",""
"null","../img/gs/078gs.jpg","null","reveal","image-keyboard-response","108","465237","0.0-6.0-4.14","3197138","co379","norming","","","","","","",""
"null","../img/tt/078tt.jpg","null","mooney2","image-keyboard-response","109","467246","0.0-6.0-5.14","3197138","co379","norming","","","","","","",""
"3946.735000004992","","","post_reveal_questions","survey-likert","110","471195","0.0-6.0-6.14","3197138","co379","norming","","","{""aha"":3}","[0]","../img/tt/078tt.jpg","",""
"null","<div style=""font-size:60px;""> </div>","null","fixation","html-keyboard-response","111","471412","0.0-6.0-0.15","3197138","co379","norming","","","","","","",""
"null","../img/tt/052tt.jpg","null","mooney1","image-keyboard-response","112","474428","0.0-6.0-1.15","3197138","co379","norming","","","","","","",""
"12422.1949998755","","","post_mooney1_questions","survey-likert","113","486854","0.0-6.0-2.15","3197138","co379","norming","","","{""curiosity"":5,""confidence"":4}","[0,1]","../img/tt/052tt.jpg","",""
"2793.8849998172373","","","recognition","survey-text","114","489654","0.0-6.0-3.15","3197138","co379","norming","","","{""guess"":""trampline""}","","../img/tt/052tt.jpg","",""
"null","../img/gs/052gs.jpg","null","reveal","image-keyboard-response","115","491660","0.0-6.0-4.15","3197138","co379","norming","","","","","","",""
"null","../img/tt/052tt.jpg","null","mooney2","image-keyboard-response","116","493665","0.0-6.0-5.15","3197138","co379","norming","","","","","","",""
"3379.549999954179","","","post_reveal_questions","survey-likert","117","497048","0.0-6.0-6.15","3197138","co379","norming","","","{""aha"":4}","[0]","../img/tt/052tt.jpg","",""
"null","<div style=""font-size:60px;""> </div>","null","fixation","html-keyboard-response","118","497253","0.0-6.0-0.16","3197138","co379","norming","","","","","","",""
"null","../img/tt/1366tt.jpg","null","mooney1","image-keyboard-response","119","500260","0.0-6.0-1.16","3197138","co379","norming","","","","","","",""
"9943.579999962822","","","post_mooney1_questions","survey-likert","120","510207","0.0-6.0-2.16","3197138","co379","norming","","","{""curiosity"":6,""confidence"":0}","[0,1]","../img/tt/1366tt.jpg","",""
"2882.77000002563","","","recognition","survey-text","121","513093","0.0-6.0-3.16","3197138","co379","norming","","","{""guess"":""No idea""}","","../img/tt/1366tt.jpg","",""
"null","../img/gs/1366gs.jpg","null","reveal","image-keyboard-response","122","515095","0.0-6.0-4.16","3197138","co379","norming","","","","","","",""
"null","../img/tt/1366tt.jpg","null","mooney2","image-keyboard-response","123","517112","0.0-6.0-5.16","3197138","co379","norming","","","","","","",""
"2989.354999968782","","","post_reveal_questions","survey-likert","124","520104","0.0-6.0-6.16","3197138","co379","norming","","","{""aha"":6}","[0]","../img/tt/1366tt.jpg","",""
"null","<div style=""font-size:60px;""> </div>","null","fixation","html-keyboard-response","125","520314","0.0-6.0-0.17","3197138","co379","norming","","","","","","",""
"null","../img/tt/1175tt.jpg","null","mooney1","image-keyboard-response","126","523320","0.0-6.0-1.17","3197138","co379","norming","","","","","","",""
"4427.21000011079","","","post_mooney1_questions","survey-likert","127","527751","0.0-6.0-2.17","3197138","co379","norming","","","{""curiosity"":4,""confidence"":2}","[0,1]","../img/tt/1175tt.jpg","",""
"2633.725000079721","","","recognition","survey-text","128","530398","0.0-6.0-3.17","3197138","co379","norming","","","{""guess"":""people""}","","../img/tt/1175tt.jpg","",""
"null","../img/gs/1175gs.jpg","null","reveal","image-keyboard-response","129","532410","0.0-6.0-4.17","3197138","co379","norming","","","","","","",""
"null","../img/tt/1175tt.jpg","null","mooney2","image-keyboard-response","130","534414","0.0-6.0-5.17","3197138","co379","norming","","","","","","",""
"4025.609999895096","","","post_reveal_questions","survey-likert","131","538442","0.0-6.0-6.17","3197138","co379","norming","","","{""aha"":4}","[0]","../img/tt/1175tt.jpg","",""
"null","<div style=""font-size:60px;""> </div>","null","fixation","html-keyboard-response","132","538648","0.0-6.0-0.18","3197138","co379","norming","","","","","","",""
"null","../img/tt/055tt.jpg","null","mooney1","image-keyboard-response","133","541651","0.0-6.0-1.18","3197138","co379","norming","","","","","","",""
"7654.774999944493","","","post_mooney1_questions","survey-likert","134","549310","0.0-6.0-2.18","3197138","co379","norming","","","{""curiosity"":4,""confidence"":3}","[0,1]","../img/tt/055tt.jpg","",""
"9341.514999978244","","","recognition","survey-text","135","558655","0.0-6.0-3.18","3197138","co379","norming","","","{""guess"":""drum""}","","../img/tt/055tt.jpg","",""
"null","../img/gs/055gs.jpg","null","reveal","image-keyboard-response","136","560657","0.0-6.0-4.18","3197138","co379","norming","","","","","","",""
"null","../img/tt/055tt.jpg","null","mooney2","image-keyboard-response","137","562676","0.0-6.0-5.18","3197138","co379","norming","","","","","","",""
"3095.204999903217","","","post_reveal_questions","survey-likert","138","565775","0.0-6.0-6.18","3197138","co379","norming","","","{""aha"":4}","[0]","../img/tt/055tt.jpg","",""
"null","<div style=""font-size:60px;""> </div>","null","fixation","html-keyboard-response","139","565978","0.0-6.0-0.19","3197138","co379","norming","","","","","","",""
"null","../img/tt/1146tt.jpg","null","mooney1","image-keyboard-response","140","568992","0.0-6.0-1.19","3197138","co379","norming","","","","","","",""
"13742.670000065118","","","post_mooney1_questions","survey-likert","141","582738","0.0-6.0-2.19","3197138","co379","norming","","","{""curiosity"":4,""confidence"":1}","[0,1]","../img/tt/1146tt.jpg","",""
"14701.43000013195","","","recognition","survey-text","142","597446","0.0-6.0-3.19","3197138","co379","norming","","","{""guess"":""archer""}","","../img/tt/1146tt.jpg","",""
"null","../img/gs/1146gs.jpg","null","reveal","image-keyboard-response","143","599458","0.0-6.0-4.19","3197138","co379","norming","","","","","","",""
"null","../img/tt/1146tt.jpg","null","mooney2","image-keyboard-response","144","601470","0.0-6.0-5.19","3197138","co379","norming","","","","","","",""
"3715.9449998289347","","","post_reveal_questions","survey-likert","145","605189","0.0-6.0-6.19","3197138","co379","norming","","","{""aha"":4}","[0]","../img/tt/1146tt.jpg","",""
"null","<div style=""font-size:60px;""> </div>","null","fixation","html-keyboard-response","146","605403","0.0-6.0-0.20","3197138","co379","norming","","","","","","",""
"null","../img/tt/1087tt.jpg","null","mooney1","image-keyboard-response","147","608410","0.0-6.0-1.20","3197138","co379","norming","","","","","","",""
"6701.074999989942","","","post_mooney1_questions","survey-likert","148","615115","0.0-6.0-2.20","3197138","co379","norming","","","{""curiosity"":5,""confidence"":2}","[0,1]","../img/tt/1087tt.jpg","",""
"1138.8950000982732","","","recognition","survey-text","149","616259","0.0-6.0-3.20","3197138","co379","norming","","","{""guess"":""cat""}","","../img/tt/1087tt.jpg","",""
"null","../img/gs/1087gs.jpg","null","reveal","image-keyboard-response","150","618273","0.0-6.0-4.20","3197138","co379","norming","","","","","","",""
"null","../img/tt/1087tt.jpg","null","mooney2","image-keyboard-response","151","620287","0.0-6.0-5.20","3197138","co379","norming","","","","","","",""
"4007.3049999773502","","","post_reveal_questions","survey-likert","152","624297","0.0-6.0-6.20","3197138","co379","norming","","","{""aha"":5}","[0]","../img/tt/1087tt.jpg","",""
"null","<div style=""font-size:60px;""> </div>","null","fixation","html-keyboard-response","153","624502","0.0-6.0-0.21","3197138","co379","norming","","","","","","",""
"null","../img/tt/1116tt.jpg","null","mooney1","image-keyboard-response","154","627519","0.0-6.0-1.21","3197138","co379","norming","","","","","","",""
"6614.764999831095","","","post_mooney1_questions","survey-likert","155","634137","0.0-6.0-2.21","3197138","co379","norming","","","{""curiosity"":4,""confidence"":1}","[0,1]","../img/tt/1116tt.jpg","",""
"4678.914999822155","","","recognition","survey-text","156","638819","0.0-6.0-3.21","3197138","co379","norming","","","{""guess"":""picknick tables""}","","../img/tt/1116tt.jpg","",""
"null","../img/gs/1116gs.jpg","null","reveal","image-keyboard-response","157","640826","0.0-6.0-4.21","3197138","co379","norming","","","","","","",""
"null","../img/tt/1116tt.jpg","null","mooney2","image-keyboard-response","158","642836","0.0-6.0-5.21","3197138","co379","norming","","","","","","",""
"4949.534999905154","","","post_reveal_questions","survey-likert","159","647788","0.0-6.0-6.21","3197138","co379","norming","","","{""aha"":6}","[0]","../img/tt/1116tt.jpg","",""
"null","<div style=""font-size:60px;""> </div>","null","fixation","html-keyboard-response","160","648003","0.0-6.0-0.22","3197138","co379","norming","","","","","","",""
"null","../img/tt/584tt.jpg","null","mooney1","image-keyboard-response","161","651007","0.0-6.0-1.22","3197138","co379","norming","","","","","","",""
"5863.140000030398","","","post_mooney1_questions","survey-likert","162","656874","0.0-6.0-2.22","3197138","co379","norming","","","{""curiosity"":4,""confidence"":1}","[0,1]","../img/tt/584tt.jpg","",""
"2398.884999798611","","","recognition","survey-text","163","659277","0.0-6.0-3.22","3197138","co379","norming","","","{""guess"":""botlles""}","","../img/tt/584tt.jpg","",""
"null","../img/gs/584gs.jpg","null","reveal","image-keyboard-response","164","661279","0.0-6.0-4.22","3197138","co379","norming","","","","","","",""
"null","../img/tt/584tt.jpg","null","mooney2","image-keyboard-response","165","663284","0.0-6.0-5.22","3197138","co379","norming","","","","","","",""
"3339.780000038445","","","post_reveal_questions","survey-likert","166","666627","0.0-6.0-6.22","3197138","co379","norming","","","{""aha"":5}","[0]","../img/tt/584tt.jpg","",""
"null","<div style=""font-size:60px;""> </div>","null","fixation","html-keyboard-response","167","666844","0.0-6.0-0.23","3197138","co379","norming","","","","","","",""
"null","../img/tt/435tt.jpg","null","mooney1","image-keyboard-response","168","669861","0.0-6.0-1.23","3197138","co379","norming","","","","","","",""
"8036.619999911636","","","post_mooney1_questions","survey-likert","169","677902","0.0-6.0-2.23","3197138","co379","norming","","","{""curiosity"":6,""confidence"":0}","[0,1]","../img/tt/435tt.jpg","",""
"1591.2199998274446","","","recognition","survey-text","170","679496","0.0-6.0-3.23","3197138","co379","norming","","","{""guess"":""table""}","","../img/tt/435tt.jpg","",""
"null","../img/gs/435gs.jpg","null","reveal","image-keyboard-response","171","681505","0.0-6.0-4.23","3197138","co379","norming","","","","","","",""
"null","../img/tt/435tt.jpg","null","mooney2","image-keyboard-response","172","683515","0.0-6.0-5.23","3197138","co379","norming","","","","","","",""
"3105.4000000003725","","","post_reveal_questions","survey-likert","173","686623","0.0-6.0-6.23","3197138","co379","norming","","","{""aha"":4}","[0]","../img/tt/435tt.jpg","",""
"null","<div style=""font-size:60px;""> </div>","null","fixation","html-keyboard-response","174","686839","0.0-6.0-0.24","3197138","co379","norming","","","","","","",""
"null","../img/tt/1307tt.jpg","null","mooney1","image-keyboard-response","175","689845","0.0-6.0-1.24","3197138","co379","norming","","","","","","",""
"6415.825000032783","","","post_mooney1_questions","survey-likert","176","696266","0.0-6.0-2.24","3197138","co379","norming","","","{""curiosity"":4,""confidence"":2}","[0,1]","../img/tt/1307tt.jpg","",""
"1911.7850000038743","","","recognition","survey-text","177","698183","0.0-6.0-3.24","3197138","co379","norming","","","{""guess"":""wheel""}","","../img/tt/1307tt.jpg","",""
"null","../img/gs/1307gs.jpg","null","reveal","image-keyboard-response","178","700186","0.0-6.0-4.24","3197138","co379","norming","","","","","","",""
"null","../img/tt/1307tt.jpg","null","mooney2","image-keyboard-response","179","702197","0.0-6.0-5.24","3197138","co379","norming","","","","","","",""
"3597.929999930784","","","post_reveal_questions","survey-likert","180","705799","0.0-6.0-6.24","3197138","co379","norming","","","{""aha"":6}","[0]","../img/tt/1307tt.jpg","",""
"null","<div style=""font-size:60px;""> </div>","null","fixation","html-keyboard-response","181","706007","0.0-6.0-0.25","3197138","co379","norming","","","","","","",""
"null","../img/tt/013tt.jpg","null","mooney1","image-keyboard-response","182","709011","0.0-6.0-1.25","3197138","co379","norming","","","","","","",""
"14140.66500007175","","","post_mooney1_questions","survey-likert","183","723156","0.0-6.0-2.25","3197138","co379","norming","","","{""curiosity"":5,""confidence"":1}","[0,1]","../img/tt/013tt.jpg","",""
"5004.505000077188","","","recognition","survey-text","184","728166","0.0-6.0-3.25","3197138","co379","norming","","","{""guess"":""chair""}","","../img/tt/013tt.jpg","",""
"null","../img/gs/013gs.jpg","null","reveal","image-keyboard-response","185","730171","0.0-6.0-4.25","3197138","co379","norming","","","","","","",""
"null","../img/tt/013tt.jpg","null","mooney2","image-keyboard-response","186","732190","0.0-6.0-5.25","3197138","co379","norming","","","","","","",""
"3502.3550000041723","","","post_reveal_questions","survey-likert","187","735697","0.0-6.0-6.25","3197138","co379","norming","","","{""aha"":5}","[0]","../img/tt/013tt.jpg","",""
"null","<div style=""font-size:60px;""> </div>","null","fixation","html-keyboard-response","188","735919","0.0-6.0-0.26","3197138","co379","norming","","","","","","",""
"null","../img/tt/1125tt.jpg","null","mooney1","image-keyboard-response","189","738926","0.0-6.0-1.26","3197138","co379","norming","","","","","","",""
"6124.074999941513","","","post_mooney1_questions","survey-likert","190","745054","0.0-6.0-2.26","3197138","co379","norming","","","{""curiosity"":4,""confidence"":1}","[0,1]","../img/tt/1125tt.jpg","",""
"2393.930000020191","","","recognition","survey-text","191","747454","0.0-6.0-3.26","3197138","co379","norming","","","{""guess"":""baby""}","","../img/tt/1125tt.jpg","",""
"null","../img/gs/1125gs.jpg","null","reveal","image-keyboard-response","192","749470","0.0-6.0-4.26","3197138","co379","norming","","","","","","",""
"null","../img/tt/1125tt.jpg","null","mooney2","image-keyboard-response","193","751484","0.0-6.0-5.26","3197138","co379","norming","","","","","","",""
"3251.0450000409037","","","post_reveal_questions","survey-likert","194","754738","0.0-6.0-6.26","3197138","co379","norming","","","{""aha"":5}","[0]","../img/tt/1125tt.jpg","",""
"null","<div style=""font-size:60px;""> </div>","null","fixation","html-keyboard-response","195","754953","0.0-6.0-0.27","3197138","co379","norming","","","","","","",""
"null","../img/tt/1151tt.jpg","null","mooney1","image-keyboard-response","196","757966","0.0-6.0-1.27","3197138","co379","norming","","","","","","",""
"5865.699999965727","","","post_mooney1_questions","survey-likert","197","763836","0.0-6.0-2.27","3197138","co379","norming","","","{""curiosity"":5,""confidence"":1}","[0,1]","../img/tt/1151tt.jpg","",""
"2151.1350001674145","","","recognition","survey-text","198","765993","0.0-6.0-3.27","3197138","co379","norming","","","{""guess"":""tree""}","","../img/tt/1151tt.jpg","",""
"null","../img/gs/1151gs.jpg","null","reveal","image-keyboard-response","199","768006","0.0-6.0-4.27","3197138","co379","norming","","","","","","",""
"null","../img/tt/1151tt.jpg","null","mooney2","image-keyboard-response","200","770012","0.0-6.0-5.27","3197138","co379","norming","","","","","","",""
"3969.8299998417497","","","post_reveal_questions","survey-likert","201","773985","0.0-6.0-6.27","3197138","co379","norming","","","{""aha"":5}","[0]","../img/tt/1151tt.jpg","",""
"null","<div style=""font-size:60px;""> </div>","null","fixation","html-keyboard-response","202","774194","0.0-6.0-0.28","3197138","co379","norming","","","","","","",""
"null","../img/tt/1066tt.jpg","null","mooney1","image-keyboard-response","203","777199","0.0-6.0-1.28","3197138","co379","norming","","","","","","",""
"6750.48500020057","","","post_mooney1_questions","survey-likert","204","783954","0.0-6.0-2.28","3197138","co379","norming","","","{""curiosity"":6,""confidence"":5}","[0,1]","../img/tt/1066tt.jpg","",""
"10542.050000047311","","","recognition","survey-text","205","794500","0.0-6.0-3.28","3197138","co379","norming","","","{""guess"":""bus""}","","../img/tt/1066tt.jpg","",""
"null","../img/gs/1066gs.jpg","null","reveal","image-keyboard-response","206","796513","0.0-6.0-4.28","3197138","co379","norming","","","","","","",""
"null","../img/tt/1066tt.jpg","null","mooney2","image-keyboard-response","207","798523","0.0-6.0-5.28","3197138","co379","norming","","","","","","",""
"5729.045000160113","","","post_reveal_questions","survey-likert","208","804255","0.0-6.0-6.28","3197138","co379","norming","","","{""aha"":4}","[0]","../img/tt/1066tt.jpg","",""
"null","<div style=""font-size:60px;""> </div>","null","fixation","html-keyboard-response","209","804464","0.0-6.0-0.29","3197138","co379","norming","","","","","","",""
"null","../img/tt/559tt.jpg","null","mooney1","image-keyboard-response","210","807468","0.0-6.0-1.29","3197138","co379","norming","","","","","","",""
"5702.63999979943","","","post_mooney1_questions","survey-likert","211","813175","0.0-6.0-2.29","3197138","co379","norming","","","{""curiosity"":4,""confidence"":2}","[0,1]","../img/tt/559tt.jpg","",""
"2059.7449999768287","","","recognition","survey-text","212","815241","0.0-6.0-3.29","3197138","co379","norming","","","{""guess"":""chair""}","","../img/tt/559tt.jpg","",""
"null","../img/gs/559gs.jpg","null","reveal","image-keyboard-response","213","817253","0.0-6.0-4.29","3197138","co379","norming","","","","","","",""
"null","../img/tt/559tt.jpg","null","mooney2","image-keyboard-response","214","819267","0.0-6.0-5.29","3197138","co379","norming","","","","","","",""
"16312.914999900386","","","post_reveal_questions","survey-likert","215","835583","0.0-6.0-6.29","3197138","co379","norming","","","{""aha"":3}","[0]","../img/tt/559tt.jpg","",""
"null","<div style=""font-size:60px;""> </div>","null","fixation","html-keyboard-response","216","835791","0.0-6.0-0.30","3197138","co379","norming","","","","","","",""
"null","../img/tt/020tt.jpg","null","mooney1","image-keyboard-response","217","838800","0.0-6.0-1.30","3197138","co379","norming","","","","","","",""
"6281.16500005126","","","post_mooney1_questions","survey-likert","218","845087","0.0-6.0-2.30","3197138","co379","norming","","","{""curiosity"":3,""confidence"":4}","[0,1]","../img/tt/020tt.jpg","",""
"1956.2950001563877","","","recognition","survey-text","219","847051","0.0-6.0-3.30","3197138","co379","norming","","","{""guess"":""dog""}","","../img/tt/020tt.jpg","",""
"null","../img/gs/020gs.jpg","null","reveal","image-keyboard-response","220","849054","0.0-6.0-4.30","3197138","co379","norming","","","","","","",""
"null","../img/tt/020tt.jpg","null","mooney2","image-keyboard-response","221","851062","0.0-6.0-5.30","3197138","co379","norming","","","","","","",""
"3529.9599999561906","","","post_reveal_questions","survey-likert","222","854595","0.0-6.0-6.30","3197138","co379","norming","","","{""aha"":5}","[0]","../img/tt/020tt.jpg","",""
"null","<div style=""font-size:60px;""> </div>","null","fixation","html-keyboard-response","223","854805","0.0-6.0-0.31","3197138","co379","norming","","","","","","",""
"null","../img/tt/1148tt.jpg","null","mooney1","image-keyboard-response","224","857809","0.0-6.0-1.31","3197138","co379","norming","","","","","","",""
"3626.040000002831","","","post_mooney1_questions","survey-likert","225","861439","0.0-6.0-2.31","3197138","co379","norming","","","{""curiosity"":5,""confidence"":4}","[0,1]","../img/tt/1148tt.jpg","",""
"2359.974999912083","","","recognition","survey-text","226","863807","0.0-6.0-3.31","3197138","co379","norming","","","{""guess"":""kayak""}","","../img/tt/1148tt.jpg","",""
"null","../img/gs/1148gs.jpg","null","reveal","image-keyboard-response","227","865812","0.0-6.0-4.31","3197138","co379","norming","","","","","","",""
"null","../img/tt/1148tt.jpg","null","mooney2","image-keyboard-response","228","867828","0.0-6.0-5.31","3197138","co379","norming","","","","","","",""
"3129.6199997887015","","","post_reveal_questions","survey-likert","229","870961","0.0-6.0-6.31","3197138","co379","norming","","","{""aha"":5}","[0]","../img/tt/1148tt.jpg","",""
"null","<div style=""font-size:60px;""> </div>","null","fixation","html-keyboard-response","230","871168","0.0-6.0-0.32","3197138","co379","norming","","","","","","",""
"null","../img/tt/163tt.jpg","null","mooney1","image-keyboard-response","231","874176","0.0-6.0-1.32","3197138","co379","norming","","","","","","",""
"4073.155000107363","","","post_mooney1_questions","survey-likert","232","878253","0.0-6.0-2.32","3197138","co379","norming","","","{""curiosity"":4,""confidence"":2}","[0,1]","../img/tt/163tt.jpg","",""
"1804.424999980256","","","recognition","survey-text","233","880065","0.0-6.0-3.32","3197138","co379","norming","","","{""guess"":""book""}","","../img/tt/163tt.jpg","",""
"null","../img/gs/163gs.jpg","null","reveal","image-keyboard-response","234","882069","0.0-6.0-4.32","3197138","co379","norming","","","","","","",""
"null","../img/tt/163tt.jpg","null","mooney2","image-keyboard-response","235","884085","0.0-6.0-5.32","3197138","co379","norming","","","","","","",""
"3539.4999999552965","","","post_reveal_questions","survey-likert","236","887628","0.0-6.0-6.32","3197138","co379","norming","","","{""aha"":5}","[0]","../img/tt/163tt.jpg","",""
"null","<div style=""font-size:60px;""> </div>","null","fixation","html-keyboard-response","237","887842","0.0-6.0-0.33","3197138","co379","norming","","","","","","",""
"null","../img/tt/007tt.jpg","null","mooney1","image-keyboard-response","238","890855","0.0-6.0-1.33","3197138","co379","norming","","","","","","",""
"4933.54000011459","","","post_mooney1_questions","survey-likert","239","895793","0.0-6.0-2.33","3197138","co379","norming","","","{""curiosity"":5,""confidence"":5}","[0,1]","../img/tt/007tt.jpg","",""
"1777.8400001116097","","","recognition","survey-text","240","897577","0.0-6.0-3.33","3197138","co379","norming","","","{""guess"":""frog""}","","../img/tt/007tt.jpg","",""
"null","../img/gs/007gs.jpg","null","reveal","image-keyboard-response","241","899590","0.0-6.0-4.33","3197138","co379","norming","","","","","","",""
"null","../img/tt/007tt.jpg","null","mooney2","image-keyboard-response","242","901600","0.0-6.0-5.33","3197138","co379","norming","","","","","","",""
"3932.035000063479","","","post_reveal_questions","survey-likert","243","905536","0.0-6.0-6.33","3197138","co379","norming","","","{""aha"":3}","[0]","../img/tt/007tt.jpg","",""
"null","<div style=""font-size:60px;""> </div>","null","fixation","html-keyboard-response","244","905739","0.0-6.0-0.34","3197138","co379","norming","","","","","","",""
"null","../img/tt/1243tt.jpg","null","mooney1","image-keyboard-response","245","908753","0.0-6.0-1.34","3197138","co379","norming","","","","","","",""
"5555.27999997139","","","post_mooney1_questions","survey-likert","246","914313","0.0-6.0-2.34","3197138","co379","norming","","","{""curiosity"":5,""confidence"":3}","[0,1]","../img/tt/1243tt.jpg","",""
"2068.0549999233335","","","recognition","survey-text","247","916387","0.0-6.0-3.34","3197138","co379","norming","","","{""guess"":""judo""}","","../img/tt/1243tt.jpg","",""
"null","../img/gs/1243gs.jpg","null","reveal","image-keyboard-response","248","918400","0.0-6.0-4.34","3197138","co379","norming","","","","","","",""
"null","../img/tt/1243tt.jpg","null","mooney2","image-keyboard-response","249","920414","0.0-6.0-5.34","3197138","co379","norming","","","","","","",""
"4006.455000024289","","","post_reveal_questions","survey-likert","250","924423","0.0-6.0-6.34","3197138","co379","norming","","","{""aha"":5}","[0]","../img/tt/1243tt.jpg","",""
"null","<div style=""font-size:60px;""> </div>","null","fixation","html-keyboard-response","251","924637","0.0-6.0-0.35","3197138","co379","norming","","","","","","",""
"null","../img/tt/534tt.jpg","null","mooney1","image-keyboard-response","252","927647","0.0-6.0-1.35","3197138","co379","norming","","","","","","",""
"4714.459999930114","","","post_mooney1_questions","survey-likert","253","932366","0.0-6.0-2.35","3197138","co379","norming","","","{""curiosity"":4,""confidence"":2}","[0,1]","../img/tt/534tt.jpg","",""
"1639.435000019148","","","recognition","survey-text","254","934013","0.0-6.0-3.35","3197138","co379","norming","","","{""guess"":""plants""}","","../img/tt/534tt.jpg","",""
"null","../img/gs/534gs.jpg","null","reveal","image-keyboard-response","255","936029","0.0-6.0-4.35","3197138","co379","norming","","","","","","",""
"null","../img/tt/534tt.jpg","null","mooney2","image-keyboard-response","256","938039","0.0-6.0-5.35","3197138","co379","norming","","","","","","",""
"5246.705000055954","","","post_reveal_questions","survey-likert","257","943289","0.0-6.0-6.35","3197138","co379","norming","","","{""aha"":5}","[0]","../img/tt/534tt.jpg","",""
"null","<div style=""font-size:60px;""> </div>","null","fixation","html-keyboard-response","258","943497","0.0-6.0-0.36","3197138","co379","norming","","","","","","",""
"null","../img/tt/1101tt.jpg","null","mooney1","image-keyboard-response","259","946502","0.0-6.0-1.36","3197138","co379","norming","","","","","","",""
"4969.515000004321","","","post_mooney1_questions","survey-likert","260","951476","0.0-6.0-2.36","3197138","co379","norming","","","{""curiosity"":5,""confidence"":4}","[0,1]","../img/tt/1101tt.jpg","",""
"5903.165000025183","","","recognition","survey-text","261","957386","0.0-6.0-3.36","3197138","co379","norming","","","{""guess"":""man""}","","../img/tt/1101tt.jpg","",""
"null","../img/gs/1101gs.jpg","null","reveal","image-keyboard-response","262","959401","0.0-6.0-4.36","3197138","co379","norming","","","","","","",""
"null","../img/tt/1101tt.jpg","null","mooney2","image-keyboard-response","263","961411","0.0-6.0-5.36","3197138","co379","norming","","","","","","",""
"4118.654999881983","","","post_reveal_questions","survey-likert","264","965533","0.0-6.0-6.36","3197138","co379","norming","","","{""aha"":5}","[0]","../img/tt/1101tt.jpg","",""
"null","<div style=""font-size:60px;""> </div>","null","fixation","html-keyboard-response","265","965754","0.0-6.0-0.37","3197138","co379","norming","","","","","","",""
"null","../img/tt/1096tt.jpg","null","mooney1","image-keyboard-response","266","968762","0.0-6.0-1.37","3197138","co379","norming","","","","","","",""
"7000.579999992624","","","post_mooney1_questions","survey-likert","267","975767","0.0-6.0-2.37","3197138","co379","norming","","","{""curiosity"":4,""confidence"":3}","[0,1]","../img/tt/1096tt.jpg","",""
"2956.860000034794","","","recognition","survey-text","268","978730","0.0-6.0-3.37","3197138","co379","norming","","","{""guess"":""pig""}","","../img/tt/1096tt.jpg","",""
"null","../img/gs/1096gs.jpg","null","reveal","image-keyboard-response","269","980746","0.0-6.0-4.37","3197138","co379","norming","","","","","","",""
"null","../img/tt/1096tt.jpg","null","mooney2","image-keyboard-response","270","982759","0.0-6.0-5.37","3197138","co379","norming","","","","","","",""
"4306.439999956638","","","post_reveal_questions","survey-likert","271","987069","0.0-6.0-6.37","3197138","co379","norming","","","{""aha"":5}","[0]","../img/tt/1096tt.jpg","",""
"null","<div style=""font-size:60px;""> </div>","null","fixation","html-keyboard-response","272","987282","0.0-6.0-0.38","3197138","co379","norming","","","","","","",""
"null","../img/tt/1188tt.jpg","null","mooney1","image-keyboard-response","273","990298","0.0-6.0-1.38","3197138","co379","norming","","","","","","",""
"6347.2400000318885","","","post_mooney1_questions","survey-likert","274","996649","0.0-6.0-2.38","3197138","co379","norming","","","{""curiosity"":5,""confidence"":1}","[0,1]","../img/tt/1188tt.jpg","",""
"8086.865000193939","","","recognition","survey-text","275","1004743","0.0-6.0-3.38","3197138","co379","norming","","","{""guess"":""camel""}","","../img/tt/1188tt.jpg","",""
"null","../img/gs/1188gs.jpg","null","reveal","image-keyboard-response","276","1006745","0.0-6.0-4.38","3197138","co379","norming","","","","","","",""
"null","../img/tt/1188tt.jpg","null","mooney2","image-keyboard-response","277","1008755","0.0-6.0-5.38","3197138","co379","norming","","","","","","",""
"3265.990000218153","","","post_reveal_questions","survey-likert","278","1012024","0.0-6.0-6.38","3197138","co379","norming","","","{""aha"":6}","[0]","../img/tt/1188tt.jpg","",""
"null","<div style=""font-size:60px;""> </div>","null","fixation","html-keyboard-response","279","1012238","0.0-6.0-0.39","3197138","co379","norming","","","","","","",""
"null","../img/tt/1122tt.jpg","null","mooney1","image-keyboard-response","280","1015257","0.0-6.0-1.39","3197138","co379","norming","","","","","","",""
"4419.33499998413","","","post_mooney1_questions","survey-likert","281","1019680","0.0-6.0-2.39","3197138","co379","norming","","","{""curiosity"":4,""confidence"":5}","[0,1]","../img/tt/1122tt.jpg","",""
"6556.420000037178","","","recognition","survey-text","282","1026243","0.0-6.0-3.39","3197138","co379","norming","","","{""guess"":""port""}","","../img/tt/1122tt.jpg","",""
"null","../img/gs/1122gs.jpg","null","reveal","image-keyboard-response","283","1028252","0.0-6.0-4.39","3197138","co379","norming","","","","","","",""
"null","../img/tt/1122tt.jpg","null","mooney2","image-keyboard-response","284","1030257","0.0-6.0-5.39","3197138","co379","norming","","","","","","",""
"4066.185000119731","","","post_reveal_questions","survey-likert","285","1034327","0.0-6.0-6.39","3197138","co379","norming","","","{""aha"":2}","[0]","../img/tt/1122tt.jpg","",""
"null","<div style=""font-size:60px;""> </div>","null","fixation","html-keyboard-response","286","1034544","0.0-6.0-0.40","3197138","co379","norming","","","","","","",""
"null","../img/tt/353tt.jpg","null","mooney1","image-keyboard-response","287","1037556","0.0-6.0-1.40","3197138","co379","norming","","","","","","",""
"7954.8799998592585","","","post_mooney1_questions","survey-likert","288","1045515","0.0-6.0-2.40","3197138","co379","norming","","","{""curiosity"":6,""confidence"":2}","[0,1]","../img/tt/353tt.jpg","",""
"3015.644999919459","","","recognition","survey-text","289","1048534","0.0-6.0-3.40","3197138","co379","norming","","","{""guess"":""fox""}","","../img/tt/353tt.jpg","",""
"null","../img/gs/353gs.jpg","null","reveal","image-keyboard-response","290","1050544","0.0-6.0-4.40","3197138","co379","norming","","","","","","",""
"null","../img/tt/353tt.jpg","null","mooney2","image-keyboard-response","291","1052547","0.0-6.0-5.40","3197138","co379","norming","","","","","","",""
"4256.750000175089","","","post_reveal_questions","survey-likert","292","1056808","0.0-6.0-6.40","3197138","co379","norming","","","{""aha"":5}","[0]","../img/tt/353tt.jpg","",""
"null","<div style=""font-size:60px;""> </div>","null","fixation","html-keyboard-response","293","1057022","0.0-6.0-0.41","3197138","co379","norming","","","","","","",""
"null","../img/tt/036tt.jpg","null","mooney1","image-keyboard-response","294","1060027","0.0-6.0-1.41","3197138","co379","norming","","","","","","",""
"5935.689999954775","","","post_mooney1_questions","survey-likert","295","1065967","0.0-6.0-2.41","3197138","co379","norming","","","{""curiosity"":4,""confidence"":2}","[0,1]","../img/tt/036tt.jpg","",""
"6962.889999849722","","","recognition","survey-text","296","1072937","0.0-6.0-3.41","3197138","co379","norming","","","{""guess"":""spiderweb""}","","../img/tt/036tt.jpg","",""
"null","../img/gs/036gs.jpg","null","reveal","image-keyboard-response","297","1074942","0.0-6.0-4.41","3197138","co379","norming","","","","","","",""
"null","../img/tt/036tt.jpg","null","mooney2","image-keyboard-response","298","1076957","0.0-6.0-5.41","3197138","co379","norming","","","","","","",""
"5302.330000093207","","","post_reveal_questions","survey-likert","299","1082263","0.0-6.0-6.41","3197138","co379","norming","","","{""aha"":5}","[0]","../img/tt/036tt.jpg","",""
"null","<div style=""font-size:60px;""> </div>","null","fixation","html-keyboard-response","300","1082475","0.0-6.0-0.42","3197138","co379","norming","","","","","","",""
"null","../img/tt/1033tt.jpg","null","mooney1","image-keyboard-response","301","1085482","0.0-6.0-1.42","3197138","co379","norming","","","","","","",""
"6766.805000137538","","","post_mooney1_questions","survey-likert","302","1092252","0.0-6.0-2.42","3197138","co379","norming","","","{""curiosity"":4,""confidence"":1}","[0,1]","../img/tt/1033tt.jpg","",""
"2332.8050000127405","","","recognition","survey-text","303","1094592","0.0-6.0-3.42","3197138","co379","norming","","","{""guess"":""horserider""}","","../img/tt/1033tt.jpg","",""
"null","../img/gs/1033gs.jpg","null","reveal","image-keyboard-response","304","1096596","0.0-6.0-4.42","3197138","co379","norming","","","","","","",""
"null","../img/tt/1033tt.jpg","null","mooney2","image-keyboard-response","305","1098602","0.0-6.0-5.42","3197138","co379","norming","","","","","","",""
"5522.555000148714","","","post_reveal_questions","survey-likert","306","1104128","0.0-6.0-6.42","3197138","co379","norming","","","{""aha"":4}","[0]","../img/tt/1033tt.jpg","",""
"null","<div style=""font-size:60px;""> </div>","null","fixation","html-keyboard-response","307","1104341","0.0-6.0-0.43","3197138","co379","norming","","","","","","",""
"null","../img/tt/1048tt.jpg","null","mooney1","image-keyboard-response","308","1107356","0.0-6.0-1.43","3197138","co379","norming","","","","","","",""
"7618.904999922961","","","post_mooney1_questions","survey-likert","309","1114979","0.0-6.0-2.43","3197138","co379","norming","","","{""curiosity"":4,""confidence"":3}","[0,1]","../img/tt/1048tt.jpg","",""
"3824.7100000735372","","","recognition","survey-text","310","1118808","0.0-6.0-3.43","3197138","co379","norming","","","{""guess"":""mountain""}","","../img/tt/1048tt.jpg","",""
"null","../img/gs/1048gs.jpg","null","reveal","image-keyboard-response","311","1120824","0.0-6.0-4.43","3197138","co379","norming","","","","","","",""
"null","../img/tt/1048tt.jpg","null","mooney2","image-keyboard-response","312","1122832","0.0-6.0-5.43","3197138","co379","norming","","","","","","",""
"3047.2599999047816","","","post_reveal_questions","survey-likert","313","1125883","0.0-6.0-6.43","3197138","co379","norming","","","{""aha"":5}","[0]","../img/tt/1048tt.jpg","",""
"null","<div style=""font-size:60px;""> </div>","null","fixation","html-keyboard-response","314","1126096","0.0-6.0-0.44","3197138","co379","norming","","","","","","",""
"null","../img/tt/1224tt.jpg","null","mooney1","image-keyboard-response","315","1129100","0.0-6.0-1.44","3197138","co379","norming","","","","","","",""
"6497.135000070557","","","post_mooney1_questions","survey-likert","316","1135601","0.0-6.0-2.44","3197138","co379","norming","","","{""curiosity"":5,""confidence"":4}","[0,1]","../img/tt/1224tt.jpg","",""
"2205.09499986656","","","recognition","survey-text","317","1137809","0.0-6.0-3.44","3197138","co379","norming","","","{""guess"":""fitness""}","","../img/tt/1224tt.jpg","",""
"null","../img/gs/1224gs.jpg","null","reveal","image-keyboard-response","318","1139822","0.0-6.0-4.44","3197138","co379","norming","","","","","","",""
"null","../img/tt/1224tt.jpg","null","mooney2","image-keyboard-response","319","1141832","0.0-6.0-5.44","3197138","co379","norming","","","","","","",""
"3462.529999902472","","","post_reveal_questions","survey-likert","320","1145298","0.0-6.0-6.44","3197138","co379","norming","","","{""aha"":6}","[0]","../img/tt/1224tt.jpg","",""
"null","<div style=""font-size:60px;""> </div>","null","fixation","html-keyboard-response","321","1145510","0.0-6.0-0.45","3197138","co379","norming","","","","","","",""
"null","../img/tt/1261tt.jpg","null","mooney1","image-keyboard-response","322","1148520","0.0-6.0-1.45","3197138","co379","norming","","","","","","",""
"6144.824999850243","","","post_mooney1_questions","survey-likert","323","1154669","0.0-6.0-2.45","3197138","co379","norming","","","{""curiosity"":5,""confidence"":5}","[0,1]","../img/tt/1261tt.jpg","",""
"2425.764999818057","","","recognition","survey-text","324","1157101","0.0-6.0-3.45","3197138","co379","norming","","","{""guess"":""rabit""}","","../img/tt/1261tt.jpg","",""
"null","../img/gs/1261gs.jpg","null","reveal","image-keyboard-response","325","1159105","0.0-6.0-4.45","3197138","co379","norming","","","","","","",""
"null","../img/tt/1261tt.jpg","null","mooney2","image-keyboard-response","326","1161108","0.0-6.0-5.45","3197138","co379","norming","","","","","","",""
"2852.4149998556823","","","post_reveal_questions","survey-likert","327","1163964","0.0-6.0-6.45","3197138","co379","norming","","","{""aha"":6}","[0]","../img/tt/1261tt.jpg","",""
"null","<div style=""font-size:60px;""> </div>","null","fixation","html-keyboard-response","328","1164168","0.0-6.0-0.46","3197138","co379","norming","","","","","","",""
"null","../img/tt/1211tt.jpg","null","mooney1","image-keyboard-response","329","1167185","0.0-6.0-1.46","3197138","co379","norming","","","","","","",""
"5925.22000009194","","","post_mooney1_questions","survey-likert","330","1173114","0.0-6.0-2.46","3197138","co379","norming","","","{""curiosity"":4,""confidence"":1}","[0,1]","../img/tt/1211tt.jpg","",""
"2024.6650001499802","","","recognition","survey-text","331","1175144","0.0-6.0-3.46","3197138","co379","norming","","","{""guess"":""chicken""}","","../img/tt/1211tt.jpg","",""
"null","../img/gs/1211gs.jpg","null","reveal","image-keyboard-response","332","1177150","0.0-6.0-4.46","3197138","co379","norming","","","","","","",""
"null","../img/tt/1211tt.jpg","null","mooney2","image-keyboard-response","333","1179152","0.0-6.0-5.46","3197138","co379","norming","","","","","","",""
"6147.545000072569","","","post_reveal_questions","survey-likert","334","1185303","0.0-6.0-6.46","3197138","co379","norming","","","{""aha"":4}","[0]","../img/tt/1211tt.jpg","",""
"null","<div style=""font-size:60px;""> </div>","null","fixation","html-keyboard-response","335","1185513","0.0-6.0-0.47","3197138","co379","norming","","","","","","",""
"null","../img/tt/477tt.jpg","null","mooney1","image-keyboard-response","336","1188520","0.0-6.0-1.47","3197138","co379","norming","","","","","","",""
"5528.615000192076","","","post_mooney1_questions","survey-likert","337","1194052","0.0-6.0-2.47","3197138","co379","norming","","","{""curiosity"":4,""confidence"":1}","[0,1]","../img/tt/477tt.jpg","",""
"2114.805000135675","","","recognition","survey-text","338","1196172","0.0-6.0-3.47","3197138","co379","norming","","","{""guess"":""drum""}","","../img/tt/477tt.jpg","",""
"null","../img/gs/477gs.jpg","null","reveal","image-keyboard-response","339","1198178","0.0-6.0-4.47","3197138","co379","norming","","","","","","",""
"null","../img/tt/477tt.jpg","null","mooney2","image-keyboard-response","340","1200193","0.0-6.0-5.47","3197138","co379","norming","","","","","","",""
"3652.0249999593943","","","post_reveal_questions","survey-likert","341","1203849","0.0-6.0-6.47","3197138","co379","norming","","","{""aha"":6}","[0]","../img/tt/477tt.jpg","",""
"null","<div style=""font-size:60px;""> </div>","null","fixation","html-keyboard-response","342","1204062","0.0-6.0-0.48","3197138","co379","norming","","","","","","",""
"null","../img/tt/1226tt.jpg","null","mooney1","image-keyboard-response","343","1207077","0.0-6.0-1.48","3197138","co379","norming","","","","","","",""
"6035.635000094771","","","post_mooney1_questions","survey-likert","344","1213117","0.0-6.0-2.48","3197138","co379","norming","","","{""curiosity"":5,""confidence"":5}","[0,1]","../img/tt/1226tt.jpg","",""
"2316.554999910295","","","recognition","survey-text","345","1215438","0.0-6.0-3.48","3197138","co379","norming","","","{""guess"":""goose""}","","../img/tt/1226tt.jpg","",""
"null","../img/gs/1226gs.jpg","null","reveal","image-keyboard-response","346","1217440","0.0-6.0-4.48","3197138","co379","norming","","","","","","",""
"null","../img/tt/1226tt.jpg","null","mooney2","image-keyboard-response","347","1219451","0.0-6.0-5.48","3197138","co379","norming","","","","","","",""
"7747.144999913871","","","post_reveal_questions","survey-likert","348","1227201","0.0-6.0-6.48","3197138","co379","norming","","","{""aha"":3}","[0]","../img/tt/1226tt.jpg","",""
"null","<div style=""font-size:60px;""> </div>","null","fixation","html-keyboard-response","349","1227412","0.0-6.0-0.49","3197138","co379","norming","","","","","","",""
"null","../img/tt/1070tt.jpg","null","mooney1","image-keyboard-response","350","1230432","0.0-6.0-1.49","3197138","co379","norming","","","","","","",""
"5285.625000018626","","","post_mooney1_questions","survey-likert","351","1235722","0.0-6.0-2.49","3197138","co379","norming","","","{""curiosity"":4,""confidence"":3}","[0,1]","../img/tt/1070tt.jpg","",""
"1264.8749998770654","","","recognition","survey-text","352","1236992","0.0-6.0-3.49","3197138","co379","norming","","","{""guess"":""cheese""}","","../img/tt/1070tt.jpg","",""
"null","../img/gs/1070gs.jpg","null","reveal","image-keyboard-response","353","1239018","0.0-6.0-4.49","3197138","co379","norming","","","","","","",""
"null","../img/tt/1070tt.jpg","null","mooney2","image-keyboard-response","354","1241029","0.0-6.0-5.49","3197138","co379","norming","","","","","","",""
"4155.864999862388","","","post_reveal_questions","survey-likert","355","1245188","0.0-6.0-6.49","3197138","co379","norming","","","{""aha"":5}","[0]","../img/tt/1070tt.jpg","",""
"null","<div style=""font-size:60px;""> </div>","null","fixation","html-keyboard-response","356","1245399","0.0-6.0-0.50","3197138","co379","norming","","","","","","",""
"null","../img/tt/032tt.jpg","null","mooney1","image-keyboard-response","357","1248404","0.0-6.0-1.50","3197138","co379","norming","","","","","","",""
"5886.505000060424","","","post_mooney1_questions","survey-likert","358","1254295","0.0-6.0-2.50","3197138","co379","norming","","","{""curiosity"":5,""confidence"":4}","[0,1]","../img/tt/032tt.jpg","",""
"2025.1500001177192","","","recognition","survey-text","359","1256324","0.0-6.0-3.50","3197138","co379","norming","","","{""guess"":""cow""}","","../img/tt/032tt.jpg","",""
"null","../img/gs/032gs.jpg","null","reveal","image-keyboard-response","360","1258341","0.0-6.0-4.50","3197138","co379","norming","","","","","","",""
"null","../img/tt/032tt.jpg","null","mooney2","image-keyboard-response","361","1260355","0.0-6.0-5.50","3197138","co379","norming","","","","","","",""
"3326.9700000528246","","","post_reveal_questions","survey-likert","362","1263686","0.0-6.0-6.50","3197138","co379","norming","","","{""aha"":5}","[0]","../img/tt/032tt.jpg","",""
"null","<div style=""font-size:60px;""> </div>","null","fixation","html-keyboard-response","363","1263897","0.0-6.0-0.51","3197138","co379","norming","","","","","","",""
"null","../img/tt/081tt.jpg","null","mooney1","image-keyboard-response","364","1266901","0.0-6.0-1.51","3197138","co379","norming","","","","","","",""
"5099.3999999482185","","","post_mooney1_questions","survey-likert","365","1272007","0.0-6.0-2.51","3197138","co379","norming","","","{""curiosity"":4,""confidence"":5}","[0,1]","../img/tt/081tt.jpg","",""
"1451.5300001949072","","","recognition","survey-text","366","1273462","0.0-6.0-3.51","3197138","co379","norming","","","{""guess"":""frog""}","","../img/tt/081tt.jpg","",""
"null","../img/gs/081gs.jpg","null","reveal","image-keyboard-response","367","1275474","0.0-6.0-4.51","3197138","co379","norming","","","","","","",""
"null","../img/tt/081tt.jpg","null","mooney2","image-keyboard-response","368","1277487","0.0-6.0-5.51","3197138","co379","norming","","","","","","",""
"6649.804999819025","","","post_reveal_questions","survey-likert","369","1284140","0.0-6.0-6.51","3197138","co379","norming","","","{""aha"":3}","[0]","../img/tt/081tt.jpg","",""
"null","<div style=""font-size:60px;""> </div>","null","fixation","html-keyboard-response","370","1284352","0.0-6.0-0.52","3197138","co379","norming","","","","","","",""
"null","../img/tt/1123tt.jpg","null","mooney1","image-keyboard-response","371","1287371","0.0-6.0-1.52","3197138","co379","norming","","","","","","",""
"5577.30000000447","","","post_mooney1_questions","survey-likert","372","1292953","0.0-6.0-2.52","3197138","co379","norming","","","{""curiosity"":3,""confidence"":6}","[0,1]","../img/tt/1123tt.jpg","",""
"3472.605000017211","","","recognition","survey-text","373","1296432","0.0-6.0-3.52","3197138","co379","norming","","","{""guess"":""basket""}","","../img/tt/1123tt.jpg","",""
"null","../img/gs/1123gs.jpg","null","reveal","image-keyboard-response","374","1298444","0.0-6.0-4.52","3197138","co379","norming","","","","","","",""
"null","../img/tt/1123tt.jpg","null","mooney2","image-keyboard-response","375","1300453","0.0-6.0-5.52","3197138","co379","norming","","","","","","",""
"7657.295000040904","","","post_reveal_questions","survey-likert","376","1308114","0.0-6.0-6.52","3197138","co379","norming","","","{""aha"":5}","[0]","../img/tt/1123tt.jpg","",""
"null","<div style=""font-size:60px;""> </div>","null","fixation","html-keyboard-response","377","1308318","0.0-6.0-0.53","3197138","co379","norming","","","","","","",""
"null","../img/tt/082tt.jpg","null","mooney1","image-keyboard-response","378","1311333","0.0-6.0-1.53","3197138","co379","norming","","","","","","",""
"6180.600000079721","","","post_mooney1_questions","survey-likert","379","1317518","0.0-6.0-2.53","3197138","co379","norming","","","{""curiosity"":4,""confidence"":3}","[0,1]","../img/tt/082tt.jpg","",""
"2178.6749998573214","","","recognition","survey-text","380","1319700","0.0-6.0-3.53","3197138","co379","norming","","","{""guess"":""bird""}","","../img/tt/082tt.jpg","",""
"null","../img/gs/082gs.jpg","null","reveal","image-keyboard-response","381","1321717","0.0-6.0-4.53","3197138","co379","norming","","","","","","",""
"null","../img/tt/082tt.jpg","null","mooney2","image-keyboard-response","382","1323724","0.0-6.0-5.53","3197138","co379","norming","","","","","","",""
"2714.8049999959767","","","post_reveal_questions","survey-likert","383","1326442","0.0-6.0-6.53","3197138","co379","norming","","","{""aha"":5}","[0]","../img/tt/082tt.jpg","",""
"null","<div style=""font-size:60px;""> </div>","null","fixation","html-keyboard-response","384","1326651","0.0-6.0-0.54","3197138","co379","norming","","","","","","",""
"null","../img/tt/1072tt.jpg","null","mooney1","image-keyboard-response","385","1329654","0.0-6.0-1.54","3197138","co379","norming","","","","","","",""
"5687.934999819845","","","post_mooney1_questions","survey-likert","386","1335347","0.0-6.0-2.54","3197138","co379","norming","","","{""curiosity"":4,""confidence"":3}","[0,1]","../img/tt/1072tt.jpg","",""
"5402.330000186339","","","recognition","survey-text","387","1340755","0.0-6.0-3.54","3197138","co379","norming","","","{""guess"":""bank""}","","../img/tt/1072tt.jpg","",""
"null","../img/gs/1072gs.jpg","null","reveal","image-keyboard-response","388","1342770","0.0-6.0-4.54","3197138","co379","norming","","","","","","",""
"null","../img/tt/1072tt.jpg","null","mooney2","image-keyboard-response","389","1344782","0.0-6.0-5.54","3197138","co379","norming","","","","","","",""
"5702.500000130385","","","post_reveal_questions","survey-likert","390","1350488","0.0-6.0-6.54","3197138","co379","norming","","","{""aha"":4}","[0]","../img/tt/1072tt.jpg","",""
"null","<div style=""font-size:60px;""> </div>","null","fixation","html-keyboard-response","391","1350706","0.0-6.0-0.55","3197138","co379","norming","","","","","","",""
"null","../img/tt/378tt.jpg","null","mooney1","image-keyboard-response","392","1353722","0.0-6.0-1.55","3197138","co379","norming","","","","","","",""
"10208.095000125468","","","post_mooney1_questions","survey-likert","393","1363936","0.0-6.0-2.55","3197138","co379","norming","","","{""curiosity"":6,""confidence"":1}","[0,1]","../img/tt/378tt.jpg","",""
"3191.6549999732524","","","recognition","survey-text","394","1367130","0.0-6.0-3.55","3197138","co379","norming","","","{""guess"":""pinguin""}","","../img/tt/378tt.jpg","",""
"null","../img/gs/378gs.jpg","null","reveal","image-keyboard-response","395","1369134","0.0-6.0-4.55","3197138","co379","norming","","","","","","",""
"null","../img/tt/378tt.jpg","null","mooney2","image-keyboard-response","396","1371138","0.0-6.0-5.55","3197138","co379","norming","","","","","","",""
"7814.65999991633","","","post_reveal_questions","survey-likert","397","1378956","0.0-6.0-6.55","3197138","co379","norming","","","{""aha"":6}","[0]","../img/tt/378tt.jpg","",""
"null","<div style=""font-size:60px;""> </div>","null","fixation","html-keyboard-response","398","1379170","0.0-6.0-0.56","3197138","co379","norming","","","","","","",""
"null","../img/tt/1024tt.jpg","null","mooney1","image-keyboard-response","399","1382177","0.0-6.0-1.56","3197138","co379","norming","","","","","","",""
"6075.534999836236","","","post_mooney1_questions","survey-likert","400","1388256","0.0-6.0-2.56","3197138","co379","norming","","","{""curiosity"":4,""confidence"":1}","[0,1]","../img/tt/1024tt.jpg","",""
"6245.039999950677","","","recognition","survey-text","401","1394506","0.0-6.0-3.56","3197138","co379","norming","","","{""guess"":""baseball""}","","../img/tt/1024tt.jpg","",""
"null","../img/gs/1024gs.jpg","null","reveal","image-keyboard-response","402","1396509","0.0-6.0-4.56","3197138","co379","norming","","","","","","",""
"null","../img/tt/1024tt.jpg","null","mooney2","image-keyboard-response","403","1398527","0.0-6.0-5.56","3197138","co379","norming","","","","","","",""
"3327.759999781847","","","post_reveal_questions","survey-likert","404","1401859","0.0-6.0-6.56","3197138","co379","norming","","","{""aha"":5}","[0]","../img/tt/1024tt.jpg","",""
"null","<div style=""font-size:60px;""> </div>","null","fixation","html-keyboard-response","405","1402083","0.0-6.0-0.57","3197138","co379","norming","","","","","","",""
"null","../img/tt/296tt.jpg","null","mooney1","image-keyboard-response","406","1405101","0.0-6.0-1.57","3197138","co379","norming","","","","","","",""
"6885.689999908209","","","post_mooney1_questions","survey-likert","407","1411990","0.0-6.0-2.57","3197138","co379","norming","","","{""curiosity"":3,""confidence"":0}","[0,1]","../img/tt/296tt.jpg","",""
"2190.989999799058","","","recognition","survey-text","408","1414186","0.0-6.0-3.57","3197138","co379","norming","","","{""guess"":""chair""}","","../img/tt/296tt.jpg","",""
"null","../img/gs/296gs.jpg","null","reveal","image-keyboard-response","409","1416196","0.0-6.0-4.57","3197138","co379","norming","","","","","","",""
"null","../img/tt/296tt.jpg","null","mooney2","image-keyboard-response","410","1418207","0.0-6.0-5.57","3197138","co379","norming","","","","","","",""
"5690.04000001587","","","post_reveal_questions","survey-likert","411","1423900","0.0-6.0-6.57","3197138","co379","norming","","","{""aha"":4}","[0]","../img/tt/296tt.jpg","",""
"null","<div style=""font-size:60px;""> </div>","null","fixation","html-keyboard-response","412","1424111","0.0-6.0-0.58","3197138","co379","norming","","","","","","",""
"null","../img/tt/1189tt.jpg","null","mooney1","image-keyboard-response","413","1427119","0.0-6.0-1.58","3197138","co379","norming","","","","","","",""
"9442.260000156239","","","post_mooney1_questions","survey-likert","414","1436565","0.0-6.0-2.58","3197138","co379","norming","","","{""curiosity"":3,""confidence"":1}","[0,1]","../img/tt/1189tt.jpg","",""
"2621.3099998421967","","","recognition","survey-text","415","1439193","0.0-6.0-3.58","3197138","co379","norming","","","{""guess"":""duck""}","","../img/tt/1189tt.jpg","",""
"null","../img/gs/1189gs.jpg","null","reveal","image-keyboard-response","416","1441197","0.0-6.0-4.58","3197138","co379","norming","","","","","","",""
"null","../img/tt/1189tt.jpg","null","mooney2","image-keyboard-response","417","1443208","0.0-6.0-5.58","3197138","co379","norming","","","","","","",""
"4506.820000009611","","","post_reveal_questions","survey-likert","418","1447718","0.0-6.0-6.58","3197138","co379","norming","","","{""aha"":5}","[0]","../img/tt/1189tt.jpg","",""
"null","<div style=""font-size:60px;""> </div>","null","fixation","html-keyboard-response","419","1447936","0.0-6.0-0.59","3197138","co379","norming","","","","","","",""
"null","../img/tt/1142tt.jpg","null","mooney1","image-keyboard-response","420","1450941","0.0-6.0-1.59","3197138","co379","norming","","","","","","",""
"6817.155000055209","","","post_mooney1_questions","survey-likert","421","1457763","0.0-6.0-2.59","3197138","co379","norming","","","{""curiosity"":3,""confidence"":4}","[0,1]","../img/tt/1142tt.jpg","",""
"6923.325000097975","","","recognition","survey-text","422","1464693","0.0-6.0-3.59","3197138","co379","norming","","","{""guess"":""atlethics""}","","../img/tt/1142tt.jpg","",""
"null","../img/gs/1142gs.jpg","null","reveal","image-keyboard-response","423","1466709","0.0-6.0-4.59","3197138","co379","norming","","","","","","",""
"null","../img/tt/1142tt.jpg","null","mooney2","image-keyboard-response","424","1468718","0.0-6.0-5.59","3197138","co379","norming","","","","","","",""
"4541.930000064895","","","post_reveal_questions","survey-likert","425","1473263","0.0-6.0-6.59","3197138","co379","norming","","","{""aha"":4}","[0]","../img/tt/1142tt.jpg","",""
"null","<div style=""font-size:60px;""> </div>","null","fixation","html-keyboard-response","426","1473480","0.0-6.0-0.60","3197138","co379","norming","","","","","","",""
"null","../img/tt/552tt.jpg","null","mooney1","image-keyboard-response","427","1476499","0.0-6.0-1.60","3197138","co379","norming","","","","","","",""
"9673.809999832883","","","post_mooney1_questions","survey-likert","428","1486176","0.0-6.0-2.60","3197138","co379","norming","","","{""curiosity"":4,""confidence"":4}","[0,1]","../img/tt/552tt.jpg","",""
"14745.445000007749","","","recognition","survey-text","429","1500927","0.0-6.0-3.60","3197138","co379","norming","","","{""guess"":""butterfly""}","","../img/tt/552tt.jpg","",""
"null","../img/gs/552gs.jpg","null","reveal","image-keyboard-response","430","1502932","0.0-6.0-4.60","3197138","co379","norming","","","","","","",""
"null","../img/tt/552tt.jpg","null","mooney2","image-keyboard-response","431","1504940","0.0-6.0-5.60","3197138","co379","norming","","","","","","",""
"100561.17999996059","","","post_reveal_questions","survey-likert","432","1605505","0.0-6.0-6.60","3197138","co379","norming","","","{""aha"":5}","[0]","../img/tt/552tt.jpg","",""
"null","<div style=""font-size:60px;""> </div>","null","fixation","html-keyboard-response","433","1605712","0.0-6.0-0.61","3197138","co379","norming","","","","","","",""
"null","../img/tt/1202tt.jpg","null","mooney1","image-keyboard-response","434","1608724","0.0-6.0-1.61","3197138","co379","norming","","","","","","",""
"5072.374999988824","","","post_mooney1_questions","survey-likert","435","1613801","0.0-6.0-2.61","3197138","co379","norming","","","{""curiosity"":4,""confidence"":3}","[0,1]","../img/tt/1202tt.jpg","",""
"1876.3800000306219","","","recognition","survey-text","436","1615685","0.0-6.0-3.61","3197138","co379","norming","","","{""guess"":""boots""}","","../img/tt/1202tt.jpg","",""
"null","../img/gs/1202gs.jpg","null","reveal","image-keyboard-response","437","1617691","0.0-6.0-4.61","3197138","co379","norming","","","","","","",""
"null","../img/tt/1202tt.jpg","null","mooney2","image-keyboard-response","438","1619705","0.0-6.0-5.61","3197138","co379","norming","","","","","","",""
"5933.385000098497","","","post_reveal_questions","survey-likert","439","1625642","0.0-6.0-6.61","3197138","co379","norming","","","{""aha"":6}","[0]","../img/tt/1202tt.jpg","",""
"null","<div style=""font-size:60px;""> </div>","null","fixation","html-keyboard-response","440","1625845","0.0-6.0-0.62","3197138","co379","norming","","","","","","",""
"null","../img/tt/1107tt.jpg","null","mooney1","image-keyboard-response","441","1628857","0.0-6.0-1.62","3197138","co379","norming","","","","","","",""
"5506.250000093132","","","post_mooney1_questions","survey-likert","442","1634367","0.0-6.0-2.62","3197138","co379","norming","","","{""curiosity"":4,""confidence"":6}","[0,1]","../img/tt/1107tt.jpg","",""
"1661.995000205934","","","recognition","survey-text","443","1636036","0.0-6.0-3.62","3197138","co379","norming","","","{""guess"":""cat""}","","../img/tt/1107tt.jpg","",""
"null","../img/gs/1107gs.jpg","null","reveal","image-keyboard-response","444","1638043","0.0-6.0-4.62","3197138","co379","norming","","","","","","",""
"null","../img/tt/1107tt.jpg","null","mooney2","image-keyboard-response","445","1640056","0.0-6.0-5.62","3197138","co379","norming","","","","","","",""
"6825.4799998831","","","post_reveal_questions","survey-likert","446","1646885","0.0-6.0-6.62","3197138","co379","norming","","","{""aha"":0}","[0]","../img/tt/1107tt.jpg","",""
"null","<div style=""font-size:60px;""> </div>","null","fixation","html-keyboard-response","447","1647097","0.0-6.0-0.63","3197138","co379","norming","","","","","","",""
"null","../img/tt/1241tt.jpg","null","mooney1","image-keyboard-response","448","1650106","0.0-6.0-1.63","3197138","co379","norming","","","","","","",""
"6160.419999854639","","","post_mooney1_questions","survey-likert","449","1656272","0.0-6.0-2.63","3197138","co379","norming","","","{""curiosity"":4,""confidence"":2}","[0,1]","../img/tt/1241tt.jpg","",""
"2089.0250001102686","","","recognition","survey-text","450","1658367","0.0-6.0-3.63","3197138","co379","norming","","","{""guess"":""spider""}","","../img/tt/1241tt.jpg","",""
"null","../img/gs/1241gs.jpg","null","reveal","image-keyboard-response","451","1660387","0.0-6.0-4.63","3197138","co379","norming","","","","","","",""
"null","../img/tt/1241tt.jpg","null","mooney2","image-keyboard-response","452","1662403","0.0-6.0-5.63","3197138","co379","norming","","","","","","",""
"5650.659999810159","","","post_reveal_questions","survey-likert","453","1668058","0.0-6.0-6.63","3197138","co379","norming","","","{""aha"":5}","[0]","../img/tt/1241tt.jpg","",""
"null","<div style=""font-size:60px;""> </div>","null","fixation","html-keyboard-response","454","1668268","0.0-6.0-0.64","3197138","co379","norming","","","","","","",""
"null","../img/tt/140tt.jpg","null","mooney1","image-keyboard-response","455","1671286","0.0-6.0-1.64","3197138","co379","norming","","","","","","",""
"5968.1249998975545","","","post_mooney1_questions","survey-likert","456","1677258","0.0-6.0-2.64","3197138","co379","norming","","","{""curiosity"":4,""confidence"":5}","[0,1]","../img/tt/140tt.jpg","",""
"1819.2149999085814","","","recognition","survey-text","457","1679084","0.0-6.0-3.64","3197138","co379","norming","","","{""guess"":""fork""}","","../img/tt/140tt.jpg","",""
"null","../img/gs/140gs.jpg","null","reveal","image-keyboard-response","458","1681089","0.0-6.0-4.64","3197138","co379","norming","","","","","","",""
"null","../img/tt/140tt.jpg","null","mooney2","image-keyboard-response","459","1683105","0.0-6.0-5.64","3197138","co379","norming","","","","","","",""
"4294.579999987036","","","post_reveal_questions","survey-likert","460","1687403","0.0-6.0-6.64","3197138","co379","norming","","","{""aha"":1}","[0]","../img/tt/140tt.jpg","",""
"null","<div style=""font-size:60px;""> </div>","null","fixation","html-keyboard-response","461","1687615","0.0-6.0-0.65","3197138","co379","norming","","","","","","",""
"null","../img/tt/580tt.jpg","null","mooney1","image-keyboard-response","462","1690630","0.0-6.0-1.65","3197138","co379","norming","","","","","","",""
"7420.9349998272955","","","post_mooney1_questions","survey-likert","463","1698055","0.0-6.0-2.65","3197138","co379","norming","","","{""curiosity"":5,""confidence"":1}","[0,1]","../img/tt/580tt.jpg","",""
"2379.7949999570847","","","recognition","survey-text","464","1700439","0.0-6.0-3.65","3197138","co379","norming","","","{""guess"":""mask""}","","../img/tt/580tt.jpg","",""
"null","../img/gs/580gs.jpg","null","reveal","image-keyboard-response","465","1702444","0.0-6.0-4.65","3197138","co379","norming","","","","","","",""
"null","../img/tt/580tt.jpg","null","mooney2","image-keyboard-response","466","1704453","0.0-6.0-5.65","3197138","co379","norming","","","","","","",""
"2748.62499977462","","","post_reveal_questions","survey-likert","467","1707205","0.0-6.0-6.65","3197138","co379","norming","","","{""aha"":5}","[0]","../img/tt/580tt.jpg","",""
"null","<div style=""font-size:60px;""> </div>","null","fixation","html-keyboard-response","468","1707420","0.0-6.0-0.66","3197138","co379","norming","","","","","","",""
"null","../img/tt/1046tt.jpg","null","mooney1","image-keyboard-response","469","1710426","0.0-6.0-1.66","3197138","co379","norming","","","","","","",""
"5643.374999985099","","","post_mooney1_questions","survey-likert","470","1716073","0.0-6.0-2.66","3197138","co379","norming","","","{""curiosity"":5,""confidence"":1}","[0,1]","../img/tt/1046tt.jpg","",""
"1386.0499998554587","","","recognition","survey-text","471","1717466","0.0-6.0-3.66","3197138","co379","norming","","","{""guess"":""meal""}","","../img/tt/1046tt.jpg","",""
"null","../img/gs/1046gs.jpg","null","reveal","image-keyboard-response","472","1719469","0.0-6.0-4.66","3197138","co379","norming","","","","","","",""
"null","../img/tt/1046tt.jpg","null","mooney2","image-keyboard-response","473","1721475","0.0-6.0-5.66","3197138","co379","norming","","","","","","",""
"4143.975000130013","","","post_reveal_questions","survey-likert","474","1725622","0.0-6.0-6.66","3197138","co379","norming","","","{""aha"":4}","[0]","../img/tt/1046tt.jpg","",""
"null","<div style=""font-size:60px;""> </div>","null","fixation","html-keyboard-response","475","1725833","0.0-6.0-0.67","3197138","co379","norming","","","","","","",""
"null","../img/tt/599tt.jpg","null","mooney1","image-keyboard-response","476","1728842","0.0-6.0-1.67","3197138","co379","norming","","","","","","",""
"10887.815000023693","","","post_mooney1_questions","survey-likert","477","1739734","0.0-6.0-2.67","3197138","co379","norming","","","{""curiosity"":3,""confidence"":4}","[0,1]","../img/tt/599tt.jpg","",""
"10293.640000047162","","","recognition","survey-text","478","1750032","0.0-6.0-3.67","3197138","co379","norming","","","{""guess"":""strawberry""}","","../img/tt/599tt.jpg","",""
"null","../img/gs/599gs.jpg","null","reveal","image-keyboard-response","479","1752038","0.0-6.0-4.67","3197138","co379","norming","","","","","","",""
"null","../img/tt/599tt.jpg","null","mooney2","image-keyboard-response","480","1754040","0.0-6.0-5.67","3197138","co379","norming","","","","","","",""
"3500.959999859333","","","post_reveal_questions","survey-likert","481","1757545","0.0-6.0-6.67","3197138","co379","norming","","","{""aha"":1}","[0]","../img/tt/599tt.jpg","",""
"null","<div style=""font-size:60px;""> </div>","null","fixation","html-keyboard-response","482","1757762","0.0-6.0-0.68","3197138","co379","norming","","","","","","",""
"null","../img/tt/010tt.jpg","null","mooney1","image-keyboard-response","483","1760778","0.0-6.0-1.68","3197138","co379","norming","","","","","","",""
"4366.14999989979","","","post_mooney1_questions","survey-likert","484","1765148","0.0-6.0-2.68","3197138","co379","norming","","","{""curiosity"":5,""confidence"":2}","[0,1]","../img/tt/010tt.jpg","",""
"1783.7000000290573","","","recognition","survey-text","485","1766936","0.0-6.0-3.68","3197138","co379","norming","","","{""guess"":""fish""}","","../img/tt/010tt.jpg","",""
"null","../img/gs/010gs.jpg","null","reveal","image-keyboard-response","486","1768948","0.0-6.0-4.68","3197138","co379","norming","","","","","","",""
"null","../img/tt/010tt.jpg","null","mooney2","image-keyboard-response","487","1770956","0.0-6.0-5.68","3197138","co379","norming","","","","","","",""
"3145.5399999395013","","","post_reveal_questions","survey-likert","488","1774105","0.0-6.0-6.68","3197138","co379","norming","","","{""aha"":4}","[0]","../img/tt/010tt.jpg","",""
"null","<div style=""font-size:60px;""> </div>","null","fixation","html-keyboard-response","489","1774316","0.0-6.0-0.69","3197138","co379","norming","","","","","","",""
"null","../img/tt/567tt.jpg","null","mooney1","image-keyboard-response","490","1777325","0.0-6.0-1.69","3197138","co379","norming","","","","","","",""
"5929.765000008047","","","post_mooney1_questions","survey-likert","491","1783260","0.0-6.0-2.69","3197138","co379","norming","","","{""curiosity"":4,""confidence"":1}","[0,1]","../img/tt/567tt.jpg","",""
"2021.8849999364465","","","recognition","survey-text","492","1785285","0.0-6.0-3.69","3197138","co379","norming","","","{""guess"":""car""}","","../img/tt/567tt.jpg","",""
"null","../img/gs/567gs.jpg","null","reveal","image-keyboard-response","493","1787288","0.0-6.0-4.69","3197138","co379","norming","","","","","","",""
"null","../img/tt/567tt.jpg","null","mooney2","image-keyboard-response","494","1789293","0.0-6.0-5.69","3197138","co379","norming","","","","","","",""
"3677.269999869168","","","post_reveal_questions","survey-likert","495","1792974","0.0-6.0-6.69","3197138","co379","norming","","","{""aha"":4}","[0]","../img/tt/567tt.jpg","",""
"null","<div style=""font-size:60px;""> </div>","null","fixation","html-keyboard-response","496","1793183","0.0-6.0-0.70","3197138","co379","norming","","","","","","",""
"null","../img/tt/1236tt.jpg","null","mooney1","image-keyboard-response","497","1796191","0.0-6.0-1.70","3197138","co379","norming","","","","","","",""
"5250.240000197664","","","post_mooney1_questions","survey-likert","498","1801446","0.0-6.0-2.70","3197138","co379","norming","","","{""curiosity"":5,""confidence"":3}","[0,1]","../img/tt/1236tt.jpg","",""
"1780.4199999663979","","","recognition","survey-text","499","1803231","0.0-6.0-3.70","3197138","co379","norming","","","{""guess"":""bird""}","","../img/tt/1236tt.jpg","",""
"null","../img/gs/1236gs.jpg","null","reveal","image-keyboard-response","500","1805235","0.0-6.0-4.70","3197138","co379","norming","","","","","","",""
"null","../img/tt/1236tt.jpg","null","mooney2","image-keyboard-response","501","1807241","0.0-6.0-5.70","3197138","co379","norming","","","","","","",""
"5970.255000051111","","","post_reveal_questions","survey-likert","502","1813215","0.0-6.0-6.70","3197138","co379","norming","","","{""aha"":4}","[0]","../img/tt/1236tt.jpg","",""
"null","<div style=""font-size:60px;""> </div>","null","fixation","html-keyboard-response","503","1813423","0.0-6.0-0.71","3197138","co379","norming","","","","","","",""
"null","../img/tt/1127tt.jpg","null","mooney1","image-keyboard-response","504","1816440","0.0-6.0-1.71","3197138","co379","norming","","","","","","",""
"10546.934999991208","","","post_mooney1_questions","survey-likert","505","1826991","0.0-6.0-2.71","3197138","co379","norming","","","{""curiosity"":5,""confidence"":2}","[0,1]","../img/tt/1127tt.jpg","",""
"2385.3349999990314","","","recognition","survey-text","506","1829380","0.0-6.0-3.71","3197138","co379","norming","","","{""guess"":""yudo""}","","../img/tt/1127tt.jpg","",""
"null","../img/gs/1127gs.jpg","null","reveal","image-keyboard-response","507","1831396","0.0-6.0-4.71","3197138","co379","norming","","","","","","",""
"null","../img/tt/1127tt.jpg","null","mooney2","image-keyboard-response","508","1833403","0.0-6.0-5.71","3197138","co379","norming","","","","","","",""
"7883.65999981761","","","post_reveal_questions","survey-likert","509","1841290","0.0-6.0-6.71","3197138","co379","norming","","","{""aha"":5}","[0]","../img/tt/1127tt.jpg","",""
"null","<div style=""font-size:60px;""> </div>","null","fixation","html-keyboard-response","510","1841506","0.0-6.0-0.72","3197138","co379","norming","","","","","","",""
"null","../img/tt/598tt.jpg","null","mooney1","image-keyboard-response","511","1844516","0.0-6.0-1.72","3197138","co379","norming","","","","","","",""
"6115.005000028759","","","post_mooney1_questions","survey-likert","512","1850635","0.0-6.0-2.72","3197138","co379","norming","","","{""curiosity"":4,""confidence"":0}","[0,1]","../img/tt/598tt.jpg","",""
"820.9199998527765","","","recognition","survey-text","513","1851460","0.0-6.0-3.72","3197138","co379","norming","","","{""guess"":""dog""}","","../img/tt/598tt.jpg","",""
"null","../img/gs/598gs.jpg","null","reveal","image-keyboard-response","514","1853470","0.0-6.0-4.72","3197138","co379","norming","","","","","","",""
"null","../img/tt/598tt.jpg","null","mooney2","image-keyboard-response","515","1855484","0.0-6.0-5.72","3197138","co379","norming","","","","","","",""
"3679.3899999465793","","","post_reveal_questions","survey-likert","516","1859167","0.0-6.0-6.72","3197138","co379","norming","","","{""aha"":5}","[0]","../img/tt/598tt.jpg","",""
"null","<div style=""font-size:60px;""> </div>","null","fixation","html-keyboard-response","517","1859376","0.0-6.0-0.73","3197138","co379","norming","","","","","","",""
"null","../img/tt/096tt.jpg","null","mooney1","image-keyboard-response","518","1862388","0.0-6.0-1.73","3197138","co379","norming","","","","","","",""
"6324.020000174642","","","post_mooney1_questions","survey-likert","519","1868716","0.0-6.0-2.73","3197138","co379","norming","","","{""curiosity"":2,""confidence"":6}","[0,1]","../img/tt/096tt.jpg","",""
"1842.0250001363456","","","recognition","survey-text","520","1870565","0.0-6.0-3.73","3197138","co379","norming","","","{""guess"":""piano""}","","../img/tt/096tt.jpg","",""
"null","../img/gs/096gs.jpg","null","reveal","image-keyboard-response","521","1872580","0.0-6.0-4.73","3197138","co379","norming","","","","","","",""
"null","../img/tt/096tt.jpg","null","mooney2","image-keyboard-response","522","1874595","0.0-6.0-5.73","3197138","co379","norming","","","","","","",""
"4296.639999840409","","","post_reveal_questions","survey-likert","523","1878895","0.0-6.0-6.73","3197138","co379","norming","","","{""aha"":1}","[0]","../img/tt/096tt.jpg","",""
"null","<div style=""font-size:60px;""> </div>","null","fixation","html-keyboard-response","524","1879110","0.0-6.0-0.74","3197138","co379","norming","","","","","","",""
"null","../img/tt/1173tt.jpg","null","mooney1","image-keyboard-response","525","1882114","0.0-6.0-1.74","3197138","co379","norming","","","","","","",""
"10491.569999838248","","","post_mooney1_questions","survey-likert","526","1892610","0.0-6.0-2.74","3197138","co379","norming","","","{""curiosity"":2,""confidence"":6}","[0,1]","../img/tt/1173tt.jpg","",""
"2038.2749999407679","","","recognition","survey-text","527","1894653","0.0-6.0-3.74","3197138","co379","norming","","","{""guess"":""hockey""}","","../img/tt/1173tt.jpg","",""
"null","../img/gs/1173gs.jpg","null","reveal","image-keyboard-response","528","1896655","0.0-6.0-4.74","3197138","co379","norming","","","","","","",""
"null","../img/tt/1173tt.jpg","null","mooney2","image-keyboard-response","529","1898659","0.0-6.0-5.74","3197138","co379","norming","","","","","","",""
"3647.774999961257","","","post_reveal_questions","survey-likert","530","1902310","0.0-6.0-6.74","3197138","co379","norming","","","{""aha"":3}","[0]","../img/tt/1173tt.jpg","",""
"null","<div style=""font-size:60px;""> </div>","null","fixation","html-keyboard-response","531","1902525","0.0-6.0-0.75","3197138","co379","norming","","","","","","",""
"null","../img/tt/357tt.jpg","null","mooney1","image-keyboard-response","532","1905541","0.0-6.0-1.75","3197138","co379","norming","","","","","","",""
"6816.315000178292","","","post_mooney1_questions","survey-likert","533","1912361","0.0-6.0-2.75","3197138","co379","norming","","","{""curiosity"":4,""confidence"":2}","[0,1]","../img/tt/357tt.jpg","",""
"1270.3650000039488","","","recognition","survey-text","534","1913636","0.0-6.0-3.75","3197138","co379","norming","","","{""guess"":""corn""}","","../img/tt/357tt.jpg","",""
"null","../img/gs/357gs.jpg","null","reveal","image-keyboard-response","535","1915643","0.0-6.0-4.75","3197138","co379","norming","","","","","","",""
"null","../img/tt/357tt.jpg","null","mooney2","image-keyboard-response","536","1917651","0.0-6.0-5.75","3197138","co379","norming","","","","","","",""
"6449.3299999739975","","","post_reveal_questions","survey-likert","537","1924104","0.0-6.0-6.75","3197138","co379","norming","","","{""aha"":5}","[0]","../img/tt/357tt.jpg","",""
"null","<div style=""font-size:60px;""> </div>","null","fixation","html-keyboard-response","538","1924312","0.0-6.0-0.76","3197138","co379","norming","","","","","","",""
"null","../img/tt/1250tt.jpg","null","mooney1","image-keyboard-response","539","1927318","0.0-6.0-1.76","3197138","co379","norming","","","","","","",""
"5642.649999819696","","","post_mooney1_questions","survey-likert","540","1932965","0.0-6.0-2.76","3197138","co379","norming","","","{""curiosity"":4,""confidence"":2}","[0,1]","../img/tt/1250tt.jpg","",""
"3743.239999981597","","","recognition","survey-text","541","1936716","0.0-6.0-3.76","3197138","co379","norming","","","{""guess"":""monkey""}","","../img/tt/1250tt.jpg","",""
"null","../img/gs/1250gs.jpg","null","reveal","image-keyboard-response","542","1938723","0.0-6.0-4.76","3197138","co379","norming","","","","","","",""
"null","../img/tt/1250tt.jpg","null","mooney2","image-keyboard-response","543","1940734","0.0-6.0-5.76","3197138","co379","norming","","","","","","",""
"7058.299999916926","","","post_reveal_questions","survey-likert","544","1947797","0.0-6.0-6.76","3197138","co379","norming","","","{""aha"":5}","[0]","../img/tt/1250tt.jpg","",""
"null","<div style=""font-size:60px;""> </div>","null","fixation","html-keyboard-response","545","1948010","0.0-6.0-0.77","3197138","co379","norming","","","","","","",""
"null","../img/tt/273tt.jpg","null","mooney1","image-keyboard-response","546","1951014","0.0-6.0-1.77","3197138","co379","norming","","","","","","",""
"4712.77999994345","","","post_mooney1_questions","survey-likert","547","1955732","0.0-6.0-2.77","3197138","co379","norming","","","{""curiosity"":5,""confidence"":4}","[0,1]","../img/tt/273tt.jpg","",""
"1870.0049999170005","","","recognition","survey-text","548","1957607","0.0-6.0-3.77","3197138","co379","norming","","","{""guess"":""fingers""}","","../img/tt/273tt.jpg","",""
"null","../img/gs/273gs.jpg","null","reveal","image-keyboard-response","549","1959615","0.0-6.0-4.77","3197138","co379","norming","","","","","","",""
"null","../img/tt/273tt.jpg","null","mooney2","image-keyboard-response","550","1961630","0.0-6.0-5.77","3197138","co379","norming","","","","","","",""
"3832.0349999703467","","","post_reveal_questions","survey-likert","551","1965466","0.0-6.0-6.77","3197138","co379","norming","","","{""aha"":4}","[0]","../img/tt/273tt.jpg","",""
"null","<div style=""font-size:60px;""> </div>","null","fixation","html-keyboard-response","552","1965677","0.0-6.0-0.78","3197138","co379","norming","","","","","","",""
"null","../img/tt/1027tt.jpg","null","mooney1","image-keyboard-response","553","1968699","0.0-6.0-1.78","3197138","co379","norming","","","","","","",""
"6002.4699999485165","","","post_mooney1_questions","survey-likert","554","1974705","0.0-6.0-2.78","3197138","co379","norming","","","{""curiosity"":4,""confidence"":6}","[0,1]","../img/tt/1027tt.jpg","",""
"1912.1700001414865","","","recognition","survey-text","555","1976622","0.0-6.0-3.78","3197138","co379","norming","","","{""guess"":""cow""}","","../img/tt/1027tt.jpg","",""
"null","../img/gs/1027gs.jpg","null","reveal","image-keyboard-response","556","1978639","0.0-6.0-4.78","3197138","co379","norming","","","","","","",""
"null","../img/tt/1027tt.jpg","null","mooney2","image-keyboard-response","557","1980655","0.0-6.0-5.78","3197138","co379","norming","","","","","","",""
"9304.15999982506","","","post_reveal_questions","survey-likert","558","1989963","0.0-6.0-6.78","3197138","co379","norming","","","{""aha"":2}","[0]","../img/tt/1027tt.jpg","",""
