"rt","stimulus","key_press","test_part","trial_type","trial_index","time_elapsed","internal_node_id","totalTime","subject","experiment_name","button_pressed","success","responses","question_order","currentStim","old","correct"
"7728","Welcome to the experiment. This is an online experiment so please don't close the tab/window until we say goodbye.  Press any key to begin.","32","instructions","html-keyboard-response","0","7759","0.0-0.0","4111090","co37819","norming","","","","","","",""
"70225","<div style='word-wrap: break-word; width: 900px'><h3>Please consider this information carefully before deciding whether to participate in this research</h3><ul style='text-align: left; font-size: .8em;'><li><b>Purpose of the research</b>: To examine how people process images.</li><li><b>What you will do in this research</b>:  Stimuli (images) will be presented on the computer and you will be asked different questions about them.</li><li><b>Time required</b>: Participation will take between 45 and 60 minutes to complete.</li><li><b>Risks</b>:  There are no anticipated risks associated with participating in this study. The effects of participating should be comparable to those you would experience from viewing a computer monitor for 30 minutes and using a mouse or keyboard.</li><li><b>Benefits</b>:  This study provides no benefits to you individually except for the credit. The study provides important information about the nature of perception and learning.</li><li><b>Confidentiality</b>:  Your participation in this study will remain confidential. No personally identifiable information will be associated with your data. Your de-identified data may be shared with other researchers and used in future projects.</li><li><b>Participation and withdrawal</b>:  Your participation in this study is completely voluntary and you may refuse to participate or you may choose to withdraw at any time without penalty.</li><li><b>How to contact the researchers</b>: If you have questions or concerns about your participation or payment, or want to request a summary of research findings, please contact Sander Van de Cruys (KU Leuven), at sander.vandecruys@kuleuven.be.</li></ul><p>The nature and purpose of this research have been sufficiently explained and I agree to participate in this study.  I understand that I am free to withdraw at any time without incurring any penalty.</p><p>Please consent by clicking the button below to continue. Otherwise, please exit the study at this time.</p></div>","","instructions","html-button-response","1","77989","0.0-1.0","4111090","co37819","norming","0","","","","","",""
"","","","instructions","fullscreen","2","89044","0.0-2.0","4111090","co37819","norming","","true","","","","",""
"83191","","","sona","survey-html-form","3","172306","0.0-3.0","4111090","co37819","norming","","","[{""name"":""sonaid"",""value"":""37819""},{""name"":""debrief"",""value"":""yes""},{""name"":""datajoin"",""value"":""yes""}]","","","",""
"118180.99999999997","<div style='word-wrap: break-word; width: 900px'><h3>Instructions</h3><p>This experiment will have 3 parts. In the first part you will see a series of distorted images like the one below on the left. As you can see in the righthand image, the distorted images are derived from actual photographs. In what follows, you will <strong>briefly</strong> be presented with <strong>only</strong> the distorted image.</p> <div style='float: left; margin-right: 20px;'><img src='../img/018tt.jpg' height='250' width='250'></img></div><div style='float: right; margin-left: 20px;'><img src='../img/018gs.jpg' height='250' width='250'></img></div><p>Subsequently you will be asked a few questions about the image: One question on how <strong>curious</strong> you are about the solution and one on how <strong>confident</strong> you are that you know the solution.</p>Next, we ask you to make a guess on what is in the image. Note that it is OK to name just the <strong>basic level category</strong>. For example when you see a parrot in the image, 'parrot' will obviously be a correct answer but also correct is 'bird'. However, 'animal' will <strong>not</strong> be counted as a correct response. For the example above, 'rose' would be correct or 'flower', but not 'plant'. When soccer players are depicted, 'soccer', 'football', 'soccer players' will be correct, but not 'humans', 'outdoors', or 'sports'. You do not need to describe the image in full, just name the main object in it <strong>in one or two words</strong>. All images depict objects from one of the following broad level categories: animals, inanimate objects, plants, sports, vehicles, and food. Recognizing means knowing <strong>more</strong> than these broad labels for a given image. But we always encourage you to <strong>make a guess</strong> if you can. Note that you are allowed to use <strong>Dutch and English</strong> in your answers, whatever comes easiest for you.</p><p>Press any key to continue.</p></div>","32","instructions","html-keyboard-response","4","290492","0.0-4.0","4111090","co37819","norming","","","","","","",""
"24400.99999999994","<div style='word-wrap: break-word; width: 900px'><h3>Instructions</h3> <p>Next, the solution image will be revealed to you and you'll be asked to indicate how strong your <strong>aha-experience</strong> was after seeing the solution. This describes the positive feeling of the 'click' you sometimes experience, when the pieces of the 'puzzle' fall together and you suddenly have 'insight' in the image.</p><img src='aha.jpg' height='188' width='250'></img><p>Note that there are no right or wrong answers. We are interested in what <strong>you</strong> see in the image and how <strong>you</strong> feel about it.</p><p>Press any key to start the experiment.</p></div>","32","instructions","html-keyboard-response","5","314895","0.0-5.0","4111090","co37819","norming","","","","","","",""
"null","<div style=""font-size:60px;""> </div>","null","fixation","html-keyboard-response","6","315097","0.0-6.0-0.0","4111090","co37819","norming","","","","","","",""
"null","../img/tt/1190tt.jpg","null","mooney1","image-keyboard-response","7","318100","0.0-6.0-1.0","4111090","co37819","norming","","","","","","",""
"8249","","","post_mooney1_questions","survey-likert","8","326352","0.0-6.0-2.0","4111090","co37819","norming","","","{""curiosity"":3,""confidence"":0}","[0,1]","../img/tt/1190tt.jpg","",""
"7287","","","recognition","survey-text","9","333648","0.0-6.0-3.0","4111090","co37819","norming","","","{""guess"":""weide""}","","../img/tt/1190tt.jpg","",""
"null","../img/gs/1190gs.jpg","null","reveal","image-keyboard-response","10","335650","0.0-6.0-4.0","4111090","co37819","norming","","","","","","",""
"null","../img/tt/1190tt.jpg","null","mooney2","image-keyboard-response","11","337652","0.0-6.0-5.0","4111090","co37819","norming","","","","","","",""
"6002","","","post_reveal_questions","survey-likert","12","343656","0.0-6.0-6.0","4111090","co37819","norming","","","{""aha"":0}","[0]","../img/tt/1190tt.jpg","",""
"null","<div style=""font-size:60px;""> </div>","null","fixation","html-keyboard-response","13","343860","0.0-6.0-0.1","4111090","co37819","norming","","","","","","",""
"null","../img/tt/140tt.jpg","null","mooney1","image-keyboard-response","14","346862","0.0-6.0-1.1","4111090","co37819","norming","","","","","","",""
"11812","","","post_mooney1_questions","survey-likert","15","358677","0.0-6.0-2.1","4111090","co37819","norming","","","{""curiosity"":2,""confidence"":1}","[0,1]","../img/tt/140tt.jpg","",""
"7984.000000000058","","","recognition","survey-text","16","366668","0.0-6.0-3.1","4111090","co37819","norming","","","{""guess"":""spinwiel""}","","../img/tt/140tt.jpg","",""
"null","../img/gs/140gs.jpg","null","reveal","image-keyboard-response","17","368670","0.0-6.0-4.1","4111090","co37819","norming","","","","","","",""
"null","../img/tt/140tt.jpg","null","mooney2","image-keyboard-response","18","370673","0.0-6.0-5.1","4111090","co37819","norming","","","","","","",""
"4184.000000000058","","","post_reveal_questions","survey-likert","19","374859","0.0-6.0-6.1","4111090","co37819","norming","","","{""aha"":3}","[0]","../img/tt/140tt.jpg","",""
"null","<div style=""font-size:60px;""> </div>","null","fixation","html-keyboard-response","20","375062","0.0-6.0-0.2","4111090","co37819","norming","","","","","","",""
"null","../img/tt/1309tt.jpg","null","mooney1","image-keyboard-response","21","378064","0.0-6.0-1.2","4111090","co37819","norming","","","","","","",""
"6091.000000000058","","","post_mooney1_questions","survey-likert","22","384156","0.0-6.0-2.2","4111090","co37819","norming","","","{""curiosity"":4,""confidence"":0}","[0,1]","../img/tt/1309tt.jpg","",""
"3676","","","recognition","survey-text","23","387842","0.0-6.0-3.2","4111090","co37819","norming","","","{""guess"":""auto""}","","../img/tt/1309tt.jpg","",""
"null","../img/gs/1309gs.jpg","null","reveal","image-keyboard-response","24","389844","0.0-6.0-4.2","4111090","co37819","norming","","","","","","",""
"null","../img/tt/1309tt.jpg","null","mooney2","image-keyboard-response","25","391846","0.0-6.0-5.2","4111090","co37819","norming","","","","","","",""
"6982.000000000058","","","post_reveal_questions","survey-likert","26","398830","0.0-6.0-6.2","4111090","co37819","norming","","","{""aha"":2}","[0]","../img/tt/1309tt.jpg","",""
"null","<div style=""font-size:60px;""> </div>","null","fixation","html-keyboard-response","27","399034","0.0-6.0-0.3","4111090","co37819","norming","","","","","","",""
"null","../img/tt/1122tt.jpg","null","mooney1","image-keyboard-response","28","402036","0.0-6.0-1.3","4111090","co37819","norming","","","","","","",""
"4653","","","post_mooney1_questions","survey-likert","29","406692","0.0-6.0-2.3","4111090","co37819","norming","","","{""curiosity"":4,""confidence"":4}","[0,1]","../img/tt/1122tt.jpg","",""
"3204","","","recognition","survey-text","30","409905","0.0-6.0-3.3","4111090","co37819","norming","","","{""guess"":""tein""}","","../img/tt/1122tt.jpg","",""
"null","../img/gs/1122gs.jpg","null","reveal","image-keyboard-response","31","411908","0.0-6.0-4.3","4111090","co37819","norming","","","","","","",""
"null","../img/tt/1122tt.jpg","null","mooney2","image-keyboard-response","32","413910","0.0-6.0-5.3","4111090","co37819","norming","","","","","","",""
"13450","","","post_reveal_questions","survey-likert","33","427362","0.0-6.0-6.3","4111090","co37819","norming","","","{""aha"":2}","[0]","../img/tt/1122tt.jpg","",""
"null","<div style=""font-size:60px;""> </div>","null","fixation","html-keyboard-response","34","427565","0.0-6.0-0.4","4111090","co37819","norming","","","","","","",""
"null","../img/tt/1130tt.jpg","null","mooney1","image-keyboard-response","35","430567","0.0-6.0-1.4","4111090","co37819","norming","","","","","","",""
"5020.999999999942","","","post_mooney1_questions","survey-likert","36","435590","0.0-6.0-2.4","4111090","co37819","norming","","","{""curiosity"":4,""confidence"":3}","[0,1]","../img/tt/1130tt.jpg","",""
"8909","","","recognition","survey-text","37","444508","0.0-6.0-3.4","4111090","co37819","norming","","","{""guess"":""soccer""}","","../img/tt/1130tt.jpg","",""
"null","../img/gs/1130gs.jpg","null","reveal","image-keyboard-response","38","446511","0.0-6.0-4.4","4111090","co37819","norming","","","","","","",""
"null","../img/tt/1130tt.jpg","null","mooney2","image-keyboard-response","39","448513","0.0-6.0-5.4","4111090","co37819","norming","","","","","","",""
"5559","","","post_reveal_questions","survey-likert","40","454073","0.0-6.0-6.4","4111090","co37819","norming","","","{""aha"":3}","[0]","../img/tt/1130tt.jpg","",""
"null","<div style=""font-size:60px;""> </div>","null","fixation","html-keyboard-response","41","454277","0.0-6.0-0.5","4111090","co37819","norming","","","","","","",""
"null","../img/tt/1250tt.jpg","null","mooney1","image-keyboard-response","42","457279","0.0-6.0-1.5","4111090","co37819","norming","","","","","","",""
"6114","","","post_mooney1_questions","survey-likert","43","463395","0.0-6.0-2.5","4111090","co37819","norming","","","{""curiosity"":3,""confidence"":1}","[0,1]","../img/tt/1250tt.jpg","",""
"3072","","","recognition","survey-text","44","466477","0.0-6.0-3.5","4111090","co37819","norming","","","{""guess"":""zee""}","","../img/tt/1250tt.jpg","",""
"null","../img/gs/1250gs.jpg","null","reveal","image-keyboard-response","45","468479","0.0-6.0-4.5","4111090","co37819","norming","","","","","","",""
"null","../img/tt/1250tt.jpg","null","mooney2","image-keyboard-response","46","470481","0.0-6.0-5.5","4111090","co37819","norming","","","","","","",""
"4056.000000000058","","","post_reveal_questions","survey-likert","47","474539","0.0-6.0-6.5","4111090","co37819","norming","","","{""aha"":2}","[0]","../img/tt/1250tt.jpg","",""
"null","<div style=""font-size:60px;""> </div>","null","fixation","html-keyboard-response","48","474742","0.0-6.0-0.6","4111090","co37819","norming","","","","","","",""
"null","../img/tt/1044tt.jpg","null","mooney1","image-keyboard-response","49","477745","0.0-6.0-1.6","4111090","co37819","norming","","","","","","",""
"5217","","","post_mooney1_questions","survey-likert","50","482963","0.0-6.0-2.6","4111090","co37819","norming","","","{""curiosity"":5,""confidence"":2}","[0,1]","../img/tt/1044tt.jpg","",""
"4401","","","recognition","survey-text","51","487375","0.0-6.0-3.6","4111090","co37819","norming","","","{""guess"":""cowboy""}","","../img/tt/1044tt.jpg","",""
"null","../img/gs/1044gs.jpg","null","reveal","image-keyboard-response","52","489378","0.0-6.0-4.6","4111090","co37819","norming","","","","","","",""
"null","../img/tt/1044tt.jpg","null","mooney2","image-keyboard-response","53","491380","0.0-6.0-5.6","4111090","co37819","norming","","","","","","",""
"5608","","","post_reveal_questions","survey-likert","54","496990","0.0-6.0-6.6","4111090","co37819","norming","","","{""aha"":3}","[0]","../img/tt/1044tt.jpg","",""
"null","<div style=""font-size:60px;""> </div>","null","fixation","html-keyboard-response","55","497194","0.0-6.0-0.7","4111090","co37819","norming","","","","","","",""
"null","../img/tt/1196tt.jpg","null","mooney1","image-keyboard-response","56","500196","0.0-6.0-1.7","4111090","co37819","norming","","","","","","",""
"8468.000000000058","","","post_mooney1_questions","survey-likert","57","508665","0.0-6.0-2.7","4111090","co37819","norming","","","{""curiosity"":5,""confidence"":4}","[0,1]","../img/tt/1196tt.jpg","",""
"3655.999999999942","","","recognition","survey-text","58","512331","0.0-6.0-3.7","4111090","co37819","norming","","","{""guess"":""tunnel""}","","../img/tt/1196tt.jpg","",""
"null","../img/gs/1196gs.jpg","null","reveal","image-keyboard-response","59","514334","0.0-6.0-4.7","4111090","co37819","norming","","","","","","",""
"null","../img/tt/1196tt.jpg","null","mooney2","image-keyboard-response","60","516336","0.0-6.0-5.7","4111090","co37819","norming","","","","","","",""
"10091.999999999942","","","post_reveal_questions","survey-likert","61","526430","0.0-6.0-6.7","4111090","co37819","norming","","","{""aha"":2}","[0]","../img/tt/1196tt.jpg","",""
"null","<div style=""font-size:60px;""> </div>","null","fixation","html-keyboard-response","62","526633","0.0-6.0-0.8","4111090","co37819","norming","","","","","","",""
"null","../img/tt/1046tt.jpg","null","mooney1","image-keyboard-response","63","529635","0.0-6.0-1.8","4111090","co37819","norming","","","","","","",""
"6975","","","post_mooney1_questions","survey-likert","64","536612","0.0-6.0-2.8","4111090","co37819","norming","","","{""curiosity"":4,""confidence"":1}","[0,1]","../img/tt/1046tt.jpg","",""
"1626","","","recognition","survey-text","65","538247","0.0-6.0-3.8","4111090","co37819","norming","","","{""guess"":""""}","","../img/tt/1046tt.jpg","",""
"null","../img/gs/1046gs.jpg","null","reveal","image-keyboard-response","66","540250","0.0-6.0-4.8","4111090","co37819","norming","","","","","","",""
"null","../img/tt/1046tt.jpg","null","mooney2","image-keyboard-response","67","542251","0.0-6.0-5.8","4111090","co37819","norming","","","","","","",""
"3399","","","post_reveal_questions","survey-likert","68","545651","0.0-6.0-6.8","4111090","co37819","norming","","","{""aha"":4}","[0]","../img/tt/1046tt.jpg","",""
"null","<div style=""font-size:60px;""> </div>","null","fixation","html-keyboard-response","69","545855","0.0-6.0-0.9","4111090","co37819","norming","","","","","","",""
"null","../img/tt/007tt.jpg","null","mooney1","image-keyboard-response","70","548857","0.0-6.0-1.9","4111090","co37819","norming","","","","","","",""
"8255","","","post_mooney1_questions","survey-likert","71","557116","0.0-6.0-2.9","4111090","co37819","norming","","","{""curiosity"":2,""confidence"":1}","[0,1]","../img/tt/007tt.jpg","",""
"1962","","","recognition","survey-text","72","559087","0.0-6.0-3.9","4111090","co37819","norming","","","{""guess"":""human""}","","../img/tt/007tt.jpg","",""
"null","../img/gs/007gs.jpg","null","reveal","image-keyboard-response","73","561090","0.0-6.0-4.9","4111090","co37819","norming","","","","","","",""
"null","../img/tt/007tt.jpg","null","mooney2","image-keyboard-response","74","563092","0.0-6.0-5.9","4111090","co37819","norming","","","","","","",""
"2766","","","post_reveal_questions","survey-likert","75","565860","0.0-6.0-6.9","4111090","co37819","norming","","","{""aha"":4}","[0]","../img/tt/007tt.jpg","",""
"null","<div style=""font-size:60px;""> </div>","null","fixation","html-keyboard-response","76","566063","0.0-6.0-0.10","4111090","co37819","norming","","","","","","",""
"null","../img/tt/1227tt.jpg","null","mooney1","image-keyboard-response","77","569065","0.0-6.0-1.10","4111090","co37819","norming","","","","","","",""
"7491","","","post_mooney1_questions","survey-likert","78","576558","0.0-6.0-2.10","4111090","co37819","norming","","","{""curiosity"":2,""confidence"":1}","[0,1]","../img/tt/1227tt.jpg","",""
"15140","","","recognition","survey-text","79","591707","0.0-6.0-3.10","4111090","co37819","norming","","","{""guess"":""ground""}","","../img/tt/1227tt.jpg","",""
"null","../img/gs/1227gs.jpg","null","reveal","image-keyboard-response","80","593709","0.0-6.0-4.10","4111090","co37819","norming","","","","","","",""
"null","../img/tt/1227tt.jpg","null","mooney2","image-keyboard-response","81","595711","0.0-6.0-5.10","4111090","co37819","norming","","","","","","",""
"4901","","","post_reveal_questions","survey-likert","82","600614","0.0-6.0-6.10","4111090","co37819","norming","","","{""aha"":2}","[0]","../img/tt/1227tt.jpg","",""
"null","<div style=""font-size:60px;""> </div>","null","fixation","html-keyboard-response","83","600817","0.0-6.0-0.11","4111090","co37819","norming","","","","","","",""
"null","../img/tt/1268tt.jpg","null","mooney1","image-keyboard-response","84","603819","0.0-6.0-1.11","4111090","co37819","norming","","","","","","",""
"9095","","","post_mooney1_questions","survey-likert","85","612916","0.0-6.0-2.11","4111090","co37819","norming","","","{""curiosity"":3,""confidence"":1}","[0,1]","../img/tt/1268tt.jpg","",""
"3211","","","recognition","survey-text","86","616140","0.0-6.0-3.11","4111090","co37819","norming","","","{""guess"":""boulder""}","","../img/tt/1268tt.jpg","",""
"null","../img/gs/1268gs.jpg","null","reveal","image-keyboard-response","87","618142","0.0-6.0-4.11","4111090","co37819","norming","","","","","","",""
"null","../img/tt/1268tt.jpg","null","mooney2","image-keyboard-response","88","620145","0.0-6.0-5.11","4111090","co37819","norming","","","","","","",""
"4029","","","post_reveal_questions","survey-likert","89","624176","0.0-6.0-6.11","4111090","co37819","norming","","","{""aha"":3}","[0]","../img/tt/1268tt.jpg","",""
"null","<div style=""font-size:60px;""> </div>","null","fixation","html-keyboard-response","90","624379","0.0-6.0-0.12","4111090","co37819","norming","","","","","","",""
"null","../img/tt/307tt.jpg","null","mooney1","image-keyboard-response","91","627380","0.0-6.0-1.12","4111090","co37819","norming","","","","","","",""
"4649","","","post_mooney1_questions","survey-likert","92","632031","0.0-6.0-2.12","4111090","co37819","norming","","","{""curiosity"":4,""confidence"":3}","[0,1]","../img/tt/307tt.jpg","",""
"1837","","","recognition","survey-text","93","633877","0.0-6.0-3.12","4111090","co37819","norming","","","{""guess"":""shoe""}","","../img/tt/307tt.jpg","",""
"null","../img/gs/307gs.jpg","null","reveal","image-keyboard-response","94","635880","0.0-6.0-4.12","4111090","co37819","norming","","","","","","",""
"null","../img/tt/307tt.jpg","null","mooney2","image-keyboard-response","95","637882","0.0-6.0-5.12","4111090","co37819","norming","","","","","","",""
"5821","","","post_reveal_questions","survey-likert","96","643705","0.0-6.0-6.12","4111090","co37819","norming","","","{""aha"":4}","[0]","../img/tt/307tt.jpg","",""
"null","<div style=""font-size:60px;""> </div>","null","fixation","html-keyboard-response","97","643908","0.0-6.0-0.13","4111090","co37819","norming","","","","","","",""
"null","../img/tt/416tt.jpg","null","mooney1","image-keyboard-response","98","646909","0.0-6.0-1.13","4111090","co37819","norming","","","","","","",""
"4989","","","post_mooney1_questions","survey-likert","99","651901","0.0-6.0-2.13","4111090","co37819","norming","","","{""curiosity"":6,""confidence"":6}","[0,1]","../img/tt/416tt.jpg","",""
"4374.000000000116","","","recognition","survey-text","100","656283","0.0-6.0-3.13","4111090","co37819","norming","","","{""guess"":""ostrich ""}","","../img/tt/416tt.jpg","",""
"null","../img/gs/416gs.jpg","null","reveal","image-keyboard-response","101","658286","0.0-6.0-4.13","4111090","co37819","norming","","","","","","",""
"null","../img/tt/416tt.jpg","null","mooney2","image-keyboard-response","102","660288","0.0-6.0-5.13","4111090","co37819","norming","","","","","","",""
"3412.0000000001164","","","post_reveal_questions","survey-likert","103","663702","0.0-6.0-6.13","4111090","co37819","norming","","","{""aha"":6}","[0]","../img/tt/416tt.jpg","",""
"null","<div style=""font-size:60px;""> </div>","null","fixation","html-keyboard-response","104","663905","0.0-6.0-0.14","4111090","co37819","norming","","","","","","",""
"null","../img/tt/135tt.jpg","null","mooney1","image-keyboard-response","105","666908","0.0-6.0-1.14","4111090","co37819","norming","","","","","","",""
"4381.999999999884","","","post_mooney1_questions","survey-likert","106","671291","0.0-6.0-2.14","4111090","co37819","norming","","","{""curiosity"":6,""confidence"":6}","[0,1]","../img/tt/135tt.jpg","",""
"3292","","","recognition","survey-text","107","674592","0.0-6.0-3.14","4111090","co37819","norming","","","{""guess"":""toilet""}","","../img/tt/135tt.jpg","",""
"null","../img/gs/135gs.jpg","null","reveal","image-keyboard-response","108","676594","0.0-6.0-4.14","4111090","co37819","norming","","","","","","",""
"null","../img/tt/135tt.jpg","null","mooney2","image-keyboard-response","109","678597","0.0-6.0-5.14","4111090","co37819","norming","","","","","","",""
"3031","","","post_reveal_questions","survey-likert","110","681630","0.0-6.0-6.14","4111090","co37819","norming","","","{""aha"":6}","[0]","../img/tt/135tt.jpg","",""
"null","<div style=""font-size:60px;""> </div>","null","fixation","html-keyboard-response","111","681833","0.0-6.0-0.15","4111090","co37819","norming","","","","","","",""
"null","../img/tt/126tt.jpg","null","mooney1","image-keyboard-response","112","684835","0.0-6.0-1.15","4111090","co37819","norming","","","","","","",""
"6147","","","post_mooney1_questions","survey-likert","113","690984","0.0-6.0-2.15","4111090","co37819","norming","","","{""curiosity"":5,""confidence"":0}","[0,1]","../img/tt/126tt.jpg","",""
"378","","","recognition","survey-text","114","691368","0.0-6.0-3.15","4111090","co37819","norming","","","{""guess"":""""}","","../img/tt/126tt.jpg","",""
"null","../img/gs/126gs.jpg","null","reveal","image-keyboard-response","115","693369","0.0-6.0-4.15","4111090","co37819","norming","","","","","","",""
"null","../img/tt/126tt.jpg","null","mooney2","image-keyboard-response","116","695372","0.0-6.0-5.15","4111090","co37819","norming","","","","","","",""
"3989.0000000001164","","","post_reveal_questions","survey-likert","117","699361","0.0-6.0-6.15","4111090","co37819","norming","","","{""aha"":5}","[0]","../img/tt/126tt.jpg","",""
"null","<div style=""font-size:60px;""> </div>","null","fixation","html-keyboard-response","118","699565","0.0-6.0-0.16","4111090","co37819","norming","","","","","","",""
"null","../img/tt/357tt.jpg","null","mooney1","image-keyboard-response","119","702567","0.0-6.0-1.16","4111090","co37819","norming","","","","","","",""
"8555","","","post_mooney1_questions","survey-likert","120","711123","0.0-6.0-2.16","4111090","co37819","norming","","","{""curiosity"":4,""confidence"":1}","[0,1]","../img/tt/357tt.jpg","",""
"3056.9999999998836","","","recognition","survey-text","121","714188","0.0-6.0-3.16","4111090","co37819","norming","","","{""guess"":""turtle""}","","../img/tt/357tt.jpg","",""
"null","../img/gs/357gs.jpg","null","reveal","image-keyboard-response","122","716191","0.0-6.0-4.16","4111090","co37819","norming","","","","","","",""
"null","../img/tt/357tt.jpg","null","mooney2","image-keyboard-response","123","718193","0.0-6.0-5.16","4111090","co37819","norming","","","","","","",""
"6299","","","post_reveal_questions","survey-likert","124","724494","0.0-6.0-6.16","4111090","co37819","norming","","","{""aha"":4}","[0]","../img/tt/357tt.jpg","",""
"null","<div style=""font-size:60px;""> </div>","null","fixation","html-keyboard-response","125","724697","0.0-6.0-0.17","4111090","co37819","norming","","","","","","",""
"null","../img/tt/1189tt.jpg","null","mooney1","image-keyboard-response","126","727700","0.0-6.0-1.17","4111090","co37819","norming","","","","","","",""
"5478.000000000116","","","post_mooney1_questions","survey-likert","127","733180","0.0-6.0-2.17","4111090","co37819","norming","","","{""curiosity"":4,""confidence"":0}","[0,1]","../img/tt/1189tt.jpg","",""
"895","","","recognition","survey-text","128","734082","0.0-6.0-3.17","4111090","co37819","norming","","","{""guess"":""""}","","../img/tt/1189tt.jpg","",""
"null","../img/gs/1189gs.jpg","null","reveal","image-keyboard-response","129","736085","0.0-6.0-4.17","4111090","co37819","norming","","","","","","",""
"null","../img/tt/1189tt.jpg","null","mooney2","image-keyboard-response","130","738087","0.0-6.0-5.17","4111090","co37819","norming","","","","","","",""
"6550","","","post_reveal_questions","survey-likert","131","744639","0.0-6.0-6.17","4111090","co37819","norming","","","{""aha"":4}","[0]","../img/tt/1189tt.jpg","",""
"null","<div style=""font-size:60px;""> </div>","null","fixation","html-keyboard-response","132","744841","0.0-6.0-0.18","4111090","co37819","norming","","","","","","",""
"null","../img/tt/1097tt.jpg","null","mooney1","image-keyboard-response","133","747844","0.0-6.0-1.18","4111090","co37819","norming","","","","","","",""
"7458","","","post_mooney1_questions","survey-likert","134","755304","0.0-6.0-2.18","4111090","co37819","norming","","","{""curiosity"":6,""confidence"":4}","[0,1]","../img/tt/1097tt.jpg","",""
"3078.0000000001164","","","recognition","survey-text","135","758388","0.0-6.0-3.18","4111090","co37819","norming","","","{""guess"":""farmer""}","","../img/tt/1097tt.jpg","",""
"null","../img/gs/1097gs.jpg","null","reveal","image-keyboard-response","136","760391","0.0-6.0-4.18","4111090","co37819","norming","","","","","","",""
"null","../img/tt/1097tt.jpg","null","mooney2","image-keyboard-response","137","762393","0.0-6.0-5.18","4111090","co37819","norming","","","","","","",""
"2816.0000000001164","","","post_reveal_questions","survey-likert","138","765209","0.0-6.0-6.18","4111090","co37819","norming","","","{""aha"":5}","[0]","../img/tt/1097tt.jpg","",""
"null","<div style=""font-size:60px;""> </div>","null","fixation","html-keyboard-response","139","765412","0.0-6.0-0.19","4111090","co37819","norming","","","","","","",""
"null","../img/tt/1107tt.jpg","null","mooney1","image-keyboard-response","140","768414","0.0-6.0-1.19","4111090","co37819","norming","","","","","","",""
"6770.000000000116","","","post_mooney1_questions","survey-likert","141","775186","0.0-6.0-2.19","4111090","co37819","norming","","","{""curiosity"":4,""confidence"":1}","[0,1]","../img/tt/1107tt.jpg","",""
"5340","","","recognition","survey-text","142","780534","0.0-6.0-3.19","4111090","co37819","norming","","","{""guess"":""side face""}","","../img/tt/1107tt.jpg","",""
"null","../img/gs/1107gs.jpg","null","reveal","image-keyboard-response","143","782536","0.0-6.0-4.19","4111090","co37819","norming","","","","","","",""
"null","../img/tt/1107tt.jpg","null","mooney2","image-keyboard-response","144","784538","0.0-6.0-5.19","4111090","co37819","norming","","","","","","",""
"2981","","","post_reveal_questions","survey-likert","145","787522","0.0-6.0-6.19","4111090","co37819","norming","","","{""aha"":4}","[0]","../img/tt/1107tt.jpg","",""
"null","<div style=""font-size:60px;""> </div>","null","fixation","html-keyboard-response","146","787725","0.0-6.0-0.20","4111090","co37819","norming","","","","","","",""
"null","../img/tt/598tt.jpg","null","mooney1","image-keyboard-response","147","790728","0.0-6.0-1.20","4111090","co37819","norming","","","","","","",""
"6298","","","post_mooney1_questions","survey-likert","148","797028","0.0-6.0-2.20","4111090","co37819","norming","","","{""curiosity"":4,""confidence"":1}","[0,1]","../img/tt/598tt.jpg","",""
"6219","","","recognition","survey-text","149","803256","0.0-6.0-3.20","4111090","co37819","norming","","","{""guess"":""human carrying""}","","../img/tt/598tt.jpg","",""
"null","../img/gs/598gs.jpg","null","reveal","image-keyboard-response","150","805259","0.0-6.0-4.20","4111090","co37819","norming","","","","","","",""
"null","../img/tt/598tt.jpg","null","mooney2","image-keyboard-response","151","807260","0.0-6.0-5.20","4111090","co37819","norming","","","","","","",""
"4364","","","post_reveal_questions","survey-likert","152","811626","0.0-6.0-6.20","4111090","co37819","norming","","","{""aha"":6}","[0]","../img/tt/598tt.jpg","",""
"null","<div style=""font-size:60px;""> </div>","null","fixation","html-keyboard-response","153","811829","0.0-6.0-0.21","4111090","co37819","norming","","","","","","",""
"null","../img/tt/1012tt.jpg","null","mooney1","image-keyboard-response","154","814831","0.0-6.0-1.21","4111090","co37819","norming","","","","","","",""
"3797.0000000001164","","","post_mooney1_questions","survey-likert","155","818629","0.0-6.0-2.21","4111090","co37819","norming","","","{""curiosity"":4,""confidence"":1}","[0,1]","../img/tt/1012tt.jpg","",""
"6119","","","recognition","survey-text","156","824757","0.0-6.0-3.21","4111090","co37819","norming","","","{""guess"":""snake""}","","../img/tt/1012tt.jpg","",""
"null","../img/gs/1012gs.jpg","null","reveal","image-keyboard-response","157","826760","0.0-6.0-4.21","4111090","co37819","norming","","","","","","",""
"null","../img/tt/1012tt.jpg","null","mooney2","image-keyboard-response","158","828762","0.0-6.0-5.21","4111090","co37819","norming","","","","","","",""
"4622","","","post_reveal_questions","survey-likert","159","833386","0.0-6.0-6.21","4111090","co37819","norming","","","{""aha"":4}","[0]","../img/tt/1012tt.jpg","",""
"null","<div style=""font-size:60px;""> </div>","null","fixation","html-keyboard-response","160","833589","0.0-6.0-0.22","4111090","co37819","norming","","","","","","",""
"null","../img/tt/440tt.jpg","null","mooney1","image-keyboard-response","161","836592","0.0-6.0-1.22","4111090","co37819","norming","","","","","","",""
"4735","","","post_mooney1_questions","survey-likert","162","841328","0.0-6.0-2.22","4111090","co37819","norming","","","{""curiosity"":4,""confidence"":3}","[0,1]","../img/tt/440tt.jpg","",""
"3203.9999999998836","","","recognition","survey-text","163","844541","0.0-6.0-3.22","4111090","co37819","norming","","","{""guess"":""animal""}","","../img/tt/440tt.jpg","",""
"null","../img/gs/440gs.jpg","null","reveal","image-keyboard-response","164","846543","0.0-6.0-4.22","4111090","co37819","norming","","","","","","",""
"null","../img/tt/440tt.jpg","null","mooney2","image-keyboard-response","165","848546","0.0-6.0-5.22","4111090","co37819","norming","","","","","","",""
"3628","","","post_reveal_questions","survey-likert","166","852175","0.0-6.0-6.22","4111090","co37819","norming","","","{""aha"":5}","[0]","../img/tt/440tt.jpg","",""
"null","<div style=""font-size:60px;""> </div>","null","fixation","html-keyboard-response","167","852378","0.0-6.0-0.23","4111090","co37819","norming","","","","","","",""
"null","../img/tt/296tt.jpg","null","mooney1","image-keyboard-response","168","855381","0.0-6.0-1.23","4111090","co37819","norming","","","","","","",""
"4214","","","post_mooney1_questions","survey-likert","169","859596","0.0-6.0-2.23","4111090","co37819","norming","","","{""curiosity"":3,""confidence"":3}","[0,1]","../img/tt/296tt.jpg","",""
"3613","","","recognition","survey-text","170","863215","0.0-6.0-3.23","4111090","co37819","norming","","","{""guess"":""salontafel""}","","../img/tt/296tt.jpg","",""
"null","../img/gs/296gs.jpg","null","reveal","image-keyboard-response","171","865218","0.0-6.0-4.23","4111090","co37819","norming","","","","","","",""
"null","../img/tt/296tt.jpg","null","mooney2","image-keyboard-response","172","867220","0.0-6.0-5.23","4111090","co37819","norming","","","","","","",""
"3961","","","post_reveal_questions","survey-likert","173","871182","0.0-6.0-6.23","4111090","co37819","norming","","","{""aha"":5}","[0]","../img/tt/296tt.jpg","",""
"null","<div style=""font-size:60px;""> </div>","null","fixation","html-keyboard-response","174","871386","0.0-6.0-0.24","4111090","co37819","norming","","","","","","",""
"null","../img/tt/1151tt.jpg","null","mooney1","image-keyboard-response","175","874388","0.0-6.0-1.24","4111090","co37819","norming","","","","","","",""
"5234","","","post_mooney1_questions","survey-likert","176","879623","0.0-6.0-2.24","4111090","co37819","norming","","","{""curiosity"":4,""confidence"":1}","[0,1]","../img/tt/1151tt.jpg","",""
"3708.0000000001164","","","recognition","survey-text","177","883338","0.0-6.0-3.24","4111090","co37819","norming","","","{""guess"":""giraffe""}","","../img/tt/1151tt.jpg","",""
"null","../img/gs/1151gs.jpg","null","reveal","image-keyboard-response","178","885340","0.0-6.0-4.24","4111090","co37819","norming","","","","","","",""
"null","../img/tt/1151tt.jpg","null","mooney2","image-keyboard-response","179","887341","0.0-6.0-5.24","4111090","co37819","norming","","","","","","",""
"14494","","","post_reveal_questions","survey-likert","180","901837","0.0-6.0-6.24","4111090","co37819","norming","","","{""aha"":3}","[0]","../img/tt/1151tt.jpg","",""
"null","<div style=""font-size:60px;""> </div>","null","fixation","html-keyboard-response","181","902040","0.0-6.0-0.25","4111090","co37819","norming","","","","","","",""
"null","../img/tt/085tt.jpg","null","mooney1","image-keyboard-response","182","905043","0.0-6.0-1.25","4111090","co37819","norming","","","","","","",""
"5571","","","post_mooney1_questions","survey-likert","183","910615","0.0-6.0-2.25","4111090","co37819","norming","","","{""curiosity"":4,""confidence"":1}","[0,1]","../img/tt/085tt.jpg","",""
"11779","","","recognition","survey-text","184","922402","0.0-6.0-3.25","4111090","co37819","norming","","","{""guess"":""grasshopper""}","","../img/tt/085tt.jpg","",""
"null","../img/gs/085gs.jpg","null","reveal","image-keyboard-response","185","924405","0.0-6.0-4.25","4111090","co37819","norming","","","","","","",""
"null","../img/tt/085tt.jpg","null","mooney2","image-keyboard-response","186","926407","0.0-6.0-5.25","4111090","co37819","norming","","","","","","",""
"4603","","","post_reveal_questions","survey-likert","187","931012","0.0-6.0-6.25","4111090","co37819","norming","","","{""aha"":5}","[0]","../img/tt/085tt.jpg","",""
"null","<div style=""font-size:60px;""> </div>","null","fixation","html-keyboard-response","188","931214","0.0-6.0-0.26","4111090","co37819","norming","","","","","","",""
"null","../img/tt/1217tt.jpg","null","mooney1","image-keyboard-response","189","934217","0.0-6.0-1.26","4111090","co37819","norming","","","","","","",""
"6904","","","post_mooney1_questions","survey-likert","190","941122","0.0-6.0-2.26","4111090","co37819","norming","","","{""curiosity"":5,""confidence"":1}","[0,1]","../img/tt/1217tt.jpg","",""
"1443","","","recognition","survey-text","191","942574","0.0-6.0-3.26","4111090","co37819","norming","","","{""guess"":""animal""}","","../img/tt/1217tt.jpg","",""
"null","../img/gs/1217gs.jpg","null","reveal","image-keyboard-response","192","944577","0.0-6.0-4.26","4111090","co37819","norming","","","","","","",""
"null","../img/tt/1217tt.jpg","null","mooney2","image-keyboard-response","193","946578","0.0-6.0-5.26","4111090","co37819","norming","","","","","","",""
"3740","","","post_reveal_questions","survey-likert","194","950320","0.0-6.0-6.26","4111090","co37819","norming","","","{""aha"":5}","[0]","../img/tt/1217tt.jpg","",""
"null","<div style=""font-size:60px;""> </div>","null","fixation","html-keyboard-response","195","950522","0.0-6.0-0.27","4111090","co37819","norming","","","","","","",""
"null","../img/tt/301tt.jpg","null","mooney1","image-keyboard-response","196","953525","0.0-6.0-1.27","4111090","co37819","norming","","","","","","",""
"7000","","","post_mooney1_questions","survey-likert","197","960527","0.0-6.0-2.27","4111090","co37819","norming","","","{""curiosity"":6,""confidence"":6}","[0,1]","../img/tt/301tt.jpg","",""
"1804","","","recognition","survey-text","198","962338","0.0-6.0-3.27","4111090","co37819","norming","","","{""guess"":""bell""}","","../img/tt/301tt.jpg","",""
"null","../img/gs/301gs.jpg","null","reveal","image-keyboard-response","199","964341","0.0-6.0-4.27","4111090","co37819","norming","","","","","","",""
"null","../img/tt/301tt.jpg","null","mooney2","image-keyboard-response","200","966343","0.0-6.0-5.27","4111090","co37819","norming","","","","","","",""
"6116.000000000116","","","post_reveal_questions","survey-likert","201","972462","0.0-6.0-6.27","4111090","co37819","norming","","","{""aha"":5}","[0]","../img/tt/301tt.jpg","",""
"null","<div style=""font-size:60px;""> </div>","null","fixation","html-keyboard-response","202","972665","0.0-6.0-0.28","4111090","co37819","norming","","","","","","",""
"null","../img/tt/1275tt.jpg","null","mooney1","image-keyboard-response","203","975667","0.0-6.0-1.28","4111090","co37819","norming","","","","","","",""
"5586","","","post_mooney1_questions","survey-likert","204","981256","0.0-6.0-2.28","4111090","co37819","norming","","","{""curiosity"":5,""confidence"":3}","[0,1]","../img/tt/1275tt.jpg","",""
"2319.9999999998836","","","recognition","survey-text","205","983585","0.0-6.0-3.28","4111090","co37819","norming","","","{""guess"":""tree""}","","../img/tt/1275tt.jpg","",""
"null","../img/gs/1275gs.jpg","null","reveal","image-keyboard-response","206","985587","0.0-6.0-4.28","4111090","co37819","norming","","","","","","",""
"null","../img/tt/1275tt.jpg","null","mooney2","image-keyboard-response","207","987589","0.0-6.0-5.28","4111090","co37819","norming","","","","","","",""
"2759","","","post_reveal_questions","survey-likert","208","990350","0.0-6.0-6.28","4111090","co37819","norming","","","{""aha"":4}","[0]","../img/tt/1275tt.jpg","",""
"null","<div style=""font-size:60px;""> </div>","null","fixation","html-keyboard-response","209","990553","0.0-6.0-0.29","4111090","co37819","norming","","","","","","",""
"null","../img/tt/1261tt.jpg","null","mooney1","image-keyboard-response","210","993556","0.0-6.0-1.29","4111090","co37819","norming","","","","","","",""
"3807","","","post_mooney1_questions","survey-likert","211","997364","0.0-6.0-2.29","4111090","co37819","norming","","","{""curiosity"":4,""confidence"":4}","[0,1]","../img/tt/1261tt.jpg","",""
"3005","","","recognition","survey-text","212","1000378","0.0-6.0-3.29","4111090","co37819","norming","","","{""guess"":""leopard""}","","../img/tt/1261tt.jpg","",""
"null","../img/gs/1261gs.jpg","null","reveal","image-keyboard-response","213","1002381","0.0-6.0-4.29","4111090","co37819","norming","","","","","","",""
"null","../img/tt/1261tt.jpg","null","mooney2","image-keyboard-response","214","1004383","0.0-6.0-5.29","4111090","co37819","norming","","","","","","",""
"13754","","","post_reveal_questions","survey-likert","215","1018138","0.0-6.0-6.29","4111090","co37819","norming","","","{""aha"":5}","[0]","../img/tt/1261tt.jpg","",""
"null","<div style=""font-size:60px;""> </div>","null","fixation","html-keyboard-response","216","1018342","0.0-6.0-0.30","4111090","co37819","norming","","","","","","",""
"null","../img/tt/1089tt.jpg","null","mooney1","image-keyboard-response","217","1021344","0.0-6.0-1.30","4111090","co37819","norming","","","","","","",""
"4597.999999999884","","","post_mooney1_questions","survey-likert","218","1025945","0.0-6.0-2.30","4111090","co37819","norming","","","{""curiosity"":6,""confidence"":6}","[0,1]","../img/tt/1089tt.jpg","",""
"5043","","","recognition","survey-text","219","1030997","0.0-6.0-3.30","4111090","co37819","norming","","","{""guess"":""elephant""}","","../img/tt/1089tt.jpg","",""
"null","../img/gs/1089gs.jpg","null","reveal","image-keyboard-response","220","1032999","0.0-6.0-4.30","4111090","co37819","norming","","","","","","",""
"null","../img/tt/1089tt.jpg","null","mooney2","image-keyboard-response","221","1035001","0.0-6.0-5.30","4111090","co37819","norming","","","","","","",""
"7149","","","post_reveal_questions","survey-likert","222","1042151","0.0-6.0-6.30","4111090","co37819","norming","","","{""aha"":5}","[0]","../img/tt/1089tt.jpg","",""
"null","<div style=""font-size:60px;""> </div>","null","fixation","html-keyboard-response","223","1042355","0.0-6.0-0.31","4111090","co37819","norming","","","","","","",""
"null","../img/tt/1078tt.jpg","null","mooney1","image-keyboard-response","224","1045356","0.0-6.0-1.31","4111090","co37819","norming","","","","","","",""
"4449.000000000233","","","post_mooney1_questions","survey-likert","225","1049808","0.0-6.0-2.31","4111090","co37819","norming","","","{""curiosity"":5,""confidence"":3}","[0,1]","../img/tt/1078tt.jpg","",""
"4600","","","recognition","survey-text","226","1054414","0.0-6.0-3.31","4111090","co37819","norming","","","{""guess"":""human eating""}","","../img/tt/1078tt.jpg","",""
"null","../img/gs/1078gs.jpg","null","reveal","image-keyboard-response","227","1056417","0.0-6.0-4.31","4111090","co37819","norming","","","","","","",""
"null","../img/tt/1078tt.jpg","null","mooney2","image-keyboard-response","228","1058419","0.0-6.0-5.31","4111090","co37819","norming","","","","","","",""
"24928","","","post_reveal_questions","survey-likert","229","1083350","0.0-6.0-6.31","4111090","co37819","norming","","","{""aha"":5}","[0]","../img/tt/1078tt.jpg","",""
"null","<div style=""font-size:60px;""> </div>","null","fixation","html-keyboard-response","230","1083553","0.0-6.0-0.32","4111090","co37819","norming","","","","","","",""
"null","../img/tt/1353tt.jpg","null","mooney1","image-keyboard-response","231","1086555","0.0-6.0-1.32","4111090","co37819","norming","","","","","","",""
"3935","","","post_mooney1_questions","survey-likert","232","1090493","0.0-6.0-2.32","4111090","co37819","norming","","","{""curiosity"":4,""confidence"":3}","[0,1]","../img/tt/1353tt.jpg","",""
"2541","","","recognition","survey-text","233","1093043","0.0-6.0-3.32","4111090","co37819","norming","","","{""guess"":""fruit""}","","../img/tt/1353tt.jpg","",""
"null","../img/gs/1353gs.jpg","null","reveal","image-keyboard-response","234","1095046","0.0-6.0-4.32","4111090","co37819","norming","","","","","","",""
"null","../img/tt/1353tt.jpg","null","mooney2","image-keyboard-response","235","1097048","0.0-6.0-5.32","4111090","co37819","norming","","","","","","",""
"23395","","","post_reveal_questions","survey-likert","236","1120445","0.0-6.0-6.32","4111090","co37819","norming","","","{""aha"":5}","[0]","../img/tt/1353tt.jpg","",""
"null","<div style=""font-size:60px;""> </div>","null","fixation","html-keyboard-response","237","1120648","0.0-6.0-0.33","4111090","co37819","norming","","","","","","",""
"null","../img/tt/1247tt.jpg","null","mooney1","image-keyboard-response","238","1123651","0.0-6.0-1.33","4111090","co37819","norming","","","","","","",""
"6947","","","post_mooney1_questions","survey-likert","239","1130600","0.0-6.0-2.33","4111090","co37819","norming","","","{""curiosity"":3,""confidence"":0}","[0,1]","../img/tt/1247tt.jpg","",""
"718","","","recognition","survey-text","240","1131327","0.0-6.0-3.33","4111090","co37819","norming","","","{""guess"":""""}","","../img/tt/1247tt.jpg","",""
"null","../img/gs/1247gs.jpg","null","reveal","image-keyboard-response","241","1133330","0.0-6.0-4.33","4111090","co37819","norming","","","","","","",""
"null","../img/tt/1247tt.jpg","null","mooney2","image-keyboard-response","242","1135332","0.0-6.0-5.33","4111090","co37819","norming","","","","","","",""
"3964","","","post_reveal_questions","survey-likert","243","1139297","0.0-6.0-6.33","4111090","co37819","norming","","","{""aha"":3}","[0]","../img/tt/1247tt.jpg","",""
"null","<div style=""font-size:60px;""> </div>","null","fixation","html-keyboard-response","244","1139500","0.0-6.0-0.34","4111090","co37819","norming","","","","","","",""
"null","../img/tt/1156tt.jpg","null","mooney1","image-keyboard-response","245","1142502","0.0-6.0-1.34","4111090","co37819","norming","","","","","","",""
"5381","","","post_mooney1_questions","survey-likert","246","1147885","0.0-6.0-2.34","4111090","co37819","norming","","","{""curiosity"":4,""confidence"":0}","[0,1]","../img/tt/1156tt.jpg","",""
"14352","","","recognition","survey-text","247","1162246","0.0-6.0-3.34","4111090","co37819","norming","","","{""guess"":""lying animal""}","","../img/tt/1156tt.jpg","",""
"null","../img/gs/1156gs.jpg","null","reveal","image-keyboard-response","248","1164248","0.0-6.0-4.34","4111090","co37819","norming","","","","","","",""
"null","../img/tt/1156tt.jpg","null","mooney2","image-keyboard-response","249","1166250","0.0-6.0-5.34","4111090","co37819","norming","","","","","","",""
"11546","","","post_reveal_questions","survey-likert","250","1177798","0.0-6.0-6.34","4111090","co37819","norming","","","{""aha"":5}","[0]","../img/tt/1156tt.jpg","",""
"null","<div style=""font-size:60px;""> </div>","null","fixation","html-keyboard-response","251","1178000","0.0-6.0-0.35","4111090","co37819","norming","","","","","","",""
"null","../img/tt/1127tt.jpg","null","mooney1","image-keyboard-response","252","1181003","0.0-6.0-1.35","4111090","co37819","norming","","","","","","",""
"3887","","","post_mooney1_questions","survey-likert","253","1184892","0.0-6.0-2.35","4111090","co37819","norming","","","{""curiosity"":6,""confidence"":6}","[0,1]","../img/tt/1127tt.jpg","",""
"3929","","","recognition","survey-text","254","1188828","0.0-6.0-3.35","4111090","co37819","norming","","","{""guess"":""fighting sport""}","","../img/tt/1127tt.jpg","",""
"null","../img/gs/1127gs.jpg","null","reveal","image-keyboard-response","255","1190830","0.0-6.0-4.35","4111090","co37819","norming","","","","","","",""
"null","../img/tt/1127tt.jpg","null","mooney2","image-keyboard-response","256","1192831","0.0-6.0-5.35","4111090","co37819","norming","","","","","","",""
"6910","","","post_reveal_questions","survey-likert","257","1199743","0.0-6.0-6.35","4111090","co37819","norming","","","{""aha"":5}","[0]","../img/tt/1127tt.jpg","",""
"null","<div style=""font-size:60px;""> </div>","null","fixation","html-keyboard-response","258","1199946","0.0-6.0-0.36","4111090","co37819","norming","","","","","","",""
"null","../img/tt/1181tt.jpg","null","mooney1","image-keyboard-response","259","1202948","0.0-6.0-1.36","4111090","co37819","norming","","","","","","",""
"5417","","","post_mooney1_questions","survey-likert","260","1208367","0.0-6.0-2.36","4111090","co37819","norming","","","{""curiosity"":5,""confidence"":3}","[0,1]","../img/tt/1181tt.jpg","",""
"4643","","","recognition","survey-text","261","1213018","0.0-6.0-3.36","4111090","co37819","norming","","","{""guess"":""farmer""}","","../img/tt/1181tt.jpg","",""
"null","../img/gs/1181gs.jpg","null","reveal","image-keyboard-response","262","1215021","0.0-6.0-4.36","4111090","co37819","norming","","","","","","",""
"null","../img/tt/1181tt.jpg","null","mooney2","image-keyboard-response","263","1217023","0.0-6.0-5.36","4111090","co37819","norming","","","","","","",""
"5785","","","post_reveal_questions","survey-likert","264","1222810","0.0-6.0-6.36","4111090","co37819","norming","","","{""aha"":4}","[0]","../img/tt/1181tt.jpg","",""
"null","<div style=""font-size:60px;""> </div>","null","fixation","html-keyboard-response","265","1223013","0.0-6.0-0.37","4111090","co37819","norming","","","","","","",""
"null","../img/tt/552tt.jpg","null","mooney1","image-keyboard-response","266","1226016","0.0-6.0-1.37","4111090","co37819","norming","","","","","","",""
"3892","","","post_mooney1_questions","survey-likert","267","1229910","0.0-6.0-2.37","4111090","co37819","norming","","","{""curiosity"":6,""confidence"":6}","[0,1]","../img/tt/552tt.jpg","",""
"1732","","","recognition","survey-text","268","1231647","0.0-6.0-3.37","4111090","co37819","norming","","","{""guess"":""skunk""}","","../img/tt/552tt.jpg","",""
"null","../img/gs/552gs.jpg","null","reveal","image-keyboard-response","269","1233650","0.0-6.0-4.37","4111090","co37819","norming","","","","","","",""
"null","../img/tt/552tt.jpg","null","mooney2","image-keyboard-response","270","1235652","0.0-6.0-5.37","4111090","co37819","norming","","","","","","",""
"18873","","","post_reveal_questions","survey-likert","271","1254527","0.0-6.0-6.37","4111090","co37819","norming","","","{""aha"":4}","[0]","../img/tt/552tt.jpg","",""
"null","<div style=""font-size:60px;""> </div>","null","fixation","html-keyboard-response","272","1254730","0.0-6.0-0.38","4111090","co37819","norming","","","","","","",""
"null","../img/tt/1146tt.jpg","null","mooney1","image-keyboard-response","273","1257732","0.0-6.0-1.38","4111090","co37819","norming","","","","","","",""
"4271.000000000233","","","post_mooney1_questions","survey-likert","274","1262006","0.0-6.0-2.38","4111090","co37819","norming","","","{""curiosity"":6,""confidence"":5}","[0,1]","../img/tt/1146tt.jpg","",""
"3613","","","recognition","survey-text","275","1265629","0.0-6.0-3.38","4111090","co37819","norming","","","{""guess"":""human""}","","../img/tt/1146tt.jpg","",""
"null","../img/gs/1146gs.jpg","null","reveal","image-keyboard-response","276","1267633","0.0-6.0-4.38","4111090","co37819","norming","","","","","","",""
"null","../img/tt/1146tt.jpg","null","mooney2","image-keyboard-response","277","1269636","0.0-6.0-5.38","4111090","co37819","norming","","","","","","",""
"48096","","","post_reveal_questions","survey-likert","278","1317743","0.0-6.0-6.38","4111090","co37819","norming","","","{""aha"":5}","[0]","../img/tt/1146tt.jpg","",""
"null","<div style=""font-size:60px;""> </div>","null","fixation","html-keyboard-response","279","1317945","0.0-6.0-0.39","4111090","co37819","norming","","","","","","",""
"null","../img/tt/1276tt.jpg","null","mooney1","image-keyboard-response","280","1320948","0.0-6.0-1.39","4111090","co37819","norming","","","","","","",""
"4045","","","post_mooney1_questions","survey-likert","281","1324994","0.0-6.0-2.39","4111090","co37819","norming","","","{""curiosity"":4,""confidence"":0}","[0,1]","../img/tt/1276tt.jpg","",""
"721","","","recognition","survey-text","282","1325721","0.0-6.0-3.39","4111090","co37819","norming","","","{""guess"":""""}","","../img/tt/1276tt.jpg","",""
"null","../img/gs/1276gs.jpg","null","reveal","image-keyboard-response","283","1327724","0.0-6.0-4.39","4111090","co37819","norming","","","","","","",""
"null","../img/tt/1276tt.jpg","null","mooney2","image-keyboard-response","284","1329726","0.0-6.0-5.39","4111090","co37819","norming","","","","","","",""
"2767","","","post_reveal_questions","survey-likert","285","1332495","0.0-6.0-6.39","4111090","co37819","norming","","","{""aha"":5}","[0]","../img/tt/1276tt.jpg","",""
"null","<div style=""font-size:60px;""> </div>","null","fixation","html-keyboard-response","286","1332698","0.0-6.0-0.40","4111090","co37819","norming","","","","","","",""
"null","../img/tt/032tt.jpg","null","mooney1","image-keyboard-response","287","1335700","0.0-6.0-1.40","4111090","co37819","norming","","","","","","",""
"3819","","","post_mooney1_questions","survey-likert","288","1339521","0.0-6.0-2.40","4111090","co37819","norming","","","{""curiosity"":6,""confidence"":6}","[0,1]","../img/tt/032tt.jpg","",""
"3258","","","recognition","survey-text","289","1342784","0.0-6.0-3.40","4111090","co37819","norming","","","{""guess"":""snake""}","","../img/tt/032tt.jpg","",""
"null","../img/gs/032gs.jpg","null","reveal","image-keyboard-response","290","1344787","0.0-6.0-4.40","4111090","co37819","norming","","","","","","",""
"null","../img/tt/032tt.jpg","null","mooney2","image-keyboard-response","291","1346789","0.0-6.0-5.40","4111090","co37819","norming","","","","","","",""
"3697","","","post_reveal_questions","survey-likert","292","1350487","0.0-6.0-6.40","4111090","co37819","norming","","","{""aha"":3}","[0]","../img/tt/032tt.jpg","",""
"null","<div style=""font-size:60px;""> </div>","null","fixation","html-keyboard-response","293","1350690","0.0-6.0-0.41","4111090","co37819","norming","","","","","","",""
"null","../img/tt/1283tt.jpg","null","mooney1","image-keyboard-response","294","1353693","0.0-6.0-1.41","4111090","co37819","norming","","","","","","",""
"6025","","","post_mooney1_questions","survey-likert","295","1359720","0.0-6.0-2.41","4111090","co37819","norming","","","{""curiosity"":6,""confidence"":0}","[0,1]","../img/tt/1283tt.jpg","",""
"1915","","","recognition","survey-text","296","1361642","0.0-6.0-3.41","4111090","co37819","norming","","","{""guess"":""""}","","../img/tt/1283tt.jpg","",""
"null","../img/gs/1283gs.jpg","null","reveal","image-keyboard-response","297","1363644","0.0-6.0-4.41","4111090","co37819","norming","","","","","","",""
"null","../img/tt/1283tt.jpg","null","mooney2","image-keyboard-response","298","1365646","0.0-6.0-5.41","4111090","co37819","norming","","","","","","",""
"3950.000000000233","","","post_reveal_questions","survey-likert","299","1369597","0.0-6.0-6.41","4111090","co37819","norming","","","{""aha"":4}","[0]","../img/tt/1283tt.jpg","",""
"null","<div style=""font-size:60px;""> </div>","null","fixation","html-keyboard-response","300","1369801","0.0-6.0-0.42","4111090","co37819","norming","","","","","","",""
"null","../img/tt/1053tt.jpg","null","mooney1","image-keyboard-response","301","1372803","0.0-6.0-1.42","4111090","co37819","norming","","","","","","",""
"4607","","","post_mooney1_questions","survey-likert","302","1377413","0.0-6.0-2.42","4111090","co37819","norming","","","{""curiosity"":4,""confidence"":5}","[0,1]","../img/tt/1053tt.jpg","",""
"1621","","","recognition","survey-text","303","1379043","0.0-6.0-3.42","4111090","co37819","norming","","","{""guess"":""cow""}","","../img/tt/1053tt.jpg","",""
"null","../img/gs/1053gs.jpg","null","reveal","image-keyboard-response","304","1381045","0.0-6.0-4.42","4111090","co37819","norming","","","","","","",""
"null","../img/tt/1053tt.jpg","null","mooney2","image-keyboard-response","305","1383048","0.0-6.0-5.42","4111090","co37819","norming","","","","","","",""
"4464","","","post_reveal_questions","survey-likert","306","1387513","0.0-6.0-6.42","4111090","co37819","norming","","","{""aha"":3}","[0]","../img/tt/1053tt.jpg","",""
"null","<div style=""font-size:60px;""> </div>","null","fixation","html-keyboard-response","307","1387717","0.0-6.0-0.43","4111090","co37819","norming","","","","","","",""
"null","../img/tt/590tt.jpg","null","mooney1","image-keyboard-response","308","1390719","0.0-6.0-1.43","4111090","co37819","norming","","","","","","",""
"4987","","","post_mooney1_questions","survey-likert","309","1395709","0.0-6.0-2.43","4111090","co37819","norming","","","{""curiosity"":3,""confidence"":4}","[0,1]","../img/tt/590tt.jpg","",""
"1864","","","recognition","survey-text","310","1397581","0.0-6.0-3.43","4111090","co37819","norming","","","{""guess"":""cart""}","","../img/tt/590tt.jpg","",""
"null","../img/gs/590gs.jpg","null","reveal","image-keyboard-response","311","1399584","0.0-6.0-4.43","4111090","co37819","norming","","","","","","",""
"null","../img/tt/590tt.jpg","null","mooney2","image-keyboard-response","312","1401586","0.0-6.0-5.43","4111090","co37819","norming","","","","","","",""
"10564","","","post_reveal_questions","survey-likert","313","1412151","0.0-6.0-6.43","4111090","co37819","norming","","","{""aha"":5}","[0]","../img/tt/590tt.jpg","",""
"null","<div style=""font-size:60px;""> </div>","null","fixation","html-keyboard-response","314","1412355","0.0-6.0-0.44","4111090","co37819","norming","","","","","","",""
"null","../img/tt/1087tt.jpg","null","mooney1","image-keyboard-response","315","1415357","0.0-6.0-1.44","4111090","co37819","norming","","","","","","",""
"5593","","","post_mooney1_questions","survey-likert","316","1420953","0.0-6.0-2.44","4111090","co37819","norming","","","{""curiosity"":4,""confidence"":5}","[0,1]","../img/tt/1087tt.jpg","",""
"20209","","","recognition","survey-text","317","1441170","0.0-6.0-3.44","4111090","co37819","norming","","","{""guess"":""liggende dieren""}","","../img/tt/1087tt.jpg","",""
"null","../img/gs/1087gs.jpg","null","reveal","image-keyboard-response","318","1443173","0.0-6.0-4.44","4111090","co37819","norming","","","","","","",""
"null","../img/tt/1087tt.jpg","null","mooney2","image-keyboard-response","319","1445175","0.0-6.0-5.44","4111090","co37819","norming","","","","","","",""
"5379","","","post_reveal_questions","survey-likert","320","1450556","0.0-6.0-6.44","4111090","co37819","norming","","","{""aha"":3}","[0]","../img/tt/1087tt.jpg","",""
"null","<div style=""font-size:60px;""> </div>","null","fixation","html-keyboard-response","321","1450760","0.0-6.0-0.45","4111090","co37819","norming","","","","","","",""
"null","../img/tt/1363tt.jpg","null","mooney1","image-keyboard-response","322","1453762","0.0-6.0-1.45","4111090","co37819","norming","","","","","","",""
"6184.999999999767","","","post_mooney1_questions","survey-likert","323","1459949","0.0-6.0-2.45","4111090","co37819","norming","","","{""curiosity"":4,""confidence"":3}","[0,1]","../img/tt/1363tt.jpg","",""
"6284","","","recognition","survey-text","324","1466239","0.0-6.0-3.45","4111090","co37819","norming","","","{""guess"":""sauce pour""}","","../img/tt/1363tt.jpg","",""
"null","../img/gs/1363gs.jpg","null","reveal","image-keyboard-response","325","1468241","0.0-6.0-4.45","4111090","co37819","norming","","","","","","",""
"null","../img/tt/1363tt.jpg","null","mooney2","image-keyboard-response","326","1470243","0.0-6.0-5.45","4111090","co37819","norming","","","","","","",""
"3278","","","post_reveal_questions","survey-likert","327","1473522","0.0-6.0-6.45","4111090","co37819","norming","","","{""aha"":3}","[0]","../img/tt/1363tt.jpg","",""
"null","<div style=""font-size:60px;""> </div>","null","fixation","html-keyboard-response","328","1473726","0.0-6.0-0.46","4111090","co37819","norming","","","","","","",""
"null","../img/tt/418tt.jpg","null","mooney1","image-keyboard-response","329","1476728","0.0-6.0-1.46","4111090","co37819","norming","","","","","","",""
"4816","","","post_mooney1_questions","survey-likert","330","1481546","0.0-6.0-2.46","4111090","co37819","norming","","","{""curiosity"":3,""confidence"":4}","[0,1]","../img/tt/418tt.jpg","",""
"7553","","","recognition","survey-text","331","1489107","0.0-6.0-3.46","4111090","co37819","norming","","","{""guess"":""tomatoes pumpkin""}","","../img/tt/418tt.jpg","",""
"null","../img/gs/418gs.jpg","null","reveal","image-keyboard-response","332","1491110","0.0-6.0-4.46","4111090","co37819","norming","","","","","","",""
"null","../img/tt/418tt.jpg","null","mooney2","image-keyboard-response","333","1493112","0.0-6.0-5.46","4111090","co37819","norming","","","","","","",""
"59830","","","post_reveal_questions","survey-likert","334","1552945","0.0-6.0-6.46","4111090","co37819","norming","","","{""aha"":3}","[0]","../img/tt/418tt.jpg","",""
"null","<div style=""font-size:60px;""> </div>","null","fixation","html-keyboard-response","335","1553148","0.0-6.0-0.47","4111090","co37819","norming","","","","","","",""
"null","../img/tt/524tt.jpg","null","mooney1","image-keyboard-response","336","1556151","0.0-6.0-1.47","4111090","co37819","norming","","","","","","",""
"9193","","","post_mooney1_questions","survey-likert","337","1565346","0.0-6.0-2.47","4111090","co37819","norming","","","{""curiosity"":5,""confidence"":3}","[0,1]","../img/tt/524tt.jpg","",""
"4398","","","recognition","survey-text","338","1569750","0.0-6.0-3.47","4111090","co37819","norming","","","{""guess"":""animal tail""}","","../img/tt/524tt.jpg","",""
"null","../img/gs/524gs.jpg","null","reveal","image-keyboard-response","339","1571752","0.0-6.0-4.47","4111090","co37819","norming","","","","","","",""
"null","../img/tt/524tt.jpg","null","mooney2","image-keyboard-response","340","1573754","0.0-6.0-5.47","4111090","co37819","norming","","","","","","",""
"3431","","","post_reveal_questions","survey-likert","341","1577188","0.0-6.0-6.47","4111090","co37819","norming","","","{""aha"":3}","[0]","../img/tt/524tt.jpg","",""
"null","<div style=""font-size:60px;""> </div>","null","fixation","html-keyboard-response","342","1577391","0.0-6.0-0.48","4111090","co37819","norming","","","","","","",""
"null","../img/tt/1254tt.jpg","null","mooney1","image-keyboard-response","343","1580393","0.0-6.0-1.48","4111090","co37819","norming","","","","","","",""
"4367","","","post_mooney1_questions","survey-likert","344","1584762","0.0-6.0-2.48","4111090","co37819","norming","","","{""curiosity"":3,""confidence"":6}","[0,1]","../img/tt/1254tt.jpg","",""
"3179","","","recognition","survey-text","345","1587948","0.0-6.0-3.48","4111090","co37819","norming","","","{""guess"":""bunny""}","","../img/tt/1254tt.jpg","",""
"null","../img/gs/1254gs.jpg","null","reveal","image-keyboard-response","346","1589950","0.0-6.0-4.48","4111090","co37819","norming","","","","","","",""
"null","../img/tt/1254tt.jpg","null","mooney2","image-keyboard-response","347","1591953","0.0-6.0-5.48","4111090","co37819","norming","","","","","","",""
"7935","","","post_reveal_questions","survey-likert","348","1599889","0.0-6.0-6.48","4111090","co37819","norming","","","{""aha"":4}","[0]","../img/tt/1254tt.jpg","",""
"null","<div style=""font-size:60px;""> </div>","null","fixation","html-keyboard-response","349","1600091","0.0-6.0-0.49","4111090","co37819","norming","","","","","","",""
"null","../img/tt/1128tt.jpg","null","mooney1","image-keyboard-response","350","1603094","0.0-6.0-1.49","4111090","co37819","norming","","","","","","",""
"5343.999999999767","","","post_mooney1_questions","survey-likert","351","1608439","0.0-6.0-2.49","4111090","co37819","norming","","","{""curiosity"":2,""confidence"":0}","[0,1]","../img/tt/1128tt.jpg","",""
"1015","","","recognition","survey-text","352","1609463","0.0-6.0-3.49","4111090","co37819","norming","","","{""guess"":""""}","","../img/tt/1128tt.jpg","",""
"null","../img/gs/1128gs.jpg","null","reveal","image-keyboard-response","353","1611465","0.0-6.0-4.49","4111090","co37819","norming","","","","","","",""
"null","../img/tt/1128tt.jpg","null","mooney2","image-keyboard-response","354","1613467","0.0-6.0-5.49","4111090","co37819","norming","","","","","","",""
"4494","","","post_reveal_questions","survey-likert","355","1617962","0.0-6.0-6.49","4111090","co37819","norming","","","{""aha"":2}","[0]","../img/tt/1128tt.jpg","",""
"null","<div style=""font-size:60px;""> </div>","null","fixation","html-keyboard-response","356","1618165","0.0-6.0-0.50","4111090","co37819","norming","","","","","","",""
"null","../img/tt/1175tt.jpg","null","mooney1","image-keyboard-response","357","1621168","0.0-6.0-1.50","4111090","co37819","norming","","","","","","",""
"6119.000000000233","","","post_mooney1_questions","survey-likert","358","1627289","0.0-6.0-2.50","4111090","co37819","norming","","","{""curiosity"":3,""confidence"":2}","[0,1]","../img/tt/1175tt.jpg","",""
"4821.999999999767","","","recognition","survey-text","359","1632120","0.0-6.0-3.50","4111090","co37819","norming","","","{""guess"":""group people""}","","../img/tt/1175tt.jpg","",""
"null","../img/gs/1175gs.jpg","null","reveal","image-keyboard-response","360","1634122","0.0-6.0-4.50","4111090","co37819","norming","","","","","","",""
"null","../img/tt/1175tt.jpg","null","mooney2","image-keyboard-response","361","1636124","0.0-6.0-5.50","4111090","co37819","norming","","","","","","",""
"2791.999999999767","","","post_reveal_questions","survey-likert","362","1638918","0.0-6.0-6.50","4111090","co37819","norming","","","{""aha"":3}","[0]","../img/tt/1175tt.jpg","",""
"null","<div style=""font-size:60px;""> </div>","null","fixation","html-keyboard-response","363","1639121","0.0-6.0-0.51","4111090","co37819","norming","","","","","","",""
"null","../img/tt/091tt.jpg","null","mooney1","image-keyboard-response","364","1642124","0.0-6.0-1.51","4111090","co37819","norming","","","","","","",""
"6366.999999999767","","","post_mooney1_questions","survey-likert","365","1648493","0.0-6.0-2.51","4111090","co37819","norming","","","{""curiosity"":3,""confidence"":3}","[0,1]","../img/tt/091tt.jpg","",""
"5391","","","recognition","survey-text","366","1653893","0.0-6.0-3.51","4111090","co37819","norming","","","{""guess"":""animal trap""}","","../img/tt/091tt.jpg","",""
"null","../img/gs/091gs.jpg","null","reveal","image-keyboard-response","367","1655896","0.0-6.0-4.51","4111090","co37819","norming","","","","","","",""
"null","../img/tt/091tt.jpg","null","mooney2","image-keyboard-response","368","1657898","0.0-6.0-5.51","4111090","co37819","norming","","","","","","",""
"4752","","","post_reveal_questions","survey-likert","369","1662651","0.0-6.0-6.51","4111090","co37819","norming","","","{""aha"":2}","[0]","../img/tt/091tt.jpg","",""
"null","<div style=""font-size:60px;""> </div>","null","fixation","html-keyboard-response","370","1662854","0.0-6.0-0.52","4111090","co37819","norming","","","","","","",""
"null","../img/tt/096tt.jpg","null","mooney1","image-keyboard-response","371","1665856","0.0-6.0-1.52","4111090","co37819","norming","","","","","","",""
"5270","","","post_mooney1_questions","survey-likert","372","1671129","0.0-6.0-2.52","4111090","co37819","norming","","","{""curiosity"":3,""confidence"":3}","[0,1]","../img/tt/096tt.jpg","",""
"2210.000000000233","","","recognition","survey-text","373","1673347","0.0-6.0-3.52","4111090","co37819","norming","","","{""guess"":""saw""}","","../img/tt/096tt.jpg","",""
"null","../img/gs/096gs.jpg","null","reveal","image-keyboard-response","374","1675350","0.0-6.0-4.52","4111090","co37819","norming","","","","","","",""
"null","../img/tt/096tt.jpg","null","mooney2","image-keyboard-response","375","1677352","0.0-6.0-5.52","4111090","co37819","norming","","","","","","",""
"8127","","","post_reveal_questions","survey-likert","376","1685482","0.0-6.0-6.52","4111090","co37819","norming","","","{""aha"":3}","[0]","../img/tt/096tt.jpg","",""
"null","<div style=""font-size:60px;""> </div>","null","fixation","html-keyboard-response","377","1685685","0.0-6.0-0.53","4111090","co37819","norming","","","","","","",""
"null","../img/tt/1063tt.jpg","null","mooney1","image-keyboard-response","378","1688687","0.0-6.0-1.53","4111090","co37819","norming","","","","","","",""
"3853","","","post_mooney1_questions","survey-likert","379","1692542","0.0-6.0-2.53","4111090","co37819","norming","","","{""curiosity"":3,""confidence"":3}","[0,1]","../img/tt/1063tt.jpg","",""
"1606","","","recognition","survey-text","380","1694156","0.0-6.0-3.53","4111090","co37819","norming","","","{""guess"":""horse""}","","../img/tt/1063tt.jpg","",""
"null","../img/gs/1063gs.jpg","null","reveal","image-keyboard-response","381","1696158","0.0-6.0-4.53","4111090","co37819","norming","","","","","","",""
"null","../img/tt/1063tt.jpg","null","mooney2","image-keyboard-response","382","1698160","0.0-6.0-5.53","4111090","co37819","norming","","","","","","",""
"3520","","","post_reveal_questions","survey-likert","383","1701682","0.0-6.0-6.53","4111090","co37819","norming","","","{""aha"":3}","[0]","../img/tt/1063tt.jpg","",""
"null","<div style=""font-size:60px;""> </div>","null","fixation","html-keyboard-response","384","1701885","0.0-6.0-0.54","4111090","co37819","norming","","","","","","",""
"null","../img/tt/064tt.jpg","null","mooney1","image-keyboard-response","385","1704888","0.0-6.0-1.54","4111090","co37819","norming","","","","","","",""
"4872.000000000233","","","post_mooney1_questions","survey-likert","386","1709761","0.0-6.0-2.54","4111090","co37819","norming","","","{""curiosity"":2,""confidence"":1}","[0,1]","../img/tt/064tt.jpg","",""
"3655","","","recognition","survey-text","387","1713423","0.0-6.0-3.54","4111090","co37819","norming","","","{""guess"":""shell""}","","../img/tt/064tt.jpg","",""
"null","../img/gs/064gs.jpg","null","reveal","image-keyboard-response","388","1715425","0.0-6.0-4.54","4111090","co37819","norming","","","","","","",""
"null","../img/tt/064tt.jpg","null","mooney2","image-keyboard-response","389","1717427","0.0-6.0-5.54","4111090","co37819","norming","","","","","","",""
"3362.000000000233","","","post_reveal_questions","survey-likert","390","1720791","0.0-6.0-6.54","4111090","co37819","norming","","","{""aha"":2}","[0]","../img/tt/064tt.jpg","",""
"null","<div style=""font-size:60px;""> </div>","null","fixation","html-keyboard-response","391","1720994","0.0-6.0-0.55","4111090","co37819","norming","","","","","","",""
"null","../img/tt/194tt.jpg","null","mooney1","image-keyboard-response","392","1723996","0.0-6.0-1.55","4111090","co37819","norming","","","","","","",""
"5018","","","post_mooney1_questions","survey-likert","393","1729016","0.0-6.0-2.55","4111090","co37819","norming","","","{""curiosity"":3,""confidence"":3}","[0,1]","../img/tt/194tt.jpg","",""
"1698","","","recognition","survey-text","394","1730722","0.0-6.0-3.55","4111090","co37819","norming","","","{""guess"":""girl""}","","../img/tt/194tt.jpg","",""
"null","../img/gs/194gs.jpg","null","reveal","image-keyboard-response","395","1732725","0.0-6.0-4.55","4111090","co37819","norming","","","","","","",""
"null","../img/tt/194tt.jpg","null","mooney2","image-keyboard-response","396","1734727","0.0-6.0-5.55","4111090","co37819","norming","","","","","","",""
"2900.000000000233","","","post_reveal_questions","survey-likert","397","1737628","0.0-6.0-6.55","4111090","co37819","norming","","","{""aha"":3}","[0]","../img/tt/194tt.jpg","",""
"null","<div style=""font-size:60px;""> </div>","null","fixation","html-keyboard-response","398","1737831","0.0-6.0-0.56","4111090","co37819","norming","","","","","","",""
"null","../img/tt/567tt.jpg","null","mooney1","image-keyboard-response","399","1740834","0.0-6.0-1.56","4111090","co37819","norming","","","","","","",""
"4311","","","post_mooney1_questions","survey-likert","400","1745147","0.0-6.0-2.56","4111090","co37819","norming","","","{""curiosity"":2,""confidence"":1}","[0,1]","../img/tt/567tt.jpg","",""
"2003","","","recognition","survey-text","401","1747158","0.0-6.0-3.56","4111090","co37819","norming","","","{""guess"":""food""}","","../img/tt/567tt.jpg","",""
"null","../img/gs/567gs.jpg","null","reveal","image-keyboard-response","402","1749160","0.0-6.0-4.56","4111090","co37819","norming","","","","","","",""
"null","../img/tt/567tt.jpg","null","mooney2","image-keyboard-response","403","1751161","0.0-6.0-5.56","4111090","co37819","norming","","","","","","",""
"3663","","","post_reveal_questions","survey-likert","404","1754826","0.0-6.0-6.56","4111090","co37819","norming","","","{""aha"":3}","[0]","../img/tt/567tt.jpg","",""
"null","<div style=""font-size:60px;""> </div>","null","fixation","html-keyboard-response","405","1755029","0.0-6.0-0.57","4111090","co37819","norming","","","","","","",""
"null","../img/tt/1049tt.jpg","null","mooney1","image-keyboard-response","406","1758031","0.0-6.0-1.57","4111090","co37819","norming","","","","","","",""
"7092.999999999767","","","post_mooney1_questions","survey-likert","407","1765126","0.0-6.0-2.57","4111090","co37819","norming","","","{""curiosity"":4,""confidence"":2}","[0,1]","../img/tt/1049tt.jpg","",""
"2990","","","recognition","survey-text","408","1768125","0.0-6.0-3.57","4111090","co37819","norming","","","{""guess"":""man""}","","../img/tt/1049tt.jpg","",""
"null","../img/gs/1049gs.jpg","null","reveal","image-keyboard-response","409","1770127","0.0-6.0-4.57","4111090","co37819","norming","","","","","","",""
"null","../img/tt/1049tt.jpg","null","mooney2","image-keyboard-response","410","1772129","0.0-6.0-5.57","4111090","co37819","norming","","","","","","",""
"4203","","","post_reveal_questions","survey-likert","411","1776333","0.0-6.0-6.57","4111090","co37819","norming","","","{""aha"":2}","[0]","../img/tt/1049tt.jpg","",""
"null","<div style=""font-size:60px;""> </div>","null","fixation","html-keyboard-response","412","1776536","0.0-6.0-0.58","4111090","co37819","norming","","","","","","",""
"null","../img/tt/599tt.jpg","null","mooney1","image-keyboard-response","413","1779539","0.0-6.0-1.58","4111090","co37819","norming","","","","","","",""
"6222","","","post_mooney1_questions","survey-likert","414","1785762","0.0-6.0-2.58","4111090","co37819","norming","","","{""curiosity"":2,""confidence"":0}","[0,1]","../img/tt/599tt.jpg","",""
"1617","","","recognition","survey-text","415","1787386","0.0-6.0-3.58","4111090","co37819","norming","","","{""guess"":""""}","","../img/tt/599tt.jpg","",""
"null","../img/gs/599gs.jpg","null","reveal","image-keyboard-response","416","1789388","0.0-6.0-4.58","4111090","co37819","norming","","","","","","",""
"null","../img/tt/599tt.jpg","null","mooney2","image-keyboard-response","417","1791390","0.0-6.0-5.58","4111090","co37819","norming","","","","","","",""
"155708","","","post_reveal_questions","survey-likert","418","1978110","0.0-6.0-6.58","4111090","co37819","norming","","","{""aha"":3}","[0]","../img/tt/599tt.jpg","",""
"null","<div style=""font-size:60px;""> </div>","null","fixation","html-keyboard-response","419","1978313","0.0-6.0-0.59","4111090","co37819","norming","","","","","","",""
"null","../img/tt/060tt.jpg","null","mooney1","image-keyboard-response","420","1981315","0.0-6.0-1.59","4111090","co37819","norming","","","","","","",""
"3258","","","post_mooney1_questions","survey-likert","421","1984575","0.0-6.0-2.59","4111090","co37819","norming","","","{""curiosity"":2,""confidence"":2}","[0,1]","../img/tt/060tt.jpg","",""
"3526","","","recognition","survey-text","422","1988105","0.0-6.0-3.59","4111090","co37819","norming","","","{""guess"":""bread""}","","../img/tt/060tt.jpg","",""
"null","../img/gs/060gs.jpg","null","reveal","image-keyboard-response","423","1990106","0.0-6.0-4.59","4111090","co37819","norming","","","","","","",""
"null","../img/tt/060tt.jpg","null","mooney2","image-keyboard-response","424","1992108","0.0-6.0-5.59","4111090","co37819","norming","","","","","","",""
"16675.999999999767","","","post_reveal_questions","survey-likert","425","2008786","0.0-6.0-6.59","4111090","co37819","norming","","","{""aha"":3}","[0]","../img/tt/060tt.jpg","",""
"null","<div style=""font-size:60px;""> </div>","null","fixation","html-keyboard-response","426","2008989","0.0-6.0-0.60","4111090","co37819","norming","","","","","","",""
"null","../img/tt/046tt.jpg","null","mooney1","image-keyboard-response","427","2011991","0.0-6.0-1.60","4111090","co37819","norming","","","","","","",""
"5387","","","post_mooney1_questions","survey-likert","428","2017379","0.0-6.0-2.60","4111090","co37819","norming","","","{""curiosity"":4,""confidence"":6}","[0,1]","../img/tt/046tt.jpg","",""
"1727","","","recognition","survey-text","429","2019111","0.0-6.0-3.60","4111090","co37819","norming","","","{""guess"":""do""}","","../img/tt/046tt.jpg","",""
"null","../img/gs/046gs.jpg","null","reveal","image-keyboard-response","430","2021114","0.0-6.0-4.60","4111090","co37819","norming","","","","","","",""
"null","../img/tt/046tt.jpg","null","mooney2","image-keyboard-response","431","2023115","0.0-6.0-5.60","4111090","co37819","norming","","","","","","",""
"10092","","","post_reveal_questions","survey-likert","432","2033208","0.0-6.0-6.60","4111090","co37819","norming","","","{""aha"":3}","[0]","../img/tt/046tt.jpg","",""
"null","<div style=""font-size:60px;""> </div>","null","fixation","html-keyboard-response","433","2033411","0.0-6.0-0.61","4111090","co37819","norming","","","","","","",""
"null","../img/tt/1159tt.jpg","null","mooney1","image-keyboard-response","434","2036413","0.0-6.0-1.61","4111090","co37819","norming","","","","","","",""
"5064","","","post_mooney1_questions","survey-likert","435","2041479","0.0-6.0-2.61","4111090","co37819","norming","","","{""curiosity"":1,""confidence"":1}","[0,1]","../img/tt/1159tt.jpg","",""
"3329","","","recognition","survey-text","436","2044816","0.0-6.0-3.61","4111090","co37819","norming","","","{""guess"":""stairs""}","","../img/tt/1159tt.jpg","",""
"null","../img/gs/1159gs.jpg","null","reveal","image-keyboard-response","437","2046819","0.0-6.0-4.61","4111090","co37819","norming","","","","","","",""
"null","../img/tt/1159tt.jpg","null","mooney2","image-keyboard-response","438","2048821","0.0-6.0-5.61","4111090","co37819","norming","","","","","","",""
"3693.999999999767","","","post_reveal_questions","survey-likert","439","2052516","0.0-6.0-6.61","4111090","co37819","norming","","","{""aha"":2}","[0]","../img/tt/1159tt.jpg","",""
"null","<div style=""font-size:60px;""> </div>","null","fixation","html-keyboard-response","440","2052719","0.0-6.0-0.62","4111090","co37819","norming","","","","","","",""
"null","../img/tt/094tt.jpg","null","mooney1","image-keyboard-response","441","2055721","0.0-6.0-1.62","4111090","co37819","norming","","","","","","",""
"5548","","","post_mooney1_questions","survey-likert","442","2061272","0.0-6.0-2.62","4111090","co37819","norming","","","{""curiosity"":2,""confidence"":0}","[0,1]","../img/tt/094tt.jpg","",""
"1859.0000000002328","","","recognition","survey-text","443","2063138","0.0-6.0-3.62","4111090","co37819","norming","","","{""guess"":""""}","","../img/tt/094tt.jpg","",""
"null","../img/gs/094gs.jpg","null","reveal","image-keyboard-response","444","2065140","0.0-6.0-4.62","4111090","co37819","norming","","","","","","",""
"null","../img/tt/094tt.jpg","null","mooney2","image-keyboard-response","445","2067143","0.0-6.0-5.62","4111090","co37819","norming","","","","","","",""
"4630.000000000233","","","post_reveal_questions","survey-likert","446","2071774","0.0-6.0-6.62","4111090","co37819","norming","","","{""aha"":2}","[0]","../img/tt/094tt.jpg","",""
"null","<div style=""font-size:60px;""> </div>","null","fixation","html-keyboard-response","447","2071977","0.0-6.0-0.63","4111090","co37819","norming","","","","","","",""
"null","../img/tt/412tt.jpg","null","mooney1","image-keyboard-response","448","2074980","0.0-6.0-1.63","4111090","co37819","norming","","","","","","",""
"3842.999999999767","","","post_mooney1_questions","survey-likert","449","2078825","0.0-6.0-2.63","4111090","co37819","norming","","","{""curiosity"":1,""confidence"":1}","[0,1]","../img/tt/412tt.jpg","",""
"35206","","","recognition","survey-text","450","2114040","0.0-6.0-3.63","4111090","co37819","norming","","","{""guess"":""fototoestel""}","","../img/tt/412tt.jpg","",""
"null","../img/gs/412gs.jpg","null","reveal","image-keyboard-response","451","2116042","0.0-6.0-4.63","4111090","co37819","norming","","","","","","",""
"null","../img/tt/412tt.jpg","null","mooney2","image-keyboard-response","452","2118043","0.0-6.0-5.63","4111090","co37819","norming","","","","","","",""
"2969.999999999767","","","post_reveal_questions","survey-likert","453","2121015","0.0-6.0-6.63","4111090","co37819","norming","","","{""aha"":2}","[0]","../img/tt/412tt.jpg","",""
"null","<div style=""font-size:60px;""> </div>","null","fixation","html-keyboard-response","454","2121218","0.0-6.0-0.64","4111090","co37819","norming","","","","","","",""
"null","../img/tt/123tt.jpg","null","mooney1","image-keyboard-response","455","2124220","0.0-6.0-1.64","4111090","co37819","norming","","","","","","",""
"4515.999999999534","","","post_mooney1_questions","survey-likert","456","2128739","0.0-6.0-2.64","4111090","co37819","norming","","","{""curiosity"":3,""confidence"":2}","[0,1]","../img/tt/123tt.jpg","",""
"3416","","","recognition","survey-text","457","2132162","0.0-6.0-3.64","4111090","co37819","norming","","","{""guess"":""bag""}","","../img/tt/123tt.jpg","",""
"null","../img/gs/123gs.jpg","null","reveal","image-keyboard-response","458","2134165","0.0-6.0-4.64","4111090","co37819","norming","","","","","","",""
"null","../img/tt/123tt.jpg","null","mooney2","image-keyboard-response","459","2136167","0.0-6.0-5.64","4111090","co37819","norming","","","","","","",""
"2635","","","post_reveal_questions","survey-likert","460","2138803","0.0-6.0-6.64","4111090","co37819","norming","","","{""aha"":3}","[0]","../img/tt/123tt.jpg","",""
"null","<div style=""font-size:60px;""> </div>","null","fixation","html-keyboard-response","461","2139007","0.0-6.0-0.65","4111090","co37819","norming","","","","","","",""
"null","../img/tt/306tt.jpg","null","mooney1","image-keyboard-response","462","2142009","0.0-6.0-1.65","4111090","co37819","norming","","","","","","",""
"3720","","","post_mooney1_questions","survey-likert","463","2145731","0.0-6.0-2.65","4111090","co37819","norming","","","{""curiosity"":2,""confidence"":3}","[0,1]","../img/tt/306tt.jpg","",""
"2641","","","recognition","survey-text","464","2148381","0.0-6.0-3.65","4111090","co37819","norming","","","{""guess"":""shoe""}","","../img/tt/306tt.jpg","",""
"null","../img/gs/306gs.jpg","null","reveal","image-keyboard-response","465","2150383","0.0-6.0-4.65","4111090","co37819","norming","","","","","","",""
"null","../img/tt/306tt.jpg","null","mooney2","image-keyboard-response","466","2152385","0.0-6.0-5.65","4111090","co37819","norming","","","","","","",""
"3006","","","post_reveal_questions","survey-likert","467","2155393","0.0-6.0-6.65","4111090","co37819","norming","","","{""aha"":5}","[0]","../img/tt/306tt.jpg","",""
"null","<div style=""font-size:60px;""> </div>","null","fixation","html-keyboard-response","468","2155596","0.0-6.0-0.66","4111090","co37819","norming","","","","","","",""
"null","../img/tt/315tt.jpg","null","mooney1","image-keyboard-response","469","2158598","0.0-6.0-1.66","4111090","co37819","norming","","","","","","",""
"6918","","","post_mooney1_questions","survey-likert","470","2165517","0.0-6.0-2.66","4111090","co37819","norming","","","{""curiosity"":2,""confidence"":2}","[0,1]","../img/tt/315tt.jpg","",""
"6558","","","recognition","survey-text","471","2172083","0.0-6.0-3.66","4111090","co37819","norming","","","{""guess"":""havik""}","","../img/tt/315tt.jpg","",""
"null","../img/gs/315gs.jpg","null","reveal","image-keyboard-response","472","2174086","0.0-6.0-4.66","4111090","co37819","norming","","","","","","",""
"null","../img/tt/315tt.jpg","null","mooney2","image-keyboard-response","473","2176088","0.0-6.0-5.66","4111090","co37819","norming","","","","","","",""
"4334.999999999534","","","post_reveal_questions","survey-likert","474","2180425","0.0-6.0-6.66","4111090","co37819","norming","","","{""aha"":3}","[0]","../img/tt/315tt.jpg","",""
"null","<div style=""font-size:60px;""> </div>","null","fixation","html-keyboard-response","475","2180628","0.0-6.0-0.67","4111090","co37819","norming","","","","","","",""
"null","../img/tt/105tt.jpg","null","mooney1","image-keyboard-response","476","2183630","0.0-6.0-1.67","4111090","co37819","norming","","","","","","",""
"4397","","","post_mooney1_questions","survey-likert","477","2188029","0.0-6.0-2.67","4111090","co37819","norming","","","{""curiosity"":3,""confidence"":2}","[0,1]","../img/tt/105tt.jpg","",""
"4290","","","recognition","survey-text","478","2192327","0.0-6.0-3.67","4111090","co37819","norming","","","{""guess"":""paperclip""}","","../img/tt/105tt.jpg","",""
"null","../img/gs/105gs.jpg","null","reveal","image-keyboard-response","479","2194330","0.0-6.0-4.67","4111090","co37819","norming","","","","","","",""
"null","../img/tt/105tt.jpg","null","mooney2","image-keyboard-response","480","2196332","0.0-6.0-5.67","4111090","co37819","norming","","","","","","",""
"4174","","","post_reveal_questions","survey-likert","481","2200507","0.0-6.0-6.67","4111090","co37819","norming","","","{""aha"":3}","[0]","../img/tt/105tt.jpg","",""
"null","<div style=""font-size:60px;""> </div>","null","fixation","html-keyboard-response","482","2200710","0.0-6.0-0.68","4111090","co37819","norming","","","","","","",""
"null","../img/tt/300tt.jpg","null","mooney1","image-keyboard-response","483","2203712","0.0-6.0-1.68","4111090","co37819","norming","","","","","","",""
"5741","","","post_mooney1_questions","survey-likert","484","2209456","0.0-6.0-2.68","4111090","co37819","norming","","","{""curiosity"":2,""confidence"":3}","[0,1]","../img/tt/300tt.jpg","",""
"3543","","","recognition","survey-text","485","2213007","0.0-6.0-3.68","4111090","co37819","norming","","","{""guess"":""sitting lady""}","","../img/tt/300tt.jpg","",""
"null","../img/gs/300gs.jpg","null","reveal","image-keyboard-response","486","2215009","0.0-6.0-4.68","4111090","co37819","norming","","","","","","",""
"null","../img/tt/300tt.jpg","null","mooney2","image-keyboard-response","487","2217011","0.0-6.0-5.68","4111090","co37819","norming","","","","","","",""
"2991","","","post_reveal_questions","survey-likert","488","2220004","0.0-6.0-6.68","4111090","co37819","norming","","","{""aha"":3}","[0]","../img/tt/300tt.jpg","",""
"null","<div style=""font-size:60px;""> </div>","null","fixation","html-keyboard-response","489","2220207","0.0-6.0-0.69","4111090","co37819","norming","","","","","","",""
"null","../img/tt/1161tt.jpg","null","mooney1","image-keyboard-response","490","2223210","0.0-6.0-1.69","4111090","co37819","norming","","","","","","",""
"5732","","","post_mooney1_questions","survey-likert","491","2228943","0.0-6.0-2.69","4111090","co37819","norming","","","{""curiosity"":2,""confidence"":1}","[0,1]","../img/tt/1161tt.jpg","",""
"4110","","","recognition","survey-text","492","2233062","0.0-6.0-3.69","4111090","co37819","norming","","","{""guess"":""climbing""}","","../img/tt/1161tt.jpg","",""
"null","../img/gs/1161gs.jpg","null","reveal","image-keyboard-response","493","2235064","0.0-6.0-4.69","4111090","co37819","norming","","","","","","",""
"null","../img/tt/1161tt.jpg","null","mooney2","image-keyboard-response","494","2237066","0.0-6.0-5.69","4111090","co37819","norming","","","","","","",""
"3561","","","post_reveal_questions","survey-likert","495","2240629","0.0-6.0-6.69","4111090","co37819","norming","","","{""aha"":3}","[0]","../img/tt/1161tt.jpg","",""
"null","<div style=""font-size:60px;""> </div>","null","fixation","html-keyboard-response","496","2240833","0.0-6.0-0.70","4111090","co37819","norming","","","","","","",""
"null","../img/tt/063tt.jpg","null","mooney1","image-keyboard-response","497","2243836","0.0-6.0-1.70","4111090","co37819","norming","","","","","","",""
"3968","","","post_mooney1_questions","survey-likert","498","2247805","0.0-6.0-2.70","4111090","co37819","norming","","","{""curiosity"":3,""confidence"":3}","[0,1]","../img/tt/063tt.jpg","",""
"9662","","","recognition","survey-text","499","2257479","0.0-6.0-3.70","4111090","co37819","norming","","","{""guess"":""machine computer""}","","../img/tt/063tt.jpg","",""
"null","../img/gs/063gs.jpg","null","reveal","image-keyboard-response","500","2259482","0.0-6.0-4.70","4111090","co37819","norming","","","","","","",""
"null","../img/tt/063tt.jpg","null","mooney2","image-keyboard-response","501","2261484","0.0-6.0-5.70","4111090","co37819","norming","","","","","","",""
"3209","","","post_reveal_questions","survey-likert","502","2264694","0.0-6.0-6.70","4111090","co37819","norming","","","{""aha"":3}","[0]","../img/tt/063tt.jpg","",""
"null","<div style=""font-size:60px;""> </div>","null","fixation","html-keyboard-response","503","2264898","0.0-6.0-0.71","4111090","co37819","norming","","","","","","",""
"null","../img/tt/1262tt.jpg","null","mooney1","image-keyboard-response","504","2267900","0.0-6.0-1.71","4111090","co37819","norming","","","","","","",""
"3949","","","post_mooney1_questions","survey-likert","505","2271850","0.0-6.0-2.71","4111090","co37819","norming","","","{""curiosity"":3,""confidence"":3}","[0,1]","../img/tt/1262tt.jpg","",""
"1330.0000000004657","","","recognition","survey-text","506","2273189","0.0-6.0-3.71","4111090","co37819","norming","","","{""guess"":""bird""}","","../img/tt/1262tt.jpg","",""
"null","../img/gs/1262gs.jpg","null","reveal","image-keyboard-response","507","2275192","0.0-6.0-4.71","4111090","co37819","norming","","","","","","",""
"null","../img/tt/1262tt.jpg","null","mooney2","image-keyboard-response","508","2277194","0.0-6.0-5.71","4111090","co37819","norming","","","","","","",""
"4339","","","post_reveal_questions","survey-likert","509","2281534","0.0-6.0-6.71","4111090","co37819","norming","","","{""aha"":4}","[0]","../img/tt/1262tt.jpg","",""
"null","<div style=""font-size:60px;""> </div>","null","fixation","html-keyboard-response","510","2281737","0.0-6.0-0.72","4111090","co37819","norming","","","","","","",""
"null","../img/tt/184tt.jpg","null","mooney1","image-keyboard-response","511","2284740","0.0-6.0-1.72","4111090","co37819","norming","","","","","","",""
"5256.000000000466","","","post_mooney1_questions","survey-likert","512","2289997","0.0-6.0-2.72","4111090","co37819","norming","","","{""curiosity"":2,""confidence"":1}","[0,1]","../img/tt/184tt.jpg","",""
"3107","","","recognition","survey-text","513","2293111","0.0-6.0-3.72","4111090","co37819","norming","","","{""guess"":""reptile""}","","../img/tt/184tt.jpg","",""
"null","../img/gs/184gs.jpg","null","reveal","image-keyboard-response","514","2295113","0.0-6.0-4.72","4111090","co37819","norming","","","","","","",""
"null","../img/tt/184tt.jpg","null","mooney2","image-keyboard-response","515","2297115","0.0-6.0-5.72","4111090","co37819","norming","","","","","","",""
"5240","","","post_reveal_questions","survey-likert","516","2302357","0.0-6.0-6.72","4111090","co37819","norming","","","{""aha"":4}","[0]","../img/tt/184tt.jpg","",""
"null","<div style=""font-size:60px;""> </div>","null","fixation","html-keyboard-response","517","2302561","0.0-6.0-0.73","4111090","co37819","norming","","","","","","",""
"null","../img/tt/1072tt.jpg","null","mooney1","image-keyboard-response","518","2305563","0.0-6.0-1.73","4111090","co37819","norming","","","","","","",""
"5551.999999999534","","","post_mooney1_questions","survey-likert","519","2311117","0.0-6.0-2.73","4111090","co37819","norming","","","{""curiosity"":2,""confidence"":2}","[0,1]","../img/tt/1072tt.jpg","",""
"2429","","","recognition","survey-text","520","2313553","0.0-6.0-3.73","4111090","co37819","norming","","","{""guess"":""hay""}","","../img/tt/1072tt.jpg","",""
"null","../img/gs/1072gs.jpg","null","reveal","image-keyboard-response","521","2315555","0.0-6.0-4.73","4111090","co37819","norming","","","","","","",""
"null","../img/tt/1072tt.jpg","null","mooney2","image-keyboard-response","522","2317557","0.0-6.0-5.73","4111090","co37819","norming","","","","","","",""
"4029","","","post_reveal_questions","survey-likert","523","2321587","0.0-6.0-6.73","4111090","co37819","norming","","","{""aha"":2}","[0]","../img/tt/1072tt.jpg","",""
"null","<div style=""font-size:60px;""> </div>","null","fixation","html-keyboard-response","524","2321790","0.0-6.0-0.74","4111090","co37819","norming","","","","","","",""
"null","../img/tt/1043tt.jpg","null","mooney1","image-keyboard-response","525","2324792","0.0-6.0-1.74","4111090","co37819","norming","","","","","","",""
"4175.000000000466","","","post_mooney1_questions","survey-likert","526","2328969","0.0-6.0-2.74","4111090","co37819","norming","","","{""curiosity"":2,""confidence"":3}","[0,1]","../img/tt/1043tt.jpg","",""
"3897","","","recognition","survey-text","527","2332874","0.0-6.0-3.74","4111090","co37819","norming","","","{""guess"":""plate food""}","","../img/tt/1043tt.jpg","",""
"null","../img/gs/1043gs.jpg","null","reveal","image-keyboard-response","528","2334877","0.0-6.0-4.74","4111090","co37819","norming","","","","","","",""
"null","../img/tt/1043tt.jpg","null","mooney2","image-keyboard-response","529","2336879","0.0-6.0-5.74","4111090","co37819","norming","","","","","","",""
"3333","","","post_reveal_questions","survey-likert","530","2340214","0.0-6.0-6.74","4111090","co37819","norming","","","{""aha"":3}","[0]","../img/tt/1043tt.jpg","",""
"null","<div style=""font-size:60px;""> </div>","null","fixation","html-keyboard-response","531","2340417","0.0-6.0-0.75","4111090","co37819","norming","","","","","","",""
"null","../img/tt/1069tt.jpg","null","mooney1","image-keyboard-response","532","2343419","0.0-6.0-1.75","4111090","co37819","norming","","","","","","",""
"6980.999999999534","","","post_mooney1_questions","survey-likert","533","2350402","0.0-6.0-2.75","4111090","co37819","norming","","","{""curiosity"":2,""confidence"":2}","[0,1]","../img/tt/1069tt.jpg","",""
"2755","","","recognition","survey-text","534","2353165","0.0-6.0-3.75","4111090","co37819","norming","","","{""guess"":""soldiers ""}","","../img/tt/1069tt.jpg","",""
"null","../img/gs/1069gs.jpg","null","reveal","image-keyboard-response","535","2355167","0.0-6.0-4.75","4111090","co37819","norming","","","","","","",""
"null","../img/tt/1069tt.jpg","null","mooney2","image-keyboard-response","536","2357169","0.0-6.0-5.75","4111090","co37819","norming","","","","","","",""
"1875","","","post_reveal_questions","survey-likert","537","2359046","0.0-6.0-6.75","4111090","co37819","norming","","","{""aha"":5}","[0]","../img/tt/1069tt.jpg","",""
"null","<div style=""font-size:60px;""> </div>","null","fixation","html-keyboard-response","538","2359249","0.0-6.0-0.76","4111090","co37819","norming","","","","","","",""
"null","../img/tt/1366tt.jpg","null","mooney1","image-keyboard-response","539","2362251","0.0-6.0-1.76","4111090","co37819","norming","","","","","","",""
"4404","","","post_mooney1_questions","survey-likert","540","2366657","0.0-6.0-2.76","4111090","co37819","norming","","","{""curiosity"":2,""confidence"":4}","[0,1]","../img/tt/1366tt.jpg","",""
"3447","","","recognition","survey-text","541","2370111","0.0-6.0-3.76","4111090","co37819","norming","","","{""guess"":""buritto""}","","../img/tt/1366tt.jpg","",""
"null","../img/gs/1366gs.jpg","null","reveal","image-keyboard-response","542","2372114","0.0-6.0-4.76","4111090","co37819","norming","","","","","","",""
"null","../img/tt/1366tt.jpg","null","mooney2","image-keyboard-response","543","2374116","0.0-6.0-5.76","4111090","co37819","norming","","","","","","",""
"2299","","","post_reveal_questions","survey-likert","544","2376417","0.0-6.0-6.76","4111090","co37819","norming","","","{""aha"":3}","[0]","../img/tt/1366tt.jpg","",""
"null","<div style=""font-size:60px;""> </div>","null","fixation","html-keyboard-response","545","2376620","0.0-6.0-0.77","4111090","co37819","norming","","","","","","",""
"null","../img/tt/1027tt.jpg","null","mooney1","image-keyboard-response","546","2379623","0.0-6.0-1.77","4111090","co37819","norming","","","","","","",""
"5578.999999999534","","","post_mooney1_questions","survey-likert","547","2385204","0.0-6.0-2.77","4111090","co37819","norming","","","{""curiosity"":3,""confidence"":5}","[0,1]","../img/tt/1027tt.jpg","",""
"3152","","","recognition","survey-text","548","2388362","0.0-6.0-3.77","4111090","co37819","norming","","","{""guess"":""cow""}","","../img/tt/1027tt.jpg","",""
"null","../img/gs/1027gs.jpg","null","reveal","image-keyboard-response","549","2390364","0.0-6.0-4.77","4111090","co37819","norming","","","","","","",""
"null","../img/tt/1027tt.jpg","null","mooney2","image-keyboard-response","550","2392365","0.0-6.0-5.77","4111090","co37819","norming","","","","","","",""
"2280","","","post_reveal_questions","survey-likert","551","2394647","0.0-6.0-6.77","4111090","co37819","norming","","","{""aha"":3}","[0]","../img/tt/1027tt.jpg","",""
"null","<div style=""font-size:60px;""> </div>","null","fixation","html-keyboard-response","552","2394850","0.0-6.0-0.78","4111090","co37819","norming","","","","","","",""
"null","../img/tt/1101tt.jpg","null","mooney1","image-keyboard-response","553","2397852","0.0-6.0-1.78","4111090","co37819","norming","","","","","","",""
"5178","","","post_mooney1_questions","survey-likert","554","2403032","0.0-6.0-2.78","4111090","co37819","norming","","","{""curiosity"":2,""confidence"":3}","[0,1]","../img/tt/1101tt.jpg","",""
"3996","","","recognition","survey-text","555","2407036","0.0-6.0-3.78","4111090","co37819","norming","","","{""guess"":""Charlie chapling""}","","../img/tt/1101tt.jpg","",""
"null","../img/gs/1101gs.jpg","null","reveal","image-keyboard-response","556","2409039","0.0-6.0-4.78","4111090","co37819","norming","","","","","","",""
"null","../img/tt/1101tt.jpg","null","mooney2","image-keyboard-response","557","2411041","0.0-6.0-5.78","4111090","co37819","norming","","","","","","",""
"5439.000000000466","","","post_reveal_questions","survey-likert","558","2416481","0.0-6.0-6.78","4111090","co37819","norming","","","{""aha"":3}","[0]","../img/tt/1101tt.jpg","",""
"null","<div style=""font-size:60px;""> </div>","null","fixation","html-keyboard-response","559","2416684","0.0-6.0-0.79","4111090","co37819","norming","","","","","","",""
"null","../img/tt/329tt.jpg","null","mooney1","image-keyboard-response","560","2419686","0.0-6.0-1.79","4111090","co37819","norming","","","","","","",""
"6470","","","post_mooney1_questions","survey-likert","561","2426158","0.0-6.0-2.79","4111090","co37819","norming","","","{""curiosity"":2,""confidence"":0}","[0,1]","../img/tt/329tt.jpg","",""
"643","","","recognition","survey-text","562","2426806","0.0-6.0-3.79","4111090","co37819","norming","","","{""guess"":""""}","","../img/tt/329tt.jpg","",""
"null","../img/gs/329gs.jpg","null","reveal","image-keyboard-response","563","2428809","0.0-6.0-4.79","4111090","co37819","norming","","","","","","",""
"null","../img/tt/329tt.jpg","null","mooney2","image-keyboard-response","564","2430811","0.0-6.0-5.79","4111090","co37819","norming","","","","","","",""
"3211","","","post_reveal_questions","survey-likert","565","2434024","0.0-6.0-6.79","4111090","co37819","norming","","","{""aha"":2}","[0]","../img/tt/329tt.jpg","",""
