"rt","stimulus","key_press","test_part","trial_type","trial_index","time_elapsed","internal_node_id","totalTime","subject","experiment_name","button_pressed","success","responses","question_order","currentStim","old","correct"
"3461.650000012014","Welcome to the experiment. This is an online experiment so please don't close the tab/window until we say goodbye.  Press any key to begin.","32","instructions","html-keyboard-response","0","3479","0.0-0.0","2731826","co37909","norming","","","","","","",""
"27335.48000000883","<div style='word-wrap: break-word; width: 900px'><h3>Please consider this information carefully before deciding whether to participate in this research</h3><ul style='text-align: left; font-size: .8em;'><li><b>Purpose of the research</b>: To examine how people process images.</li><li><b>What you will do in this research</b>:  Stimuli (images) will be presented on the computer and you will be asked different questions about them.</li><li><b>Time required</b>: Participation will take between 45 and 60 minutes to complete.</li><li><b>Risks</b>:  There are no anticipated risks associated with participating in this study. The effects of participating should be comparable to those you would experience from viewing a computer monitor for 30 minutes and using a mouse or keyboard.</li><li><b>Benefits</b>:  This study provides no benefits to you individually except for the credit. The study provides important information about the nature of perception and learning.</li><li><b>Confidentiality</b>:  Your participation in this study will remain confidential. No personally identifiable information will be associated with your data. Your de-identified data may be shared with other researchers and used in future projects.</li><li><b>Participation and withdrawal</b>:  Your participation in this study is completely voluntary and you may refuse to participate or you may choose to withdraw at any time without penalty.</li><li><b>How to contact the researchers</b>: If you have questions or concerns about your participation or payment, or want to request a summary of research findings, please contact Sander Van de Cruys (KU Leuven), at sander.vandecruys@kuleuven.be.</li></ul><p>The nature and purpose of this research have been sufficiently explained and I agree to participate in this study.  I understand that I am free to withdraw at any time without incurring any penalty.</p><p>Please consent by clicking the button below to continue. Otherwise, please exit the study at this time.</p></div>","","instructions","html-button-response","1","30816","0.0-1.0","2731826","co37909","norming","0","","","","","",""
"","","","instructions","fullscreen","2","34521","0.0-2.0","2731826","co37909","norming","","true","","","","",""
"20725.57000000961","","","sona","survey-html-form","3","55248","0.0-3.0","2731826","co37909","norming","","","[{""name"":""sonaid"",""value"":""37909""},{""name"":""debrief"",""value"":""yes""},{""name"":""datajoin"",""value"":""yes""}]","","","",""
"53644.76000005379","<div style='word-wrap: break-word; width: 900px'><h3>Instructions</h3><p>This experiment will have 3 parts. In the first part you will see a series of distorted images like the one below on the left. As you can see in the righthand image, the distorted images are derived from actual photographs. In what follows, you will <strong>briefly</strong> be presented with <strong>only</strong> the distorted image.</p> <div style='float: left; margin-right: 20px;'><img src='../img/018tt.jpg' height='250' width='250'></img></div><div style='float: right; margin-left: 20px;'><img src='../img/018gs.jpg' height='250' width='250'></img></div><p>Subsequently you will be asked a few questions about the image: One question on how <strong>curious</strong> you are about the solution and one on how <strong>confident</strong> you are that you know the solution.</p>Next, we ask you to make a guess on what is in the image. Note that it is OK to name just the <strong>basic level category</strong>. For example when you see a parrot in the image, 'parrot' will obviously be a correct answer but also correct is 'bird'. However, 'animal' will <strong>not</strong> be counted as a correct response. For the example above, 'rose' would be correct or 'flower', but not 'plant'. When soccer players are depicted, 'soccer', 'football', 'soccer players' will be correct, but not 'humans', 'outdoors', or 'sports'. You do not need to describe the image in full, just name the main object in it <strong>in one or two words</strong>. All images depict objects from one of the following broad level categories: animals, inanimate objects, plants, sports, vehicles, and food. Recognizing means knowing <strong>more</strong> than these broad labels for a given image. But we always encourage you to <strong>make a guess</strong> if you can. Note that you are allowed to use <strong>Dutch and English</strong> in your answers, whatever comes easiest for you.</p><p>Press any key to continue.</p></div>","93","instructions","html-keyboard-response","4","108894","0.0-4.0","2731826","co37909","norming","","","","","","",""
"17936.494999972638","<div style='word-wrap: break-word; width: 900px'><h3>Instructions</h3> <p>Next, the solution image will be revealed to you and you'll be asked to indicate how strong your <strong>aha-experience</strong> was after seeing the solution. This describes the positive feeling of the 'click' you sometimes experience, when the pieces of the 'puzzle' fall together and you suddenly have 'insight' in the image.</p><img src='aha.jpg' height='188' width='250'></img><p>Note that there are no right or wrong answers. We are interested in what <strong>you</strong> see in the image and how <strong>you</strong> feel about it.</p><p>Press any key to start the experiment.</p></div>","32","instructions","html-keyboard-response","5","126827","0.0-5.0","2731826","co37909","norming","","","","","","",""
"null","<div style=""font-size:60px;""> </div>","null","fixation","html-keyboard-response","6","127040","0.0-6.0-0.0","2731826","co37909","norming","","","","","","",""
"null","../img/tt/123tt.jpg","null","mooney1","image-keyboard-response","7","130047","0.0-6.0-1.0","2731826","co37909","norming","","","","","","",""
"11890.680000011344","","","post_mooney1_questions","survey-likert","8","141940","0.0-6.0-2.0","2731826","co37909","norming","","","{""curiosity"":4,""confidence"":0}","[0,1]","../img/tt/123tt.jpg","",""
"9532.179999980144","","","recognition","survey-text","9","151475","0.0-6.0-3.0","2731826","co37909","norming","","","{""guess"":""""}","","../img/tt/123tt.jpg","",""
"null","../img/gs/123gs.jpg","null","reveal","image-keyboard-response","10","153477","0.0-6.0-4.0","2731826","co37909","norming","","","","","","",""
"null","../img/tt/123tt.jpg","null","mooney2","image-keyboard-response","11","155478","0.0-6.0-5.0","2731826","co37909","norming","","","","","","",""
"3388.165000011213","","","post_reveal_questions","survey-likert","12","158867","0.0-6.0-6.0","2731826","co37909","norming","","","{""aha"":5}","[0]","../img/tt/123tt.jpg","",""
"null","<div style=""font-size:60px;""> </div>","null","fixation","html-keyboard-response","13","159070","0.0-6.0-0.1","2731826","co37909","norming","","","","","","",""
"null","../img/tt/1048tt.jpg","null","mooney1","image-keyboard-response","14","162077","0.0-6.0-1.1","2731826","co37909","norming","","","","","","",""
"8099.229999992531","","","post_mooney1_questions","survey-likert","15","170179","0.0-6.0-2.1","2731826","co37909","norming","","","{""curiosity"":4,""confidence"":1}","[0,1]","../img/tt/1048tt.jpg","",""
"10406.72500000801","","","recognition","survey-text","16","180588","0.0-6.0-3.1","2731826","co37909","norming","","","{""guess"":""bos""}","","../img/tt/1048tt.jpg","",""
"null","../img/gs/1048gs.jpg","null","reveal","image-keyboard-response","17","182590","0.0-6.0-4.1","2731826","co37909","norming","","","","","","",""
"null","../img/tt/1048tt.jpg","null","mooney2","image-keyboard-response","18","184594","0.0-6.0-5.1","2731826","co37909","norming","","","","","","",""
"5832.410000031814","","","post_reveal_questions","survey-likert","19","190432","0.0-6.0-6.1","2731826","co37909","norming","","","{""aha"":3}","[0]","../img/tt/1048tt.jpg","",""
"null","<div style=""font-size:60px;""> </div>","null","fixation","html-keyboard-response","20","190633","0.0-6.0-0.2","2731826","co37909","norming","","","","","","",""
"null","../img/tt/1268tt.jpg","null","mooney1","image-keyboard-response","21","193635","0.0-6.0-1.2","2731826","co37909","norming","","","","","","",""
"6875.260000000708","","","post_mooney1_questions","survey-likert","22","200512","0.0-6.0-2.2","2731826","co37909","norming","","","{""curiosity"":5,""confidence"":0}","[0,1]","../img/tt/1268tt.jpg","",""
"1069.6799999568611","","","recognition","survey-text","23","201583","0.0-6.0-3.2","2731826","co37909","norming","","","{""guess"":""""}","","../img/tt/1268tt.jpg","",""
"null","../img/gs/1268gs.jpg","null","reveal","image-keyboard-response","24","203599","0.0-6.0-4.2","2731826","co37909","norming","","","","","","",""
"null","../img/tt/1268tt.jpg","null","mooney2","image-keyboard-response","25","205604","0.0-6.0-5.2","2731826","co37909","norming","","","","","","",""
"2616.585000010673","","","post_reveal_questions","survey-likert","26","208223","0.0-6.0-6.2","2731826","co37909","norming","","","{""aha"":4}","[0]","../img/tt/1268tt.jpg","",""
"null","<div style=""font-size:60px;""> </div>","null","fixation","html-keyboard-response","27","208428","0.0-6.0-0.3","2731826","co37909","norming","","","","","","",""
"null","../img/tt/084tt.jpg","null","mooney1","image-keyboard-response","28","211430","0.0-6.0-1.3","2731826","co37909","norming","","","","","","",""
"4968.259999994189","","","post_mooney1_questions","survey-likert","29","216400","0.0-6.0-2.3","2731826","co37909","norming","","","{""curiosity"":4,""confidence"":4}","[0,1]","../img/tt/084tt.jpg","",""
"3486.144999973476","","","recognition","survey-text","30","219887","0.0-6.0-3.3","2731826","co37909","norming","","","{""guess"":""een eend""}","","../img/tt/084tt.jpg","",""
"null","../img/gs/084gs.jpg","null","reveal","image-keyboard-response","31","221889","0.0-6.0-4.3","2731826","co37909","norming","","","","","","",""
"null","../img/tt/084tt.jpg","null","mooney2","image-keyboard-response","32","223899","0.0-6.0-5.3","2731826","co37909","norming","","","","","","",""
"1930.1899999845773","","","post_reveal_questions","survey-likert","33","225831","0.0-6.0-6.3","2731826","co37909","norming","","","{""aha"":2}","[0]","../img/tt/084tt.jpg","",""
"null","<div style=""font-size:60px;""> </div>","null","fixation","html-keyboard-response","34","226044","0.0-6.0-0.4","2731826","co37909","norming","","","","","","",""
"null","../img/tt/081tt.jpg","null","mooney1","image-keyboard-response","35","229058","0.0-6.0-1.4","2731826","co37909","norming","","","","","","",""
"10364.10500004422","","","post_mooney1_questions","survey-likert","36","239423","0.0-6.0-2.4","2731826","co37909","norming","","","{""curiosity"":3,""confidence"":5}","[0,1]","../img/tt/081tt.jpg","",""
"3997.5049999775365","","","recognition","survey-text","37","243422","0.0-6.0-3.4","2731826","co37909","norming","","","{""guess"":""een kikker""}","","../img/tt/081tt.jpg","",""
"null","../img/gs/081gs.jpg","null","reveal","image-keyboard-response","38","245424","0.0-6.0-4.4","2731826","co37909","norming","","","","","","",""
"null","../img/tt/081tt.jpg","null","mooney2","image-keyboard-response","39","247436","0.0-6.0-5.4","2731826","co37909","norming","","","","","","",""
"2968.6450000153854","","","post_reveal_questions","survey-likert","40","250406","0.0-6.0-6.4","2731826","co37909","norming","","","{""aha"":3}","[0]","../img/tt/081tt.jpg","",""
"null","<div style=""font-size:60px;""> </div>","null","fixation","html-keyboard-response","41","250608","0.0-6.0-0.5","2731826","co37909","norming","","","","","","",""
"null","../img/tt/468tt.jpg","null","mooney1","image-keyboard-response","42","253610","0.0-6.0-1.5","2731826","co37909","norming","","","","","","",""
"5978.945000038948","","","post_mooney1_questions","survey-likert","43","259592","0.0-6.0-2.5","2731826","co37909","norming","","","{""curiosity"":5,""confidence"":1}","[0,1]","../img/tt/468tt.jpg","",""
"2869.9999999953434","","","recognition","survey-text","44","262463","0.0-6.0-3.5","2731826","co37909","norming","","","{""guess"":""cowboy""}","","../img/tt/468tt.jpg","",""
"null","../img/gs/468gs.jpg","null","reveal","image-keyboard-response","45","264483","0.0-6.0-4.5","2731826","co37909","norming","","","","","","",""
"null","../img/tt/468tt.jpg","null","mooney2","image-keyboard-response","46","266486","0.0-6.0-5.5","2731826","co37909","norming","","","","","","",""
"3680.500000016764","","","post_reveal_questions","survey-likert","47","270167","0.0-6.0-6.5","2731826","co37909","norming","","","{""aha"":5}","[0]","../img/tt/468tt.jpg","",""
"null","<div style=""font-size:60px;""> </div>","null","fixation","html-keyboard-response","48","270368","0.0-6.0-0.6","2731826","co37909","norming","","","","","","",""
"null","../img/tt/052tt.jpg","null","mooney1","image-keyboard-response","49","273371","0.0-6.0-1.6","2731826","co37909","norming","","","","","","",""
"3400.6399999489076","","","post_mooney1_questions","survey-likert","50","276775","0.0-6.0-2.6","2731826","co37909","norming","","","{""curiosity"":4,""confidence"":1}","[0,1]","../img/tt/052tt.jpg","",""
"2343.3050000458024","","","recognition","survey-text","51","279120","0.0-6.0-3.6","2731826","co37909","norming","","","{""guess"":""trommel""}","","../img/tt/052tt.jpg","",""
"null","../img/gs/052gs.jpg","null","reveal","image-keyboard-response","52","281121","0.0-6.0-4.6","2731826","co37909","norming","","","","","","",""
"null","../img/tt/052tt.jpg","null","mooney2","image-keyboard-response","53","283123","0.0-6.0-5.6","2731826","co37909","norming","","","","","","",""
"2659.079999953974","","","post_reveal_questions","survey-likert","54","285782","0.0-6.0-6.6","2731826","co37909","norming","","","{""aha"":3}","[0]","../img/tt/052tt.jpg","",""
"null","<div style=""font-size:60px;""> </div>","null","fixation","html-keyboard-response","55","285985","0.0-6.0-0.7","2731826","co37909","norming","","","","","","",""
"null","../img/tt/060tt.jpg","null","mooney1","image-keyboard-response","56","288990","0.0-6.0-1.7","2731826","co37909","norming","","","","","","",""
"5495.074999984354","","","post_mooney1_questions","survey-likert","57","294487","0.0-6.0-2.7","2731826","co37909","norming","","","{""curiosity"":3,""confidence"":2}","[0,1]","../img/tt/060tt.jpg","",""
"2782.7650000108406","","","recognition","survey-text","58","297271","0.0-6.0-3.7","2731826","co37909","norming","","","{""guess"":""een broodje""}","","../img/tt/060tt.jpg","",""
"null","../img/gs/060gs.jpg","null","reveal","image-keyboard-response","59","299273","0.0-6.0-4.7","2731826","co37909","norming","","","","","","",""
"null","../img/tt/060tt.jpg","null","mooney2","image-keyboard-response","60","301274","0.0-6.0-5.7","2731826","co37909","norming","","","","","","",""
"4938.530000043102","","","post_reveal_questions","survey-likert","61","306214","0.0-6.0-6.7","2731826","co37909","norming","","","{""aha"":2}","[0]","../img/tt/060tt.jpg","",""
"null","<div style=""font-size:60px;""> </div>","null","fixation","html-keyboard-response","62","306417","0.0-6.0-0.8","2731826","co37909","norming","","","","","","",""
"null","../img/tt/1200tt.jpg","null","mooney1","image-keyboard-response","63","309420","0.0-6.0-1.8","2731826","co37909","norming","","","","","","",""
"4402.775000024121","","","post_mooney1_questions","survey-likert","64","313824","0.0-6.0-2.8","2731826","co37909","norming","","","{""curiosity"":5,""confidence"":0}","[0,1]","../img/tt/1200tt.jpg","",""
"733.7200000183657","","","recognition","survey-text","65","314559","0.0-6.0-3.8","2731826","co37909","norming","","","{""guess"":""""}","","../img/tt/1200tt.jpg","",""
"null","../img/gs/1200gs.jpg","null","reveal","image-keyboard-response","66","316573","0.0-6.0-4.8","2731826","co37909","norming","","","","","","",""
"null","../img/tt/1200tt.jpg","null","mooney2","image-keyboard-response","67","318575","0.0-6.0-5.8","2731826","co37909","norming","","","","","","",""
"2566.6199999977835","","","post_reveal_questions","survey-likert","68","321142","0.0-6.0-6.8","2731826","co37909","norming","","","{""aha"":5}","[0]","../img/tt/1200tt.jpg","",""
"null","<div style=""font-size:60px;""> </div>","null","fixation","html-keyboard-response","69","321353","0.0-6.0-0.9","2731826","co37909","norming","","","","","","",""
"null","../img/tt/049tt.jpg","null","mooney1","image-keyboard-response","70","324363","0.0-6.0-1.9","2731826","co37909","norming","","","","","","",""
"5507.485000009183","","","post_mooney1_questions","survey-likert","71","329872","0.0-6.0-2.9","2731826","co37909","norming","","","{""curiosity"":4,""confidence"":1}","[0,1]","../img/tt/049tt.jpg","",""
"2213.9400000451133","","","recognition","survey-text","72","332087","0.0-6.0-3.9","2731826","co37909","norming","","","{""guess"":""een mol""}","","../img/tt/049tt.jpg","",""
"null","../img/gs/049gs.jpg","null","reveal","image-keyboard-response","73","334098","0.0-6.0-4.9","2731826","co37909","norming","","","","","","",""
"null","../img/tt/049tt.jpg","null","mooney2","image-keyboard-response","74","336100","0.0-6.0-5.9","2731826","co37909","norming","","","","","","",""
"4297.584999992978","","","post_reveal_questions","survey-likert","75","340398","0.0-6.0-6.9","2731826","co37909","norming","","","{""aha"":3}","[0]","../img/tt/049tt.jpg","",""
"null","<div style=""font-size:60px;""> </div>","null","fixation","html-keyboard-response","76","340607","0.0-6.0-0.10","2731826","co37909","norming","","","","","","",""
"null","../img/tt/008tt.jpg","null","mooney1","image-keyboard-response","77","343609","0.0-6.0-1.10","2731826","co37909","norming","","","","","","",""
"4116.195000009611","","","post_mooney1_questions","survey-likert","78","347727","0.0-6.0-2.10","2731826","co37909","norming","","","{""curiosity"":4,""confidence"":0}","[0,1]","../img/tt/008tt.jpg","",""
"3149.4649999658577","","","recognition","survey-text","79","350878","0.0-6.0-3.10","2731826","co37909","norming","","","{""guess"":""""}","","../img/tt/008tt.jpg","",""
"null","../img/gs/008gs.jpg","null","reveal","image-keyboard-response","80","352879","0.0-6.0-4.10","2731826","co37909","norming","","","","","","",""
"null","../img/tt/008tt.jpg","null","mooney2","image-keyboard-response","81","354894","0.0-6.0-5.10","2731826","co37909","norming","","","","","","",""
"5344.719999993686","","","post_reveal_questions","survey-likert","82","360239","0.0-6.0-6.10","2731826","co37909","norming","","","{""aha"":3}","[0]","../img/tt/008tt.jpg","",""
"null","<div style=""font-size:60px;""> </div>","null","fixation","html-keyboard-response","83","360447","0.0-6.0-0.11","2731826","co37909","norming","","","","","","",""
"null","../img/tt/222tt.jpg","null","mooney1","image-keyboard-response","84","363450","0.0-6.0-1.11","2731826","co37909","norming","","","","","","",""
"17011.280000035185","","","post_mooney1_questions","survey-likert","85","380458","0.0-6.0-2.11","2731826","co37909","norming","","","{""curiosity"":3,""confidence"":2}","[0,1]","../img/tt/222tt.jpg","",""
"2662.725000001956","","","recognition","survey-text","86","383122","0.0-6.0-3.11","2731826","co37909","norming","","","{""guess"":""een boot""}","","../img/tt/222tt.jpg","",""
"null","../img/gs/222gs.jpg","null","reveal","image-keyboard-response","87","385124","0.0-6.0-4.11","2731826","co37909","norming","","","","","","",""
"null","../img/tt/222tt.jpg","null","mooney2","image-keyboard-response","88","387128","0.0-6.0-5.11","2731826","co37909","norming","","","","","","",""
"10505.525000044145","","","post_reveal_questions","survey-likert","89","397635","0.0-6.0-6.11","2731826","co37909","norming","","","{""aha"":3}","[0]","../img/tt/222tt.jpg","",""
"null","<div style=""font-size:60px;""> </div>","null","fixation","html-keyboard-response","90","397837","0.0-6.0-0.12","2731826","co37909","norming","","","","","","",""
"null","../img/tt/1125tt.jpg","null","mooney1","image-keyboard-response","91","400838","0.0-6.0-1.12","2731826","co37909","norming","","","","","","",""
"17800.195000017993","","","post_mooney1_questions","survey-likert","92","418641","0.0-6.0-2.12","2731826","co37909","norming","","","{""curiosity"":3,""confidence"":2}","[0,1]","../img/tt/1125tt.jpg","",""
"2192.1500000171363","","","recognition","survey-text","93","420835","0.0-6.0-3.12","2731826","co37909","norming","","","{""guess"":""een mens""}","","../img/tt/1125tt.jpg","",""
"null","../img/gs/1125gs.jpg","null","reveal","image-keyboard-response","94","422838","0.0-6.0-4.12","2731826","co37909","norming","","","","","","",""
"null","../img/tt/1125tt.jpg","null","mooney2","image-keyboard-response","95","424839","0.0-6.0-5.12","2731826","co37909","norming","","","","","","",""
"2543.935000023339","","","post_reveal_questions","survey-likert","96","427386","0.0-6.0-6.12","2731826","co37909","norming","","","{""aha"":3}","[0]","../img/tt/1125tt.jpg","",""
"null","<div style=""font-size:60px;""> </div>","null","fixation","html-keyboard-response","97","427587","0.0-6.0-0.13","2731826","co37909","norming","","","","","","",""
"null","../img/tt/416tt.jpg","null","mooney1","image-keyboard-response","98","430605","0.0-6.0-1.13","2731826","co37909","norming","","","","","","",""
"6179.340000031516","","","post_mooney1_questions","survey-likert","99","436787","0.0-6.0-2.13","2731826","co37909","norming","","","{""curiosity"":4,""confidence"":0}","[0,1]","../img/tt/416tt.jpg","",""
"933.9599999948405","","","recognition","survey-text","100","437723","0.0-6.0-3.13","2731826","co37909","norming","","","{""guess"":""""}","","../img/tt/416tt.jpg","",""
"null","../img/gs/416gs.jpg","null","reveal","image-keyboard-response","101","439734","0.0-6.0-4.13","2731826","co37909","norming","","","","","","",""
"null","../img/tt/416tt.jpg","null","mooney2","image-keyboard-response","102","441741","0.0-6.0-5.13","2731826","co37909","norming","","","","","","",""
"8496.719999995548","","","post_reveal_questions","survey-likert","103","450240","0.0-6.0-6.13","2731826","co37909","norming","","","{""aha"":4}","[0]","../img/tt/416tt.jpg","",""
"null","<div style=""font-size:60px;""> </div>","null","fixation","html-keyboard-response","104","450442","0.0-6.0-0.14","2731826","co37909","norming","","","","","","",""
"null","../img/tt/1362tt.jpg","null","mooney1","image-keyboard-response","105","453446","0.0-6.0-1.14","2731826","co37909","norming","","","","","","",""
"6999.680000008084","","","post_mooney1_questions","survey-likert","106","460447","0.0-6.0-2.14","2731826","co37909","norming","","","{""curiosity"":3,""confidence"":1}","[0,1]","../img/tt/1362tt.jpg","",""
"2844.6850000182167","","","recognition","survey-text","107","463293","0.0-6.0-3.14","2731826","co37909","norming","","","{""guess"":""een bureau""}","","../img/tt/1362tt.jpg","",""
"null","../img/gs/1362gs.jpg","null","reveal","image-keyboard-response","108","465298","0.0-6.0-4.14","2731826","co37909","norming","","","","","","",""
"null","../img/tt/1362tt.jpg","null","mooney2","image-keyboard-response","109","467299","0.0-6.0-5.14","2731826","co37909","norming","","","","","","",""
"2231.405000027735","","","post_reveal_questions","survey-likert","110","469533","0.0-6.0-6.14","2731826","co37909","norming","","","{""aha"":3}","[0]","../img/tt/1362tt.jpg","",""
"null","<div style=""font-size:60px;""> </div>","null","fixation","html-keyboard-response","111","469736","0.0-6.0-0.15","2731826","co37909","norming","","","","","","",""
"null","../img/tt/380tt.jpg","null","mooney1","image-keyboard-response","112","472739","0.0-6.0-1.15","2731826","co37909","norming","","","","","","",""
"3585.930000001099","","","post_mooney1_questions","survey-likert","113","476327","0.0-6.0-2.15","2731826","co37909","norming","","","{""curiosity"":4,""confidence"":0}","[0,1]","../img/tt/380tt.jpg","",""
"517.1899999841116","","","recognition","survey-text","114","476846","0.0-6.0-3.15","2731826","co37909","norming","","","{""guess"":""""}","","../img/tt/380tt.jpg","",""
"null","../img/gs/380gs.jpg","null","reveal","image-keyboard-response","115","478848","0.0-6.0-4.15","2731826","co37909","norming","","","","","","",""
"null","../img/tt/380tt.jpg","null","mooney2","image-keyboard-response","116","480853","0.0-6.0-5.15","2731826","co37909","norming","","","","","","",""
"3725.6250000209548","","","post_reveal_questions","survey-likert","117","484582","0.0-6.0-6.15","2731826","co37909","norming","","","{""aha"":3}","[0]","../img/tt/380tt.jpg","",""
"null","<div style=""font-size:60px;""> </div>","null","fixation","html-keyboard-response","118","484789","0.0-6.0-0.16","2731826","co37909","norming","","","","","","",""
"null","../img/tt/1102tt.jpg","null","mooney1","image-keyboard-response","119","487799","0.0-6.0-1.16","2731826","co37909","norming","","","","","","",""
"6197.404999984428","","","post_mooney1_questions","survey-likert","120","493999","0.0-6.0-2.16","2731826","co37909","norming","","","{""curiosity"":4,""confidence"":3}","[0,1]","../img/tt/1102tt.jpg","",""
"2461.1400000285357","","","recognition","survey-text","121","496463","0.0-6.0-3.16","2731826","co37909","norming","","","{""guess"":""een weg""}","","../img/tt/1102tt.jpg","",""
"null","../img/gs/1102gs.jpg","null","reveal","image-keyboard-response","122","498464","0.0-6.0-4.16","2731826","co37909","norming","","","","","","",""
"null","../img/tt/1102tt.jpg","null","mooney2","image-keyboard-response","123","500469","0.0-6.0-5.16","2731826","co37909","norming","","","","","","",""
"3736.269999993965","","","post_reveal_questions","survey-likert","124","504207","0.0-6.0-6.16","2731826","co37909","norming","","","{""aha"":4}","[0]","../img/tt/1102tt.jpg","",""
"null","<div style=""font-size:60px;""> </div>","null","fixation","html-keyboard-response","125","504409","0.0-6.0-0.17","2731826","co37909","norming","","","","","","",""
"null","../img/tt/1128tt.jpg","null","mooney1","image-keyboard-response","126","507410","0.0-6.0-1.17","2731826","co37909","norming","","","","","","",""
"7402.19499997329","","","post_mooney1_questions","survey-likert","127","514816","0.0-6.0-2.17","2731826","co37909","norming","","","{""curiosity"":4,""confidence"":1}","[0,1]","../img/tt/1128tt.jpg","",""
"7644.369999994524","","","recognition","survey-text","128","522462","0.0-6.0-3.17","2731826","co37909","norming","","","{""guess"":""een meisje""}","","../img/tt/1128tt.jpg","",""
"null","../img/gs/1128gs.jpg","null","reveal","image-keyboard-response","129","524463","0.0-6.0-4.17","2731826","co37909","norming","","","","","","",""
"null","../img/tt/1128tt.jpg","null","mooney2","image-keyboard-response","130","526466","0.0-6.0-5.17","2731826","co37909","norming","","","","","","",""
"11945.449999999255","","","post_reveal_questions","survey-likert","131","538414","0.0-6.0-6.17","2731826","co37909","norming","","","{""aha"":2}","[0]","../img/tt/1128tt.jpg","",""
"null","<div style=""font-size:60px;""> </div>","null","fixation","html-keyboard-response","132","538620","0.0-6.0-0.18","2731826","co37909","norming","","","","","","",""
"null","../img/tt/1024tt.jpg","null","mooney1","image-keyboard-response","133","541626","0.0-6.0-1.18","2731826","co37909","norming","","","","","","",""
"4819.865000026766","","","post_mooney1_questions","survey-likert","134","546446","0.0-6.0-2.18","2731826","co37909","norming","","","{""curiosity"":4,""confidence"":0}","[0,1]","../img/tt/1024tt.jpg","",""
"757.964999997057","","","recognition","survey-text","135","547206","0.0-6.0-3.18","2731826","co37909","norming","","","{""guess"":""""}","","../img/tt/1024tt.jpg","",""
"null","../img/gs/1024gs.jpg","null","reveal","image-keyboard-response","136","549207","0.0-6.0-4.18","2731826","co37909","norming","","","","","","",""
"null","../img/tt/1024tt.jpg","null","mooney2","image-keyboard-response","137","551221","0.0-6.0-5.18","2731826","co37909","norming","","","","","","",""
"1494.8450000374578","","","post_reveal_questions","survey-likert","138","552718","0.0-6.0-6.18","2731826","co37909","norming","","","{""aha"":4}","[0]","../img/tt/1024tt.jpg","",""
"null","<div style=""font-size:60px;""> </div>","null","fixation","html-keyboard-response","139","552920","0.0-6.0-0.19","2731826","co37909","norming","","","","","","",""
"null","../img/tt/1243tt.jpg","null","mooney1","image-keyboard-response","140","555934","0.0-6.0-1.19","2731826","co37909","norming","","","","","","",""
"4957.449999987148","","","post_mooney1_questions","survey-likert","141","560894","0.0-6.0-2.19","2731826","co37909","norming","","","{""curiosity"":4,""confidence"":4}","[0,1]","../img/tt/1243tt.jpg","",""
"5661.959999997634","","","recognition","survey-text","142","566558","0.0-6.0-3.19","2731826","co37909","norming","","","{""guess"":""een beer in de zoo""}","","../img/tt/1243tt.jpg","",""
"null","../img/gs/1243gs.jpg","null","reveal","image-keyboard-response","143","568559","0.0-6.0-4.19","2731826","co37909","norming","","","","","","",""
"null","../img/tt/1243tt.jpg","null","mooney2","image-keyboard-response","144","570568","0.0-6.0-5.19","2731826","co37909","norming","","","","","","",""
"2276.030000008177","","","post_reveal_questions","survey-likert","145","572846","0.0-6.0-6.19","2731826","co37909","norming","","","{""aha"":3}","[0]","../img/tt/1243tt.jpg","",""
"null","<div style=""font-size:60px;""> </div>","null","fixation","html-keyboard-response","146","573047","0.0-6.0-0.20","2731826","co37909","norming","","","","","","",""
"null","../img/tt/301tt.jpg","null","mooney1","image-keyboard-response","147","576063","0.0-6.0-1.20","2731826","co37909","norming","","","","","","",""
"4149.005000013858","","","post_mooney1_questions","survey-likert","148","580215","0.0-6.0-2.20","2731826","co37909","norming","","","{""curiosity"":4,""confidence"":0}","[0,1]","../img/tt/301tt.jpg","",""
"725.9049999993294","","","recognition","survey-text","149","580943","0.0-6.0-3.20","2731826","co37909","norming","","","{""guess"":""""}","","../img/tt/301tt.jpg","",""
"null","../img/gs/301gs.jpg","null","reveal","image-keyboard-response","150","582945","0.0-6.0-4.20","2731826","co37909","norming","","","","","","",""
"null","../img/tt/301tt.jpg","null","mooney2","image-keyboard-response","151","584948","0.0-6.0-5.20","2731826","co37909","norming","","","","","","",""
"3896.6449999716133","","","post_reveal_questions","survey-likert","152","588847","0.0-6.0-6.20","2731826","co37909","norming","","","{""aha"":2}","[0]","../img/tt/301tt.jpg","",""
"null","<div style=""font-size:60px;""> </div>","null","fixation","html-keyboard-response","153","589048","0.0-6.0-0.21","2731826","co37909","norming","","","","","","",""
"null","../img/tt/1202tt.jpg","null","mooney1","image-keyboard-response","154","592055","0.0-6.0-1.21","2731826","co37909","norming","","","","","","",""
"11725.399999995716","","","post_mooney1_questions","survey-likert","155","603782","0.0-6.0-2.21","2731826","co37909","norming","","","{""curiosity"":2,""confidence"":0}","[0,1]","../img/tt/1202tt.jpg","",""
"549.9200000194833","","","recognition","survey-text","156","604333","0.0-6.0-3.21","2731826","co37909","norming","","","{""guess"":""""}","","../img/tt/1202tt.jpg","",""
"null","../img/gs/1202gs.jpg","null","reveal","image-keyboard-response","157","606352","0.0-6.0-4.21","2731826","co37909","norming","","","","","","",""
"null","../img/tt/1202tt.jpg","null","mooney2","image-keyboard-response","158","608356","0.0-6.0-5.21","2731826","co37909","norming","","","","","","",""
"4503.509999951348","","","post_reveal_questions","survey-likert","159","612862","0.0-6.0-6.21","2731826","co37909","norming","","","{""aha"":0}","[0]","../img/tt/1202tt.jpg","",""
"null","<div style=""font-size:60px;""> </div>","null","fixation","html-keyboard-response","160","613064","0.0-6.0-0.22","2731826","co37909","norming","","","","","","",""
"null","../img/tt/307tt.jpg","null","mooney1","image-keyboard-response","161","616080","0.0-6.0-1.22","2731826","co37909","norming","","","","","","",""
"5754.630000039469","","","post_mooney1_questions","survey-likert","162","621838","0.0-6.0-2.22","2731826","co37909","norming","","","{""curiosity"":3,""confidence"":2}","[0,1]","../img/tt/307tt.jpg","",""
"5485.914999968372","","","recognition","survey-text","163","627325","0.0-6.0-3.22","2731826","co37909","norming","","","{""guess"":""een instrument""}","","../img/tt/307tt.jpg","",""
"null","../img/gs/307gs.jpg","null","reveal","image-keyboard-response","164","629327","0.0-6.0-4.22","2731826","co37909","norming","","","","","","",""
"null","../img/tt/307tt.jpg","null","mooney2","image-keyboard-response","165","631329","0.0-6.0-5.22","2731826","co37909","norming","","","","","","",""
"3731.9450000068173","","","post_reveal_questions","survey-likert","166","635063","0.0-6.0-6.22","2731826","co37909","norming","","","{""aha"":2}","[0]","../img/tt/307tt.jpg","",""
"null","<div style=""font-size:60px;""> </div>","null","fixation","html-keyboard-response","167","635265","0.0-6.0-0.23","2731826","co37909","norming","","","","","","",""
"null","../img/tt/1228tt.jpg","null","mooney1","image-keyboard-response","168","638280","0.0-6.0-1.23","2731826","co37909","norming","","","","","","",""
"11301.050000009127","","","post_mooney1_questions","survey-likert","169","649582","0.0-6.0-2.23","2731826","co37909","norming","","","{""curiosity"":2,""confidence"":1}","[0,1]","../img/tt/1228tt.jpg","",""
"4046.090000018012","","","recognition","survey-text","170","653630","0.0-6.0-3.23","2731826","co37909","norming","","","{""guess"":""een vogel""}","","../img/tt/1228tt.jpg","",""
"null","../img/gs/1228gs.jpg","null","reveal","image-keyboard-response","171","655632","0.0-6.0-4.23","2731826","co37909","norming","","","","","","",""
"null","../img/tt/1228tt.jpg","null","mooney2","image-keyboard-response","172","657639","0.0-6.0-5.23","2731826","co37909","norming","","","","","","",""
"2711.844999983441","","","post_reveal_questions","survey-likert","173","660352","0.0-6.0-6.23","2731826","co37909","norming","","","{""aha"":2}","[0]","../img/tt/1228tt.jpg","",""
"null","<div style=""font-size:60px;""> </div>","null","fixation","html-keyboard-response","174","660554","0.0-6.0-0.24","2731826","co37909","norming","","","","","","",""
"null","../img/tt/079tt.jpg","null","mooney1","image-keyboard-response","175","663571","0.0-6.0-1.24","2731826","co37909","norming","","","","","","",""
"5816.229999996722","","","post_mooney1_questions","survey-likert","176","669390","0.0-6.0-2.24","2731826","co37909","norming","","","{""curiosity"":1,""confidence"":3}","[0,1]","../img/tt/079tt.jpg","",""
"3622.6499999756925","","","recognition","survey-text","177","673015","0.0-6.0-3.24","2731826","co37909","norming","","","{""guess"":""een beer""}","","../img/tt/079tt.jpg","",""
"null","../img/gs/079gs.jpg","null","reveal","image-keyboard-response","178","675028","0.0-6.0-4.24","2731826","co37909","norming","","","","","","",""
"null","../img/tt/079tt.jpg","null","mooney2","image-keyboard-response","179","677037","0.0-6.0-5.24","2731826","co37909","norming","","","","","","",""
"3198.7300000037067","","","post_reveal_questions","survey-likert","180","680239","0.0-6.0-6.24","2731826","co37909","norming","","","{""aha"":2}","[0]","../img/tt/079tt.jpg","",""
"null","<div style=""font-size:60px;""> </div>","null","fixation","html-keyboard-response","181","680440","0.0-6.0-0.25","2731826","co37909","norming","","","","","","",""
"null","../img/tt/036tt.jpg","null","mooney1","image-keyboard-response","182","683444","0.0-6.0-1.25","2731826","co37909","norming","","","","","","",""
"4959.289999969769","","","post_mooney1_questions","survey-likert","183","688405","0.0-6.0-2.25","2731826","co37909","norming","","","{""curiosity"":5,""confidence"":0}","[0,1]","../img/tt/036tt.jpg","",""
"533.7149999686517","","","recognition","survey-text","184","688941","0.0-6.0-3.25","2731826","co37909","norming","","","{""guess"":""""}","","../img/tt/036tt.jpg","",""
"null","../img/gs/036gs.jpg","null","reveal","image-keyboard-response","185","690943","0.0-6.0-4.25","2731826","co37909","norming","","","","","","",""
"null","../img/tt/036tt.jpg","null","mooney2","image-keyboard-response","186","692946","0.0-6.0-5.25","2731826","co37909","norming","","","","","","",""
"2746.4050000417046","","","post_reveal_questions","survey-likert","187","695694","0.0-6.0-6.25","2731826","co37909","norming","","","{""aha"":4}","[0]","../img/tt/036tt.jpg","",""
"null","<div style=""font-size:60px;""> </div>","null","fixation","html-keyboard-response","188","695896","0.0-6.0-0.26","2731826","co37909","norming","","","","","","",""
"null","../img/tt/1116tt.jpg","null","mooney1","image-keyboard-response","189","698899","0.0-6.0-1.26","2731826","co37909","norming","","","","","","",""
"3961.5150000317954","","","post_mooney1_questions","survey-likert","190","702862","0.0-6.0-2.26","2731826","co37909","norming","","","{""curiosity"":3,""confidence"":2}","[0,1]","../img/tt/1116tt.jpg","",""
"2159.0300000389107","","","recognition","survey-text","191","705023","0.0-6.0-3.26","2731826","co37909","norming","","","{""guess"":""een auto""}","","../img/tt/1116tt.jpg","",""
"null","../img/gs/1116gs.jpg","null","reveal","image-keyboard-response","192","707025","0.0-6.0-4.26","2731826","co37909","norming","","","","","","",""
"null","../img/tt/1116tt.jpg","null","mooney2","image-keyboard-response","193","709028","0.0-6.0-5.26","2731826","co37909","norming","","","","","","",""
"6024.075000023004","","","post_reveal_questions","survey-likert","194","715055","0.0-6.0-6.26","2731826","co37909","norming","","","{""aha"":2}","[0]","../img/tt/1116tt.jpg","",""
"null","<div style=""font-size:60px;""> </div>","null","fixation","html-keyboard-response","195","715265","0.0-6.0-0.27","2731826","co37909","norming","","","","","","",""
"null","../img/tt/358tt.jpg","null","mooney1","image-keyboard-response","196","718280","0.0-6.0-1.27","2731826","co37909","norming","","","","","","",""
"4349.4250000221655","","","post_mooney1_questions","survey-likert","197","722630","0.0-6.0-2.27","2731826","co37909","norming","","","{""curiosity"":4,""confidence"":0}","[0,1]","../img/tt/358tt.jpg","",""
"910.2049999637529","","","recognition","survey-text","198","723542","0.0-6.0-3.27","2731826","co37909","norming","","","{""guess"":""""}","","../img/tt/358tt.jpg","",""
"null","../img/gs/358gs.jpg","null","reveal","image-keyboard-response","199","725544","0.0-6.0-4.27","2731826","co37909","norming","","","","","","",""
"null","../img/tt/358tt.jpg","null","mooney2","image-keyboard-response","200","727547","0.0-6.0-5.27","2731826","co37909","norming","","","","","","",""
"4513.4950000210665","","","post_reveal_questions","survey-likert","201","732063","0.0-6.0-6.27","2731826","co37909","norming","","","{""aha"":3}","[0]","../img/tt/358tt.jpg","",""
"null","<div style=""font-size:60px;""> </div>","null","fixation","html-keyboard-response","202","732264","0.0-6.0-0.28","2731826","co37909","norming","","","","","","",""
"null","../img/tt/1049tt.jpg","null","mooney1","image-keyboard-response","203","735267","0.0-6.0-1.28","2731826","co37909","norming","","","","","","",""
"4466.7049999698065","","","post_mooney1_questions","survey-likert","204","739735","0.0-6.0-2.28","2731826","co37909","norming","","","{""curiosity"":3,""confidence"":0}","[0,1]","../img/tt/1049tt.jpg","",""
"732.7900000382215","","","recognition","survey-text","205","740469","0.0-6.0-3.28","2731826","co37909","norming","","","{""guess"":""""}","","../img/tt/1049tt.jpg","",""
"null","../img/gs/1049gs.jpg","null","reveal","image-keyboard-response","206","742471","0.0-6.0-4.28","2731826","co37909","norming","","","","","","",""
"null","../img/tt/1049tt.jpg","null","mooney2","image-keyboard-response","207","744494","0.0-6.0-5.28","2731826","co37909","norming","","","","","","",""
"6109.404999995604","","","post_reveal_questions","survey-likert","208","750605","0.0-6.0-6.28","2731826","co37909","norming","","","{""aha"":1}","[0]","../img/tt/1049tt.jpg","",""
"null","<div style=""font-size:60px;""> </div>","null","fixation","html-keyboard-response","209","750815","0.0-6.0-0.29","2731826","co37909","norming","","","","","","",""
"null","../img/tt/1004tt.jpg","null","mooney1","image-keyboard-response","210","753827","0.0-6.0-1.29","2731826","co37909","norming","","","","","","",""
"4906.260000017937","","","post_mooney1_questions","survey-likert","211","758735","0.0-6.0-2.29","2731826","co37909","norming","","","{""curiosity"":3,""confidence"":2}","[0,1]","../img/tt/1004tt.jpg","",""
"3548.769999993965","","","recognition","survey-text","212","762285","0.0-6.0-3.29","2731826","co37909","norming","","","{""guess"":""een weide""}","","../img/tt/1004tt.jpg","",""
"null","../img/gs/1004gs.jpg","null","reveal","image-keyboard-response","213","764297","0.0-6.0-4.29","2731826","co37909","norming","","","","","","",""
"null","../img/tt/1004tt.jpg","null","mooney2","image-keyboard-response","214","766312","0.0-6.0-5.29","2731826","co37909","norming","","","","","","",""
"4781.59999998752","","","post_reveal_questions","survey-likert","215","771095","0.0-6.0-6.29","2731826","co37909","norming","","","{""aha"":4}","[0]","../img/tt/1004tt.jpg","",""
"null","<div style=""font-size:60px;""> </div>","null","fixation","html-keyboard-response","216","771296","0.0-6.0-0.30","2731826","co37909","norming","","","","","","",""
"null","../img/tt/096tt.jpg","null","mooney1","image-keyboard-response","217","774299","0.0-6.0-1.30","2731826","co37909","norming","","","","","","",""
"4598.6249999841675","","","post_mooney1_questions","survey-likert","218","778901","0.0-6.0-2.30","2731826","co37909","norming","","","{""curiosity"":1,""confidence"":5}","[0,1]","../img/tt/096tt.jpg","",""
"5271.9550000038","","","recognition","survey-text","219","784174","0.0-6.0-3.30","2731826","co37909","norming","","","{""guess"":""een piano""}","","../img/tt/096tt.jpg","",""
"null","../img/gs/096gs.jpg","null","reveal","image-keyboard-response","220","786180","0.0-6.0-4.30","2731826","co37909","norming","","","","","","",""
"null","../img/tt/096tt.jpg","null","mooney2","image-keyboard-response","221","788196","0.0-6.0-5.30","2731826","co37909","norming","","","","","","",""
"3479.2149999993853","","","post_reveal_questions","survey-likert","222","791678","0.0-6.0-6.30","2731826","co37909","norming","","","{""aha"":0}","[0]","../img/tt/096tt.jpg","",""
"null","<div style=""font-size:60px;""> </div>","null","fixation","html-keyboard-response","223","791879","0.0-6.0-0.31","2731826","co37909","norming","","","","","","",""
"null","../img/tt/094tt.jpg","null","mooney1","image-keyboard-response","224","794888","0.0-6.0-1.31","2731826","co37909","norming","","","","","","",""
"4459.819999989122","","","post_mooney1_questions","survey-likert","225","799351","0.0-6.0-2.31","2731826","co37909","norming","","","{""curiosity"":3,""confidence"":1}","[0,1]","../img/tt/094tt.jpg","",""
"5294.134999974631","","","recognition","survey-text","226","804647","0.0-6.0-3.31","2731826","co37909","norming","","","{""guess"":""een dier""}","","../img/tt/094tt.jpg","",""
"null","../img/gs/094gs.jpg","null","reveal","image-keyboard-response","227","806652","0.0-6.0-4.31","2731826","co37909","norming","","","","","","",""
"null","../img/tt/094tt.jpg","null","mooney2","image-keyboard-response","228","808654","0.0-6.0-5.31","2731826","co37909","norming","","","","","","",""
"2924.769999983255","","","post_reveal_questions","survey-likert","229","811581","0.0-6.0-6.31","2731826","co37909","norming","","","{""aha"":1}","[0]","../img/tt/094tt.jpg","",""
"null","<div style=""font-size:60px;""> </div>","null","fixation","html-keyboard-response","230","811782","0.0-6.0-0.32","2731826","co37909","norming","","","","","","",""
"null","../img/tt/357tt.jpg","null","mooney1","image-keyboard-response","231","814796","0.0-6.0-1.32","2731826","co37909","norming","","","","","","",""
"4160.604999982752","","","post_mooney1_questions","survey-likert","232","818959","0.0-6.0-2.32","2731826","co37909","norming","","","{""curiosity"":2,""confidence"":2}","[0,1]","../img/tt/357tt.jpg","",""
"4116.394999960903","","","recognition","survey-text","233","823077","0.0-6.0-3.32","2731826","co37909","norming","","","{""guess"":""een vogel""}","","../img/tt/357tt.jpg","",""
"null","../img/gs/357gs.jpg","null","reveal","image-keyboard-response","234","825080","0.0-6.0-4.32","2731826","co37909","norming","","","","","","",""
"null","../img/tt/357tt.jpg","null","mooney2","image-keyboard-response","235","827089","0.0-6.0-5.32","2731826","co37909","norming","","","","","","",""
"3276.914999994915","","","post_reveal_questions","survey-likert","236","830367","0.0-6.0-6.32","2731826","co37909","norming","","","{""aha"":3}","[0]","../img/tt/357tt.jpg","",""
"null","<div style=""font-size:60px;""> </div>","null","fixation","html-keyboard-response","237","830568","0.0-6.0-0.33","2731826","co37909","norming","","","","","","",""
"null","../img/tt/1123tt.jpg","null","mooney1","image-keyboard-response","238","833571","0.0-6.0-1.33","2731826","co37909","norming","","","","","","",""
"4400.354999990668","","","post_mooney1_questions","survey-likert","239","837975","0.0-6.0-2.33","2731826","co37909","norming","","","{""curiosity"":4,""confidence"":2}","[0,1]","../img/tt/1123tt.jpg","",""
"6245.895000000019","","","recognition","survey-text","240","844222","0.0-6.0-3.33","2731826","co37909","norming","","","{""guess"":""een speler""}","","../img/tt/1123tt.jpg","",""
"null","../img/gs/1123gs.jpg","null","reveal","image-keyboard-response","241","846225","0.0-6.0-4.33","2731826","co37909","norming","","","","","","",""
"null","../img/tt/1123tt.jpg","null","mooney2","image-keyboard-response","242","848238","0.0-6.0-5.33","2731826","co37909","norming","","","","","","",""
"3246.7450000112876","","","post_reveal_questions","survey-likert","243","851486","0.0-6.0-6.33","2731826","co37909","norming","","","{""aha"":1}","[0]","../img/tt/1123tt.jpg","",""
"null","<div style=""font-size:60px;""> </div>","null","fixation","html-keyboard-response","244","851688","0.0-6.0-0.34","2731826","co37909","norming","","","","","","",""
"null","../img/tt/098tt.jpg","null","mooney1","image-keyboard-response","245","854701","0.0-6.0-1.34","2731826","co37909","norming","","","","","","",""
"3620.9800000069663","","","post_mooney1_questions","survey-likert","246","858325","0.0-6.0-2.34","2731826","co37909","norming","","","{""curiosity"":4,""confidence"":0}","[0,1]","../img/tt/098tt.jpg","",""
"782.9800000181422","","","recognition","survey-text","247","859109","0.0-6.0-3.34","2731826","co37909","norming","","","{""guess"":""""}","","../img/tt/098tt.jpg","",""
"null","../img/gs/098gs.jpg","null","reveal","image-keyboard-response","248","861123","0.0-6.0-4.34","2731826","co37909","norming","","","","","","",""
"null","../img/tt/098tt.jpg","null","mooney2","image-keyboard-response","249","863124","0.0-6.0-5.34","2731826","co37909","norming","","","","","","",""
"2864.2650000401773","","","post_reveal_questions","survey-likert","250","865989","0.0-6.0-6.34","2731826","co37909","norming","","","{""aha"":3}","[0]","../img/tt/098tt.jpg","",""
"null","<div style=""font-size:60px;""> </div>","null","fixation","html-keyboard-response","251","866191","0.0-6.0-0.35","2731826","co37909","norming","","","","","","",""
"null","../img/tt/1275tt.jpg","null","mooney1","image-keyboard-response","252","869205","0.0-6.0-1.35","2731826","co37909","norming","","","","","","",""
"5166.445000038948","","","post_mooney1_questions","survey-likert","253","874374","0.0-6.0-2.35","2731826","co37909","norming","","","{""curiosity"":5,""confidence"":2}","[0,1]","../img/tt/1275tt.jpg","",""
"4838.134999969043","","","recognition","survey-text","254","879214","0.0-6.0-3.35","2731826","co37909","norming","","","{""guess"":""rotswand""}","","../img/tt/1275tt.jpg","",""
"null","../img/gs/1275gs.jpg","null","reveal","image-keyboard-response","255","881236","0.0-6.0-4.35","2731826","co37909","norming","","","","","","",""
"null","../img/tt/1275tt.jpg","null","mooney2","image-keyboard-response","256","883242","0.0-6.0-5.35","2731826","co37909","norming","","","","","","",""
"3258.0050000105985","","","post_reveal_questions","survey-likert","257","886502","0.0-6.0-6.35","2731826","co37909","norming","","","{""aha"":4}","[0]","../img/tt/1275tt.jpg","",""
"null","<div style=""font-size:60px;""> </div>","null","fixation","html-keyboard-response","258","886704","0.0-6.0-0.36","2731826","co37909","norming","","","","","","",""
"null","../img/tt/1151tt.jpg","null","mooney1","image-keyboard-response","259","889709","0.0-6.0-1.36","2731826","co37909","norming","","","","","","",""
"6062.3349999659695","","","post_mooney1_questions","survey-likert","260","895775","0.0-6.0-2.36","2731826","co37909","norming","","","{""curiosity"":2,""confidence"":0}","[0,1]","../img/tt/1151tt.jpg","",""
"756.7999999737367","","","recognition","survey-text","261","896533","0.0-6.0-3.36","2731826","co37909","norming","","","{""guess"":""""}","","../img/tt/1151tt.jpg","",""
"null","../img/gs/1151gs.jpg","null","reveal","image-keyboard-response","262","898542","0.0-6.0-4.36","2731826","co37909","norming","","","","","","",""
"null","../img/tt/1151tt.jpg","null","mooney2","image-keyboard-response","263","900543","0.0-6.0-5.36","2731826","co37909","norming","","","","","","",""
"4053.6399999982677","","","post_reveal_questions","survey-likert","264","904598","0.0-6.0-6.36","2731826","co37909","norming","","","{""aha"":5}","[0]","../img/tt/1151tt.jpg","",""
"null","<div style=""font-size:60px;""> </div>","null","fixation","html-keyboard-response","265","904814","0.0-6.0-0.37","2731826","co37909","norming","","","","","","",""
"null","../img/tt/020tt.jpg","null","mooney1","image-keyboard-response","266","907821","0.0-6.0-1.37","2731826","co37909","norming","","","","","","",""
"4556.359999987762","","","post_mooney1_questions","survey-likert","267","912381","0.0-6.0-2.37","2731826","co37909","norming","","","{""curiosity"":4,""confidence"":2}","[0,1]","../img/tt/020tt.jpg","",""
"3998.714999994263","","","recognition","survey-text","268","916381","0.0-6.0-3.37","2731826","co37909","norming","","","{""guess"":""een mens""}","","../img/tt/020tt.jpg","",""
"null","../img/gs/020gs.jpg","null","reveal","image-keyboard-response","269","918382","0.0-6.0-4.37","2731826","co37909","norming","","","","","","",""
"null","../img/tt/020tt.jpg","null","mooney2","image-keyboard-response","270","920383","0.0-6.0-5.37","2731826","co37909","norming","","","","","","",""
"3867.1099999919534","","","post_reveal_questions","survey-likert","271","924253","0.0-6.0-6.37","2731826","co37909","norming","","","{""aha"":0}","[0]","../img/tt/020tt.jpg","",""
"null","<div style=""font-size:60px;""> </div>","null","fixation","html-keyboard-response","272","924454","0.0-6.0-0.38","2731826","co37909","norming","","","","","","",""
"null","../img/tt/1186tt.jpg","null","mooney1","image-keyboard-response","273","927474","0.0-6.0-1.38","2731826","co37909","norming","","","","","","",""
"4562.525000015739","","","post_mooney1_questions","survey-likert","274","932037","0.0-6.0-2.38","2731826","co37909","norming","","","{""curiosity"":3,""confidence"":4}","[0,1]","../img/tt/1186tt.jpg","",""
"2038.9300000388175","","","recognition","survey-text","275","934078","0.0-6.0-3.38","2731826","co37909","norming","","","{""guess"":""een mens""}","","../img/tt/1186tt.jpg","",""
"null","../img/gs/1186gs.jpg","null","reveal","image-keyboard-response","276","936101","0.0-6.0-4.38","2731826","co37909","norming","","","","","","",""
"null","../img/tt/1186tt.jpg","null","mooney2","image-keyboard-response","277","938106","0.0-6.0-5.38","2731826","co37909","norming","","","","","","",""
"2697.6249999715947","","","post_reveal_questions","survey-likert","278","940807","0.0-6.0-6.38","2731826","co37909","norming","","","{""aha"":2}","[0]","../img/tt/1186tt.jpg","",""
"null","<div style=""font-size:60px;""> </div>","null","fixation","html-keyboard-response","279","941009","0.0-6.0-0.39","2731826","co37909","norming","","","","","","",""
"null","../img/tt/584tt.jpg","null","mooney1","image-keyboard-response","280","944025","0.0-6.0-1.39","2731826","co37909","norming","","","","","","",""
"6314.734999963548","","","post_mooney1_questions","survey-likert","281","950343","0.0-6.0-2.39","2731826","co37909","norming","","","{""curiosity"":2,""confidence"":4}","[0,1]","../img/tt/584tt.jpg","",""
"2790.0399999925867","","","recognition","survey-text","282","953134","0.0-6.0-3.39","2731826","co37909","norming","","","{""guess"":""gereedschap""}","","../img/tt/584tt.jpg","",""
"null","../img/gs/584gs.jpg","null","reveal","image-keyboard-response","283","955139","0.0-6.0-4.39","2731826","co37909","norming","","","","","","",""
"null","../img/tt/584tt.jpg","null","mooney2","image-keyboard-response","284","957145","0.0-6.0-5.39","2731826","co37909","norming","","","","","","",""
"2466.164999990724","","","post_reveal_questions","survey-likert","285","959614","0.0-6.0-6.39","2731826","co37909","norming","","","{""aha"":0}","[0]","../img/tt/584tt.jpg","",""
"null","<div style=""font-size:60px;""> </div>","null","fixation","html-keyboard-response","286","959815","0.0-6.0-0.40","2731826","co37909","norming","","","","","","",""
"null","../img/tt/534tt.jpg","null","mooney1","image-keyboard-response","287","962817","0.0-6.0-1.40","2731826","co37909","norming","","","","","","",""
"7315.304999996442","","","post_mooney1_questions","survey-likert","288","970135","0.0-6.0-2.40","2731826","co37909","norming","","","{""curiosity"":3,""confidence"":0}","[0,1]","../img/tt/534tt.jpg","",""
"757.6750000007451","","","recognition","survey-text","289","970894","0.0-6.0-3.40","2731826","co37909","norming","","","{""guess"":""""}","","../img/tt/534tt.jpg","",""
"null","../img/gs/534gs.jpg","null","reveal","image-keyboard-response","290","972904","0.0-6.0-4.40","2731826","co37909","norming","","","","","","",""
"null","../img/tt/534tt.jpg","null","mooney2","image-keyboard-response","291","974906","0.0-6.0-5.40","2731826","co37909","norming","","","","","","",""
"2482.3149999720044","","","post_reveal_questions","survey-likert","292","977389","0.0-6.0-6.40","2731826","co37909","norming","","","{""aha"":3}","[0]","../img/tt/534tt.jpg","",""
"null","<div style=""font-size:60px;""> </div>","null","fixation","html-keyboard-response","293","977600","0.0-6.0-0.41","2731826","co37909","norming","","","","","","",""
"null","../img/tt/1226tt.jpg","null","mooney1","image-keyboard-response","294","980610","0.0-6.0-1.41","2731826","co37909","norming","","","","","","",""
"4744.739999994636","","","post_mooney1_questions","survey-likert","295","985357","0.0-6.0-2.41","2731826","co37909","norming","","","{""curiosity"":3,""confidence"":5}","[0,1]","../img/tt/1226tt.jpg","",""
"6189.379999996163","","","recognition","survey-text","296","991550","0.0-6.0-3.41","2731826","co37909","norming","","","{""guess"":""een zwaan""}","","../img/tt/1226tt.jpg","",""
"null","../img/gs/1226gs.jpg","null","reveal","image-keyboard-response","297","993551","0.0-6.0-4.41","2731826","co37909","norming","","","","","","",""
"null","../img/tt/1226tt.jpg","null","mooney2","image-keyboard-response","298","995555","0.0-6.0-5.41","2731826","co37909","norming","","","","","","",""
"2511.7500000051223","","","post_reveal_questions","survey-likert","299","998070","0.0-6.0-6.41","2731826","co37909","norming","","","{""aha"":3}","[0]","../img/tt/1226tt.jpg","",""
"null","<div style=""font-size:60px;""> </div>","null","fixation","html-keyboard-response","300","998271","0.0-6.0-0.42","2731826","co37909","norming","","","","","","",""
"null","../img/tt/1250tt.jpg","null","mooney1","image-keyboard-response","301","1001281","0.0-6.0-1.42","2731826","co37909","norming","","","","","","",""
"4474.625000031665","","","post_mooney1_questions","survey-likert","302","1005759","0.0-6.0-2.42","2731826","co37909","norming","","","{""curiosity"":4,""confidence"":1}","[0,1]","../img/tt/1250tt.jpg","",""
"3198.964999988675","","","recognition","survey-text","303","1008959","0.0-6.0-3.42","2731826","co37909","norming","","","{""guess"":""iets met water""}","","../img/tt/1250tt.jpg","",""
"null","../img/gs/1250gs.jpg","null","reveal","image-keyboard-response","304","1010962","0.0-6.0-4.42","2731826","co37909","norming","","","","","","",""
"null","../img/tt/1250tt.jpg","null","mooney2","image-keyboard-response","305","1012971","0.0-6.0-5.42","2731826","co37909","norming","","","","","","",""
"5224.560000002384","","","post_reveal_questions","survey-likert","306","1018198","0.0-6.0-6.42","2731826","co37909","norming","","","{""aha"":0}","[0]","../img/tt/1250tt.jpg","",""
"null","<div style=""font-size:60px;""> </div>","null","fixation","html-keyboard-response","307","1018400","0.0-6.0-0.43","2731826","co37909","norming","","","","","","",""
"null","../img/tt/1107tt.jpg","null","mooney1","image-keyboard-response","308","1021403","0.0-6.0-1.43","2731826","co37909","norming","","","","","","",""
"6818.7350000371225","","","post_mooney1_questions","survey-likert","309","1028223","0.0-6.0-2.43","2731826","co37909","norming","","","{""curiosity"":5,""confidence"":4}","[0,1]","../img/tt/1107tt.jpg","",""
"2997.8899999987334","","","recognition","survey-text","310","1031222","0.0-6.0-3.43","2731826","co37909","norming","","","{""guess"":""een kat""}","","../img/tt/1107tt.jpg","",""
"null","../img/gs/1107gs.jpg","null","reveal","image-keyboard-response","311","1033228","0.0-6.0-4.43","2731826","co37909","norming","","","","","","",""
"null","../img/tt/1107tt.jpg","null","mooney2","image-keyboard-response","312","1035232","0.0-6.0-5.43","2731826","co37909","norming","","","","","","",""
"4061.2749999854714","","","post_reveal_questions","survey-likert","313","1039294","0.0-6.0-6.43","2731826","co37909","norming","","","{""aha"":0}","[0]","../img/tt/1107tt.jpg","",""
"null","<div style=""font-size:60px;""> </div>","null","fixation","html-keyboard-response","314","1039495","0.0-6.0-0.44","2731826","co37909","norming","","","","","","",""
"null","../img/tt/135tt.jpg","null","mooney1","image-keyboard-response","315","1042499","0.0-6.0-1.44","2731826","co37909","norming","","","","","","",""
"3887.899999972433","","","post_mooney1_questions","survey-likert","316","1046390","0.0-6.0-2.44","2731826","co37909","norming","","","{""curiosity"":3,""confidence"":5}","[0,1]","../img/tt/135tt.jpg","",""
"3798.595000000205","","","recognition","survey-text","317","1050191","0.0-6.0-3.44","2731826","co37909","norming","","","{""guess"":""een wcbril""}","","../img/tt/135tt.jpg","",""
"null","../img/gs/135gs.jpg","null","reveal","image-keyboard-response","318","1052193","0.0-6.0-4.44","2731826","co37909","norming","","","","","","",""
"null","../img/tt/135tt.jpg","null","mooney2","image-keyboard-response","319","1054197","0.0-6.0-5.44","2731826","co37909","norming","","","","","","",""
"2408.1049999804236","","","post_reveal_questions","survey-likert","320","1056607","0.0-6.0-6.44","2731826","co37909","norming","","","{""aha"":2}","[0]","../img/tt/135tt.jpg","",""
"null","<div style=""font-size:60px;""> </div>","null","fixation","html-keyboard-response","321","1056822","0.0-6.0-0.45","2731826","co37909","norming","","","","","","",""
"null","../img/tt/1232tt.jpg","null","mooney1","image-keyboard-response","322","1059831","0.0-6.0-1.45","2731826","co37909","norming","","","","","","",""
"5666.529999987688","","","post_mooney1_questions","survey-likert","323","1065501","0.0-6.0-2.45","2731826","co37909","norming","","","{""curiosity"":5,""confidence"":1}","[0,1]","../img/tt/1232tt.jpg","",""
"2624.0450000041164","","","recognition","survey-text","324","1068126","0.0-6.0-3.45","2731826","co37909","norming","","","{""guess"":""een straat""}","","../img/tt/1232tt.jpg","",""
"null","../img/gs/1232gs.jpg","null","reveal","image-keyboard-response","325","1070128","0.0-6.0-4.45","2731826","co37909","norming","","","","","","",""
"null","../img/tt/1232tt.jpg","null","mooney2","image-keyboard-response","326","1072131","0.0-6.0-5.45","2731826","co37909","norming","","","","","","",""
"2656.134999997448","","","post_reveal_questions","survey-likert","327","1074789","0.0-6.0-6.45","2731826","co37909","norming","","","{""aha"":5}","[0]","../img/tt/1232tt.jpg","",""
"null","<div style=""font-size:60px;""> </div>","null","fixation","html-keyboard-response","328","1074990","0.0-6.0-0.46","2731826","co37909","norming","","","","","","",""
"null","../img/tt/007tt.jpg","null","mooney1","image-keyboard-response","329","1078004","0.0-6.0-1.46","2731826","co37909","norming","","","","","","",""
"5783.2000000053085","","","post_mooney1_questions","survey-likert","330","1083790","0.0-6.0-2.46","2731826","co37909","norming","","","{""curiosity"":5,""confidence"":4}","[0,1]","../img/tt/007tt.jpg","",""
"2052.940000023227","","","recognition","survey-text","331","1085845","0.0-6.0-3.46","2731826","co37909","norming","","","{""guess"":""een slang""}","","../img/tt/007tt.jpg","",""
"null","../img/gs/007gs.jpg","null","reveal","image-keyboard-response","332","1087848","0.0-6.0-4.46","2731826","co37909","norming","","","","","","",""
"null","../img/tt/007tt.jpg","null","mooney2","image-keyboard-response","333","1089855","0.0-6.0-5.46","2731826","co37909","norming","","","","","","",""
"3348.6599999596365","","","post_reveal_questions","survey-likert","334","1093206","0.0-6.0-6.46","2731826","co37909","norming","","","{""aha"":1}","[0]","../img/tt/007tt.jpg","",""
"null","<div style=""font-size:60px;""> </div>","null","fixation","html-keyboard-response","335","1093409","0.0-6.0-0.47","2731826","co37909","norming","","","","","","",""
"null","../img/tt/580tt.jpg","null","mooney1","image-keyboard-response","336","1096412","0.0-6.0-1.47","2731826","co37909","norming","","","","","","",""
"5238.979999965522","","","post_mooney1_questions","survey-likert","337","1101654","0.0-6.0-2.47","2731826","co37909","norming","","","{""curiosity"":0,""confidence"":0}","[0,1]","../img/tt/580tt.jpg","",""
"1382.1849999949336","","","recognition","survey-text","338","1103038","0.0-6.0-3.47","2731826","co37909","norming","","","{""guess"":""""}","","../img/tt/580tt.jpg","",""
"null","../img/gs/580gs.jpg","null","reveal","image-keyboard-response","339","1105039","0.0-6.0-4.47","2731826","co37909","norming","","","","","","",""
"null","../img/tt/580tt.jpg","null","mooney2","image-keyboard-response","340","1107041","0.0-6.0-5.47","2731826","co37909","norming","","","","","","",""
"1753.534999967087","","","post_reveal_questions","survey-likert","341","1108798","0.0-6.0-6.47","2731826","co37909","norming","","","{""aha"":4}","[0]","../img/tt/580tt.jpg","",""
"null","<div style=""font-size:60px;""> </div>","null","fixation","html-keyboard-response","342","1109015","0.0-6.0-0.48","2731826","co37909","norming","","","","","","",""
"null","../img/tt/1146tt.jpg","null","mooney1","image-keyboard-response","343","1112018","0.0-6.0-1.48","2731826","co37909","norming","","","","","","",""
"5447.769999969751","","","post_mooney1_questions","survey-likert","344","1117469","0.0-6.0-2.48","2731826","co37909","norming","","","{""curiosity"":4,""confidence"":3}","[0,1]","../img/tt/1146tt.jpg","",""
"8614.969999995083","","","recognition","survey-text","345","1126082","0.0-6.0-3.48","2731826","co37909","norming","","","{""guess"":""een kanaal""}","","../img/tt/1146tt.jpg","",""
"null","../img/gs/1146gs.jpg","null","reveal","image-keyboard-response","346","1128085","0.0-6.0-4.48","2731826","co37909","norming","","","","","","",""
"null","../img/tt/1146tt.jpg","null","mooney2","image-keyboard-response","347","1130092","0.0-6.0-5.48","2731826","co37909","norming","","","","","","",""
"3836.234999995213","","","post_reveal_questions","survey-likert","348","1133929","0.0-6.0-6.48","2731826","co37909","norming","","","{""aha"":3}","[0]","../img/tt/1146tt.jpg","",""
"null","<div style=""font-size:60px;""> </div>","null","fixation","html-keyboard-response","349","1134131","0.0-6.0-0.49","2731826","co37909","norming","","","","","","",""
"null","../img/tt/329tt.jpg","null","mooney1","image-keyboard-response","350","1137144","0.0-6.0-1.49","2731826","co37909","norming","","","","","","",""
"4071.4349999907427","","","post_mooney1_questions","survey-likert","351","1141218","0.0-6.0-2.49","2731826","co37909","norming","","","{""curiosity"":2,""confidence"":0}","[0,1]","../img/tt/329tt.jpg","",""
"1268.6150000081398","","","recognition","survey-text","352","1142489","0.0-6.0-3.49","2731826","co37909","norming","","","{""guess"":""""}","","../img/tt/329tt.jpg","",""
"null","../img/gs/329gs.jpg","null","reveal","image-keyboard-response","353","1144502","0.0-6.0-4.49","2731826","co37909","norming","","","","","","",""
"null","../img/tt/329tt.jpg","null","mooney2","image-keyboard-response","354","1146506","0.0-6.0-5.49","2731826","co37909","norming","","","","","","",""
"3948.020000010729","","","post_reveal_questions","survey-likert","355","1150457","0.0-6.0-6.49","2731826","co37909","norming","","","{""aha"":2}","[0]","../img/tt/329tt.jpg","",""
"null","<div style=""font-size:60px;""> </div>","null","fixation","html-keyboard-response","356","1150660","0.0-6.0-0.50","2731826","co37909","norming","","","","","","",""
"null","../img/tt/1247tt.jpg","null","mooney1","image-keyboard-response","357","1153663","0.0-6.0-1.50","2731826","co37909","norming","","","","","","",""
"33554.24500000663","","","post_mooney1_questions","survey-likert","358","1187223","0.0-6.0-2.50","2731826","co37909","norming","","","{""curiosity"":3,""confidence"":0}","[0,1]","../img/tt/1247tt.jpg","",""
"533.6000000243075","","","recognition","survey-text","359","1187758","0.0-6.0-3.50","2731826","co37909","norming","","","{""guess"":""""}","","../img/tt/1247tt.jpg","",""
"null","../img/gs/1247gs.jpg","null","reveal","image-keyboard-response","360","1189760","0.0-6.0-4.50","2731826","co37909","norming","","","","","","",""
"null","../img/tt/1247tt.jpg","null","mooney2","image-keyboard-response","361","1191762","0.0-6.0-5.50","2731826","co37909","norming","","","","","","",""
"3768.485000007786","","","post_reveal_questions","survey-likert","362","1195533","0.0-6.0-6.50","2731826","co37909","norming","","","{""aha"":2}","[0]","../img/tt/1247tt.jpg","",""
"null","<div style=""font-size:60px;""> </div>","null","fixation","html-keyboard-response","363","1195735","0.0-6.0-0.51","2731826","co37909","norming","","","","","","",""
"null","../img/tt/1173tt.jpg","null","mooney1","image-keyboard-response","364","1198759","0.0-6.0-1.51","2731826","co37909","norming","","","","","","",""
"5667.365000001155","","","post_mooney1_questions","survey-likert","365","1204430","0.0-6.0-2.51","2731826","co37909","norming","","","{""curiosity"":2,""confidence"":4}","[0,1]","../img/tt/1173tt.jpg","",""
"5222.8350000223145","","","recognition","survey-text","366","1209654","0.0-6.0-3.51","2731826","co37909","norming","","","{""guess"":""spelende mensen""}","","../img/tt/1173tt.jpg","",""
"null","../img/gs/1173gs.jpg","null","reveal","image-keyboard-response","367","1211655","0.0-6.0-4.51","2731826","co37909","norming","","","","","","",""
"null","../img/tt/1173tt.jpg","null","mooney2","image-keyboard-response","368","1213668","0.0-6.0-5.51","2731826","co37909","norming","","","","","","",""
"3136.0749999876134","","","post_reveal_questions","survey-likert","369","1216806","0.0-6.0-6.51","2731826","co37909","norming","","","{""aha"":3}","[0]","../img/tt/1173tt.jpg","",""
"null","<div style=""font-size:60px;""> </div>","null","fixation","html-keyboard-response","370","1217007","0.0-6.0-0.52","2731826","co37909","norming","","","","","","",""
"null","../img/tt/552tt.jpg","null","mooney1","image-keyboard-response","371","1220012","0.0-6.0-1.52","2731826","co37909","norming","","","","","","",""
"4590.389999968465","","","post_mooney1_questions","survey-likert","372","1224606","0.0-6.0-2.52","2731826","co37909","norming","","","{""curiosity"":3,""confidence"":4}","[0,1]","../img/tt/552tt.jpg","",""
"2431.2799999606796","","","recognition","survey-text","373","1227038","0.0-6.0-3.52","2731826","co37909","norming","","","{""guess"":""een vlinder""}","","../img/tt/552tt.jpg","",""
"null","../img/gs/552gs.jpg","null","reveal","image-keyboard-response","374","1229041","0.0-6.0-4.52","2731826","co37909","norming","","","","","","",""
"null","../img/tt/552tt.jpg","null","mooney2","image-keyboard-response","375","1231045","0.0-6.0-5.52","2731826","co37909","norming","","","","","","",""
"2990.7149999635294","","","post_reveal_questions","survey-likert","376","1234038","0.0-6.0-6.52","2731826","co37909","norming","","","{""aha"":3}","[0]","../img/tt/552tt.jpg","",""
"null","<div style=""font-size:60px;""> </div>","null","fixation","html-keyboard-response","377","1234241","0.0-6.0-0.53","2731826","co37909","norming","","","","","","",""
"null","../img/tt/1044tt.jpg","null","mooney1","image-keyboard-response","378","1237248","0.0-6.0-1.53","2731826","co37909","norming","","","","","","",""
"4268.1699999957345","","","post_mooney1_questions","survey-likert","379","1241517","0.0-6.0-2.53","2731826","co37909","norming","","","{""curiosity"":4,""confidence"":0}","[0,1]","../img/tt/1044tt.jpg","",""
"598.2499999809079","","","recognition","survey-text","380","1242117","0.0-6.0-3.53","2731826","co37909","norming","","","{""guess"":""""}","","../img/tt/1044tt.jpg","",""
"null","../img/gs/1044gs.jpg","null","reveal","image-keyboard-response","381","1244124","0.0-6.0-4.53","2731826","co37909","norming","","","","","","",""
"null","../img/tt/1044tt.jpg","null","mooney2","image-keyboard-response","382","1246126","0.0-6.0-5.53","2731826","co37909","norming","","","","","","",""
"3126.54000002658","","","post_reveal_questions","survey-likert","383","1249254","0.0-6.0-6.53","2731826","co37909","norming","","","{""aha"":4}","[0]","../img/tt/1044tt.jpg","",""
"null","<div style=""font-size:60px;""> </div>","null","fixation","html-keyboard-response","384","1249470","0.0-6.0-0.54","2731826","co37909","norming","","","","","","",""
"null","../img/tt/1069tt.jpg","null","mooney1","image-keyboard-response","385","1252477","0.0-6.0-1.54","2731826","co37909","norming","","","","","","",""
"5983.004999987315","","","post_mooney1_questions","survey-likert","386","1258461","0.0-6.0-2.54","2731826","co37909","norming","","","{""curiosity"":3,""confidence"":3}","[0,1]","../img/tt/1069tt.jpg","",""
"1902.1649999776855","","","recognition","survey-text","387","1260365","0.0-6.0-3.54","2731826","co37909","norming","","","{""guess"":""dieren""}","","../img/tt/1069tt.jpg","",""
"null","../img/gs/1069gs.jpg","null","reveal","image-keyboard-response","388","1262367","0.0-6.0-4.54","2731826","co37909","norming","","","","","","",""
"null","../img/tt/1069tt.jpg","null","mooney2","image-keyboard-response","389","1264372","0.0-6.0-5.54","2731826","co37909","norming","","","","","","",""
"6118.235000001732","","","post_reveal_questions","survey-likert","390","1270493","0.0-6.0-6.54","2731826","co37909","norming","","","{""aha"":3}","[0]","../img/tt/1069tt.jpg","",""
"null","<div style=""font-size:60px;""> </div>","null","fixation","html-keyboard-response","391","1270710","0.0-6.0-0.55","2731826","co37909","norming","","","","","","",""
"null","../img/tt/1037tt.jpg","null","mooney1","image-keyboard-response","392","1273718","0.0-6.0-1.55","2731826","co37909","norming","","","","","","",""
"4421.69000004651","","","post_mooney1_questions","survey-likert","393","1278141","0.0-6.0-2.55","2731826","co37909","norming","","","{""curiosity"":4,""confidence"":4}","[0,1]","../img/tt/1037tt.jpg","",""
"2566.984999983106","","","recognition","survey-text","394","1280710","0.0-6.0-3.55","2731826","co37909","norming","","","{""guess"":""hond""}","","../img/tt/1037tt.jpg","",""
"null","../img/gs/1037gs.jpg","null","reveal","image-keyboard-response","395","1282730","0.0-6.0-4.55","2731826","co37909","norming","","","","","","",""
"null","../img/tt/1037tt.jpg","null","mooney2","image-keyboard-response","396","1284737","0.0-6.0-5.55","2731826","co37909","norming","","","","","","",""
"3459.8949999781325","","","post_reveal_questions","survey-likert","397","1288198","0.0-6.0-6.55","2731826","co37909","norming","","","{""aha"":2}","[0]","../img/tt/1037tt.jpg","",""
"null","<div style=""font-size:60px;""> </div>","null","fixation","html-keyboard-response","398","1288410","0.0-6.0-0.56","2731826","co37909","norming","","","","","","",""
"null","../img/tt/456tt.jpg","null","mooney1","image-keyboard-response","399","1291413","0.0-6.0-1.56","2731826","co37909","norming","","","","","","",""
"12885.609999997541","","","post_mooney1_questions","survey-likert","400","1304301","0.0-6.0-2.56","2731826","co37909","norming","","","{""curiosity"":3,""confidence"":2}","[0,1]","../img/tt/456tt.jpg","",""
"5150.229999970179","","","recognition","survey-text","401","1309453","0.0-6.0-3.56","2731826","co37909","norming","","","{""guess"":""krokodil""}","","../img/tt/456tt.jpg","",""
"null","../img/gs/456gs.jpg","null","reveal","image-keyboard-response","402","1311454","0.0-6.0-4.56","2731826","co37909","norming","","","","","","",""
"null","../img/tt/456tt.jpg","null","mooney2","image-keyboard-response","403","1313456","0.0-6.0-5.56","2731826","co37909","norming","","","","","","",""
"9521.695000003092","","","post_reveal_questions","survey-likert","404","1322981","0.0-6.0-6.56","2731826","co37909","norming","","","{""aha"":3}","[0]","../img/tt/456tt.jpg","",""
"null","<div style=""font-size:60px;""> </div>","null","fixation","html-keyboard-response","405","1323182","0.0-6.0-0.57","2731826","co37909","norming","","","","","","",""
"null","../img/tt/1053tt.jpg","null","mooney1","image-keyboard-response","406","1326189","0.0-6.0-1.57","2731826","co37909","norming","","","","","","",""
"4148.455000016838","","","post_mooney1_questions","survey-likert","407","1330341","0.0-6.0-2.57","2731826","co37909","norming","","","{""curiosity"":3,""confidence"":4}","[0,1]","../img/tt/1053tt.jpg","",""
"2207.3350000428036","","","recognition","survey-text","408","1332550","0.0-6.0-3.57","2731826","co37909","norming","","","{""guess"":""dieren""}","","../img/tt/1053tt.jpg","",""
"null","../img/gs/1053gs.jpg","null","reveal","image-keyboard-response","409","1334551","0.0-6.0-4.57","2731826","co37909","norming","","","","","","",""
"null","../img/tt/1053tt.jpg","null","mooney2","image-keyboard-response","410","1336554","0.0-6.0-5.57","2731826","co37909","norming","","","","","","",""
"2816.160000045784","","","post_reveal_questions","survey-likert","411","1339372","0.0-6.0-6.57","2731826","co37909","norming","","","{""aha"":2}","[0]","../img/tt/1053tt.jpg","",""
"null","<div style=""font-size:60px;""> </div>","null","fixation","html-keyboard-response","412","1339574","0.0-6.0-0.58","2731826","co37909","norming","","","","","","",""
"null","../img/tt/1269tt.jpg","null","mooney1","image-keyboard-response","413","1342577","0.0-6.0-1.58","2731826","co37909","norming","","","","","","",""
"5585.969999956433","","","post_mooney1_questions","survey-likert","414","1348166","0.0-6.0-2.58","2731826","co37909","norming","","","{""curiosity"":4,""confidence"":4}","[0,1]","../img/tt/1269tt.jpg","",""
"2646.3399999774992","","","recognition","survey-text","415","1350814","0.0-6.0-3.58","2731826","co37909","norming","","","{""guess"":""dieren""}","","../img/tt/1269tt.jpg","",""
"null","../img/gs/1269gs.jpg","null","reveal","image-keyboard-response","416","1352828","0.0-6.0-4.58","2731826","co37909","norming","","","","","","",""
"null","../img/tt/1269tt.jpg","null","mooney2","image-keyboard-response","417","1354833","0.0-6.0-5.58","2731826","co37909","norming","","","","","","",""
"3179.954999999609","","","post_reveal_questions","survey-likert","418","1358014","0.0-6.0-6.58","2731826","co37909","norming","","","{""aha"":3}","[0]","../img/tt/1269tt.jpg","",""
"null","<div style=""font-size:60px;""> </div>","null","fixation","html-keyboard-response","419","1358215","0.0-6.0-0.59","2731826","co37909","norming","","","","","","",""
"null","../img/tt/1002tt.jpg","null","mooney1","image-keyboard-response","420","1361219","0.0-6.0-1.59","2731826","co37909","norming","","","","","","",""
"4038.6650000000373","","","post_mooney1_questions","survey-likert","421","1365260","0.0-6.0-2.59","2731826","co37909","norming","","","{""curiosity"":4,""confidence"":4}","[0,1]","../img/tt/1002tt.jpg","",""
"2439.3699999782257","","","recognition","survey-text","422","1367701","0.0-6.0-3.59","2731826","co37909","norming","","","{""guess"":""een beer""}","","../img/tt/1002tt.jpg","",""
"null","../img/gs/1002gs.jpg","null","reveal","image-keyboard-response","423","1369718","0.0-6.0-4.59","2731826","co37909","norming","","","","","","",""
"null","../img/tt/1002tt.jpg","null","mooney2","image-keyboard-response","424","1371721","0.0-6.0-5.59","2731826","co37909","norming","","","","","","",""
"7378.535000025295","","","post_reveal_questions","survey-likert","425","1379102","0.0-6.0-6.59","2731826","co37909","norming","","","{""aha"":0}","[0]","../img/tt/1002tt.jpg","",""
"null","<div style=""font-size:60px;""> </div>","null","fixation","html-keyboard-response","426","1379311","0.0-6.0-0.60","2731826","co37909","norming","","","","","","",""
"null","../img/tt/1276tt.jpg","null","mooney1","image-keyboard-response","427","1382314","0.0-6.0-1.60","2731826","co37909","norming","","","","","","",""
"3993.1349999969825","","","post_mooney1_questions","survey-likert","428","1386310","0.0-6.0-2.60","2731826","co37909","norming","","","{""curiosity"":3,""confidence"":0}","[0,1]","../img/tt/1276tt.jpg","",""
"558.1749999546446","","","recognition","survey-text","429","1386870","0.0-6.0-3.60","2731826","co37909","norming","","","{""guess"":""""}","","../img/tt/1276tt.jpg","",""
"null","../img/gs/1276gs.jpg","null","reveal","image-keyboard-response","430","1388878","0.0-6.0-4.60","2731826","co37909","norming","","","","","","",""
"null","../img/tt/1276tt.jpg","null","mooney2","image-keyboard-response","431","1390880","0.0-6.0-5.60","2731826","co37909","norming","","","","","","",""
"4235.744999954477","","","post_reveal_questions","survey-likert","432","1395118","0.0-6.0-6.60","2731826","co37909","norming","","","{""aha"":3}","[0]","../img/tt/1276tt.jpg","",""
"null","<div style=""font-size:60px;""> </div>","null","fixation","html-keyboard-response","433","1395331","0.0-6.0-0.61","2731826","co37909","norming","","","","","","",""
"null","../img/tt/1096tt.jpg","null","mooney1","image-keyboard-response","434","1398335","0.0-6.0-1.61","2731826","co37909","norming","","","","","","",""
"5139.324999996461","","","post_mooney1_questions","survey-likert","435","1403477","0.0-6.0-2.61","2731826","co37909","norming","","","{""curiosity"":4,""confidence"":4}","[0,1]","../img/tt/1096tt.jpg","",""
"4285.569999949075","","","recognition","survey-text","436","1407764","0.0-6.0-3.61","2731826","co37909","norming","","","{""guess"":""een trap""}","","../img/tt/1096tt.jpg","",""
"null","../img/gs/1096gs.jpg","null","reveal","image-keyboard-response","437","1409781","0.0-6.0-4.61","2731826","co37909","norming","","","","","","",""
"null","../img/tt/1096tt.jpg","null","mooney2","image-keyboard-response","438","1411783","0.0-6.0-5.61","2731826","co37909","norming","","","","","","",""
"5053.284999972675","","","post_reveal_questions","survey-likert","439","1416837","0.0-6.0-6.61","2731826","co37909","norming","","","{""aha"":3}","[0]","../img/tt/1096tt.jpg","",""
"null","<div style=""font-size:60px;""> </div>","null","fixation","html-keyboard-response","440","1417051","0.0-6.0-0.62","2731826","co37909","norming","","","","","","",""
"null","../img/tt/517tt.jpg","null","mooney1","image-keyboard-response","441","1420061","0.0-6.0-1.62","2731826","co37909","norming","","","","","","",""
"5573.359999980312","","","post_mooney1_questions","survey-likert","442","1425637","0.0-6.0-2.62","2731826","co37909","norming","","","{""curiosity"":4,""confidence"":3}","[0,1]","../img/tt/517tt.jpg","",""
"2181.3599999877624","","","recognition","survey-text","443","1427820","0.0-6.0-3.62","2731826","co37909","norming","","","{""guess"":""een dier""}","","../img/tt/517tt.jpg","",""
"null","../img/gs/517gs.jpg","null","reveal","image-keyboard-response","444","1429828","0.0-6.0-4.62","2731826","co37909","norming","","","","","","",""
"null","../img/tt/517tt.jpg","null","mooney2","image-keyboard-response","445","1431830","0.0-6.0-5.62","2731826","co37909","norming","","","","","","",""
"2172.1099999849685","","","post_reveal_questions","survey-likert","446","1434005","0.0-6.0-6.62","2731826","co37909","norming","","","{""aha"":4}","[0]","../img/tt/517tt.jpg","",""
"null","<div style=""font-size:60px;""> </div>","null","fixation","html-keyboard-response","447","1434206","0.0-6.0-0.63","2731826","co37909","norming","","","","","","",""
"null","../img/tt/1033tt.jpg","null","mooney1","image-keyboard-response","448","1437208","0.0-6.0-1.63","2731826","co37909","norming","","","","","","",""
"4020.1600000145845","","","post_mooney1_questions","survey-likert","449","1441229","0.0-6.0-2.63","2731826","co37909","norming","","","{""curiosity"":3,""confidence"":0}","[0,1]","../img/tt/1033tt.jpg","",""
"734.0599999879487","","","recognition","survey-text","450","1441965","0.0-6.0-3.63","2731826","co37909","norming","","","{""guess"":""""}","","../img/tt/1033tt.jpg","",""
"null","../img/gs/1033gs.jpg","null","reveal","image-keyboard-response","451","1443976","0.0-6.0-4.63","2731826","co37909","norming","","","","","","",""
"null","../img/tt/1033tt.jpg","null","mooney2","image-keyboard-response","452","1445983","0.0-6.0-5.63","2731826","co37909","norming","","","","","","",""
"12452.764999994542","","","post_reveal_questions","survey-likert","453","1458437","0.0-6.0-6.63","2731826","co37909","norming","","","{""aha"":0}","[0]","../img/tt/1033tt.jpg","",""
"null","<div style=""font-size:60px;""> </div>","null","fixation","html-keyboard-response","454","1458638","0.0-6.0-0.64","2731826","co37909","norming","","","","","","",""
"null","../img/tt/300tt.jpg","null","mooney1","image-keyboard-response","455","1461641","0.0-6.0-1.64","2731826","co37909","norming","","","","","","",""
"3498.2749999617226","","","post_mooney1_questions","survey-likert","456","1465142","0.0-6.0-2.64","2731826","co37909","norming","","","{""curiosity"":2,""confidence"":4}","[0,1]","../img/tt/300tt.jpg","",""
"2101.710000017192","","","recognition","survey-text","457","1467246","0.0-6.0-3.64","2731826","co37909","norming","","","{""guess"":""een mens""}","","../img/tt/300tt.jpg","",""
"null","../img/gs/300gs.jpg","null","reveal","image-keyboard-response","458","1469253","0.0-6.0-4.64","2731826","co37909","norming","","","","","","",""
"null","../img/tt/300tt.jpg","null","mooney2","image-keyboard-response","459","1471265","0.0-6.0-5.64","2731826","co37909","norming","","","","","","",""
"6052.475000033155","","","post_reveal_questions","survey-likert","460","1477319","0.0-6.0-6.64","2731826","co37909","norming","","","{""aha"":0}","[0]","../img/tt/300tt.jpg","",""
"null","<div style=""font-size:60px;""> </div>","null","fixation","html-keyboard-response","461","1477520","0.0-6.0-0.65","2731826","co37909","norming","","","","","","",""
"null","../img/tt/078tt.jpg","null","mooney1","image-keyboard-response","462","1480524","0.0-6.0-1.65","2731826","co37909","norming","","","","","","",""
"4893.555000016931","","","post_mooney1_questions","survey-likert","463","1485421","0.0-6.0-2.65","2731826","co37909","norming","","","{""curiosity"":2,""confidence"":4}","[0,1]","../img/tt/078tt.jpg","",""
"2135.290000005625","","","recognition","survey-text","464","1487558","0.0-6.0-3.65","2731826","co37909","norming","","","{""guess"":""druiven""}","","../img/tt/078tt.jpg","",""
"null","../img/gs/078gs.jpg","null","reveal","image-keyboard-response","465","1489570","0.0-6.0-4.65","2731826","co37909","norming","","","","","","",""
"null","../img/tt/078tt.jpg","null","mooney2","image-keyboard-response","466","1491571","0.0-6.0-5.65","2731826","co37909","norming","","","","","","",""
"3152.829999977257","","","post_reveal_questions","survey-likert","467","1494725","0.0-6.0-6.65","2731826","co37909","norming","","","{""aha"":0}","[0]","../img/tt/078tt.jpg","",""
"null","<div style=""font-size:60px;""> </div>","null","fixation","html-keyboard-response","468","1494929","0.0-6.0-0.66","2731826","co37909","norming","","","","","","",""
"null","../img/tt/163tt.jpg","null","mooney1","image-keyboard-response","469","1497937","0.0-6.0-1.66","2731826","co37909","norming","","","","","","",""
"6458.099999988917","","","post_mooney1_questions","survey-likert","470","1504398","0.0-6.0-2.66","2731826","co37909","norming","","","{""curiosity"":3,""confidence"":6}","[0,1]","../img/tt/163tt.jpg","",""
"5541.885000013281","","","recognition","survey-text","471","1509942","0.0-6.0-3.66","2731826","co37909","norming","","","{""guess"":""vleesetende bloem""}","","../img/tt/163tt.jpg","",""
"null","../img/gs/163gs.jpg","null","reveal","image-keyboard-response","472","1511944","0.0-6.0-4.66","2731826","co37909","norming","","","","","","",""
"null","../img/tt/163tt.jpg","null","mooney2","image-keyboard-response","473","1513956","0.0-6.0-5.66","2731826","co37909","norming","","","","","","",""
"12311.189999978524","","","post_reveal_questions","survey-likert","474","1526269","0.0-6.0-6.66","2731826","co37909","norming","","","{""aha"":5}","[0]","../img/tt/163tt.jpg","",""
"null","<div style=""font-size:60px;""> </div>","null","fixation","html-keyboard-response","475","1526470","0.0-6.0-0.67","2731826","co37909","norming","","","","","","",""
"null","../img/tt/1279tt.jpg","null","mooney1","image-keyboard-response","476","1529475","0.0-6.0-1.67","2731826","co37909","norming","","","","","","",""
"5063.059999956749","","","post_mooney1_questions","survey-likert","477","1534541","0.0-6.0-2.67","2731826","co37909","norming","","","{""curiosity"":3,""confidence"":2}","[0,1]","../img/tt/1279tt.jpg","",""
"2493.9550000126474","","","recognition","survey-text","478","1537037","0.0-6.0-3.67","2731826","co37909","norming","","","{""guess"":""koeien""}","","../img/tt/1279tt.jpg","",""
"null","../img/gs/1279gs.jpg","null","reveal","image-keyboard-response","479","1539044","0.0-6.0-4.67","2731826","co37909","norming","","","","","","",""
"null","../img/tt/1279tt.jpg","null","mooney2","image-keyboard-response","480","1541047","0.0-6.0-5.67","2731826","co37909","norming","","","","","","",""
"2651.09499997925","","","post_reveal_questions","survey-likert","481","1543700","0.0-6.0-6.67","2731826","co37909","norming","","","{""aha"":3}","[0]","../img/tt/1279tt.jpg","",""
"null","<div style=""font-size:60px;""> </div>","null","fixation","html-keyboard-response","482","1543916","0.0-6.0-0.68","2731826","co37909","norming","","","","","","",""
"null","../img/tt/1199tt.jpg","null","mooney1","image-keyboard-response","483","1546924","0.0-6.0-1.68","2731826","co37909","norming","","","","","","",""
"4182.215000037104","","","post_mooney1_questions","survey-likert","484","1551109","0.0-6.0-2.68","2731826","co37909","norming","","","{""curiosity"":3,""confidence"":1}","[0,1]","../img/tt/1199tt.jpg","",""
"2694.6400000015274","","","recognition","survey-text","485","1553794","0.0-6.0-3.68","2731826","co37909","norming","","","{""guess"":""een persoon""}","","../img/tt/1199tt.jpg","",""
"null","../img/gs/1199gs.jpg","null","reveal","image-keyboard-response","486","1555803","0.0-6.0-4.68","2731826","co37909","norming","","","","","","",""
"null","../img/tt/1199tt.jpg","null","mooney2","image-keyboard-response","487","1557808","0.0-6.0-5.68","2731826","co37909","norming","","","","","","",""
"3135.024999966845","","","post_reveal_questions","survey-likert","488","1560945","0.0-6.0-6.68","2731826","co37909","norming","","","{""aha"":4}","[0]","../img/tt/1199tt.jpg","",""
"null","<div style=""font-size:60px;""> </div>","null","fixation","html-keyboard-response","489","1561147","0.0-6.0-0.69","2731826","co37909","norming","","","","","","",""
"null","../img/tt/1061tt.jpg","null","mooney1","image-keyboard-response","490","1564152","0.0-6.0-1.69","2731826","co37909","norming","","","","","","",""
"3857.4050000170246","","","post_mooney1_questions","survey-likert","491","1568010","0.0-6.0-2.69","2731826","co37909","norming","","","{""curiosity"":4,""confidence"":2}","[0,1]","../img/tt/1061tt.jpg","",""
"2476.8499999772757","","","recognition","survey-text","492","1570489","0.0-6.0-3.69","2731826","co37909","norming","","","{""guess"":""een mens""}","","../img/tt/1061tt.jpg","",""
"null","../img/gs/1061gs.jpg","null","reveal","image-keyboard-response","493","1572490","0.0-6.0-4.69","2731826","co37909","norming","","","","","","",""
"null","../img/tt/1061tt.jpg","null","mooney2","image-keyboard-response","494","1574493","0.0-6.0-5.69","2731826","co37909","norming","","","","","","",""
"3010.3499999968335","","","post_reveal_questions","survey-likert","495","1577506","0.0-6.0-6.69","2731826","co37909","norming","","","{""aha"":2}","[0]","../img/tt/1061tt.jpg","",""
"null","<div style=""font-size:60px;""> </div>","null","fixation","html-keyboard-response","496","1577715","0.0-6.0-0.70","2731826","co37909","norming","","","","","","",""
"null","../img/tt/567tt.jpg","null","mooney1","image-keyboard-response","497","1580719","0.0-6.0-1.70","2731826","co37909","norming","","","","","","",""
"6214.76000000257","","","post_mooney1_questions","survey-likert","498","1586937","0.0-6.0-2.70","2731826","co37909","norming","","","{""curiosity"":3,""confidence"":6}","[0,1]","../img/tt/567tt.jpg","",""
"3255.5699999793433","","","recognition","survey-text","499","1590194","0.0-6.0-3.70","2731826","co37909","norming","","","{""guess"":""broodrooster""}","","../img/tt/567tt.jpg","",""
"null","../img/gs/567gs.jpg","null","reveal","image-keyboard-response","500","1592199","0.0-6.0-4.70","2731826","co37909","norming","","","","","","",""
"null","../img/tt/567tt.jpg","null","mooney2","image-keyboard-response","501","1594202","0.0-6.0-5.70","2731826","co37909","norming","","","","","","",""
"4732.755000004545","","","post_reveal_questions","survey-likert","502","1598937","0.0-6.0-6.70","2731826","co37909","norming","","","{""aha"":0}","[0]","../img/tt/567tt.jpg","",""
"null","<div style=""font-size:60px;""> </div>","null","fixation","html-keyboard-response","503","1599139","0.0-6.0-0.71","2731826","co37909","norming","","","","","","",""
"null","../img/tt/549tt.jpg","null","mooney1","image-keyboard-response","504","1602141","0.0-6.0-1.71","2731826","co37909","norming","","","","","","",""
"4579.610000015236","","","post_mooney1_questions","survey-likert","505","1606721","0.0-6.0-2.71","2731826","co37909","norming","","","{""curiosity"":3,""confidence"":4}","[0,1]","../img/tt/549tt.jpg","",""
"5533.754999982193","","","recognition","survey-text","506","1612257","0.0-6.0-3.71","2731826","co37909","norming","","","{""guess"":""insect""}","","../img/tt/549tt.jpg","",""
"null","../img/gs/549gs.jpg","null","reveal","image-keyboard-response","507","1614270","0.0-6.0-4.71","2731826","co37909","norming","","","","","","",""
"null","../img/tt/549tt.jpg","null","mooney2","image-keyboard-response","508","1616281","0.0-6.0-5.71","2731826","co37909","norming","","","","","","",""
"2113.149999990128","","","post_reveal_questions","survey-likert","509","1618397","0.0-6.0-6.71","2731826","co37909","norming","","","{""aha"":3}","[0]","../img/tt/549tt.jpg","",""
"null","<div style=""font-size:60px;""> </div>","null","fixation","html-keyboard-response","510","1618598","0.0-6.0-0.72","2731826","co37909","norming","","","","","","",""
"null","../img/tt/1254tt.jpg","null","mooney1","image-keyboard-response","511","1621605","0.0-6.0-1.72","2731826","co37909","norming","","","","","","",""
"5325.104999996256","","","post_mooney1_questions","survey-likert","512","1626934","0.0-6.0-2.72","2731826","co37909","norming","","","{""curiosity"":4,""confidence"":1}","[0,1]","../img/tt/1254tt.jpg","",""
"2549.0150000550784","","","recognition","survey-text","513","1629485","0.0-6.0-3.72","2731826","co37909","norming","","","{""guess"":""een dier""}","","../img/tt/1254tt.jpg","",""
"null","../img/gs/1254gs.jpg","null","reveal","image-keyboard-response","514","1631494","0.0-6.0-4.72","2731826","co37909","norming","","","","","","",""
"null","../img/tt/1254tt.jpg","null","mooney2","image-keyboard-response","515","1633506","0.0-6.0-5.72","2731826","co37909","norming","","","","","","",""
"4617.330000037327","","","post_reveal_questions","survey-likert","516","1638125","0.0-6.0-6.72","2731826","co37909","norming","","","{""aha"":2}","[0]","../img/tt/1254tt.jpg","",""
"null","<div style=""font-size:60px;""> </div>","null","fixation","html-keyboard-response","517","1638335","0.0-6.0-0.73","2731826","co37909","norming","","","","","","",""
"null","../img/tt/522tt.jpg","null","mooney1","image-keyboard-response","518","1641338","0.0-6.0-1.73","2731826","co37909","norming","","","","","","",""
"4554.070000012871","","","post_mooney1_questions","survey-likert","519","1645893","0.0-6.0-2.73","2731826","co37909","norming","","","{""curiosity"":3,""confidence"":0}","[0,1]","../img/tt/522tt.jpg","",""
"845.629999996163","","","recognition","survey-text","520","1646740","0.0-6.0-3.73","2731826","co37909","norming","","","{""guess"":""""}","","../img/tt/522tt.jpg","",""
"null","../img/gs/522gs.jpg","null","reveal","image-keyboard-response","521","1648742","0.0-6.0-4.73","2731826","co37909","norming","","","","","","",""
"null","../img/tt/522tt.jpg","null","mooney2","image-keyboard-response","522","1650743","0.0-6.0-5.73","2731826","co37909","norming","","","","","","",""
"5123.829999996815","","","post_reveal_questions","survey-likert","523","1655868","0.0-6.0-6.73","2731826","co37909","norming","","","{""aha"":2}","[0]","../img/tt/522tt.jpg","",""
"null","<div style=""font-size:60px;""> </div>","null","fixation","html-keyboard-response","524","1656069","0.0-6.0-0.74","2731826","co37909","norming","","","","","","",""
"null","../img/tt/1191tt.jpg","null","mooney1","image-keyboard-response","525","1659077","0.0-6.0-1.74","2731826","co37909","norming","","","","","","",""
"4845.11500003282","","","post_mooney1_questions","survey-likert","526","1663924","0.0-6.0-2.74","2731826","co37909","norming","","","{""curiosity"":3,""confidence"":4}","[0,1]","../img/tt/1191tt.jpg","",""
"2871.824999980163","","","recognition","survey-text","527","1666797","0.0-6.0-3.74","2731826","co37909","norming","","","{""guess"":""paarden""}","","../img/tt/1191tt.jpg","",""
"null","../img/gs/1191gs.jpg","null","reveal","image-keyboard-response","528","1668811","0.0-6.0-4.74","2731826","co37909","norming","","","","","","",""
"null","../img/tt/1191tt.jpg","null","mooney2","image-keyboard-response","529","1670813","0.0-6.0-5.74","2731826","co37909","norming","","","","","","",""
"4190.159999998286","","","post_reveal_questions","survey-likert","530","1675006","0.0-6.0-6.74","2731826","co37909","norming","","","{""aha"":3}","[0]","../img/tt/1191tt.jpg","",""
"null","<div style=""font-size:60px;""> </div>","null","fixation","html-keyboard-response","531","1675207","0.0-6.0-0.75","2731826","co37909","norming","","","","","","",""
"null","../img/tt/353tt.jpg","null","mooney1","image-keyboard-response","532","1678211","0.0-6.0-1.75","2731826","co37909","norming","","","","","","",""
"9846.130000019912","","","post_mooney1_questions","survey-likert","533","1688061","0.0-6.0-2.75","2731826","co37909","norming","","","{""curiosity"":3,""confidence"":0}","[0,1]","../img/tt/353tt.jpg","",""
"533.7599999620579","","","recognition","survey-text","534","1688596","0.0-6.0-3.75","2731826","co37909","norming","","","{""guess"":""""}","","../img/tt/353tt.jpg","",""
"null","../img/gs/353gs.jpg","null","reveal","image-keyboard-response","535","1690598","0.0-6.0-4.75","2731826","co37909","norming","","","","","","",""
"null","../img/tt/353tt.jpg","null","mooney2","image-keyboard-response","536","1692602","0.0-6.0-5.75","2731826","co37909","norming","","","","","","",""
"2681.159999978263","","","post_reveal_questions","survey-likert","537","1695286","0.0-6.0-6.75","2731826","co37909","norming","","","{""aha"":4}","[0]","../img/tt/353tt.jpg","",""
"null","<div style=""font-size:60px;""> </div>","null","fixation","html-keyboard-response","538","1695503","0.0-6.0-0.76","2731826","co37909","norming","","","","","","",""
"null","../img/tt/1353tt.jpg","null","mooney1","image-keyboard-response","539","1698517","0.0-6.0-1.76","2731826","co37909","norming","","","","","","",""
"11775.499999988824","","","post_mooney1_questions","survey-likert","540","1710294","0.0-6.0-2.76","2731826","co37909","norming","","","{""curiosity"":4,""confidence"":0}","[0,1]","../img/tt/1353tt.jpg","",""
"725.8900000015274","","","recognition","survey-text","541","1711021","0.0-6.0-3.76","2731826","co37909","norming","","","{""guess"":""""}","","../img/tt/1353tt.jpg","",""
"null","../img/gs/1353gs.jpg","null","reveal","image-keyboard-response","542","1713023","0.0-6.0-4.76","2731826","co37909","norming","","","","","","",""
"null","../img/tt/1353tt.jpg","null","mooney2","image-keyboard-response","543","1715035","0.0-6.0-5.76","2731826","co37909","norming","","","","","","",""
"2881.004999973811","","","post_reveal_questions","survey-likert","544","1717918","0.0-6.0-6.76","2731826","co37909","norming","","","{""aha"":5}","[0]","../img/tt/1353tt.jpg","",""
"null","<div style=""font-size:60px;""> </div>","null","fixation","html-keyboard-response","545","1718124","0.0-6.0-0.77","2731826","co37909","norming","","","","","","",""
"null","../img/tt/1055tt.jpg","null","mooney1","image-keyboard-response","546","1721126","0.0-6.0-1.77","2731826","co37909","norming","","","","","","",""
"4620.050000026822","","","post_mooney1_questions","survey-likert","547","1725749","0.0-6.0-2.77","2731826","co37909","norming","","","{""curiosity"":4,""confidence"":0}","[0,1]","../img/tt/1055tt.jpg","",""
"543.4599999571219","","","recognition","survey-text","548","1726294","0.0-6.0-3.77","2731826","co37909","norming","","","{""guess"":""""}","","../img/tt/1055tt.jpg","",""
"null","../img/gs/1055gs.jpg","null","reveal","image-keyboard-response","549","1728296","0.0-6.0-4.77","2731826","co37909","norming","","","","","","",""
"null","../img/tt/1055tt.jpg","null","mooney2","image-keyboard-response","550","1730298","0.0-6.0-5.77","2731826","co37909","norming","","","","","","",""
"2088.6199999949895","","","post_reveal_questions","survey-likert","551","1732389","0.0-6.0-6.77","2731826","co37909","norming","","","{""aha"":4}","[0]","../img/tt/1055tt.jpg","",""
