"rt","stimulus","key_press","test_part","trial_type","trial_index","time_elapsed","internal_node_id","totalTime","subject","experiment_name","button_pressed","success","responses","question_order","currentStim","old","correct"
"18377.70999999975","Welcome to the experiment. This is an online experiment so please don't close the tab/window until we say goodbye.  Press any key to begin.","87","instructions","html-keyboard-response","0","18851","0.0-0.0","3030664","co38017","norming","","","","","","",""
"24491.97499999991","<div style='word-wrap: break-word; width: 900px'><h3>Please consider this information carefully before deciding whether to participate in this research</h3><ul style='text-align: left; font-size: .8em;'><li><b>Purpose of the research</b>: To examine how people process images.</li><li><b>What you will do in this research</b>:  Stimuli (images) will be presented on the computer and you will be asked different questions about them.</li><li><b>Time required</b>: Participation will take between 45 and 60 minutes to complete.</li><li><b>Risks</b>:  There are no anticipated risks associated with participating in this study. The effects of participating should be comparable to those you would experience from viewing a computer monitor for 30 minutes and using a mouse or keyboard.</li><li><b>Benefits</b>:  This study provides no benefits to you individually except for the credit. The study provides important information about the nature of perception and learning.</li><li><b>Confidentiality</b>:  Your participation in this study will remain confidential. No personally identifiable information will be associated with your data. Your de-identified data may be shared with other researchers and used in future projects.</li><li><b>Participation and withdrawal</b>:  Your participation in this study is completely voluntary and you may refuse to participate or you may choose to withdraw at any time without penalty.</li><li><b>How to contact the researchers</b>: If you have questions or concerns about your participation or payment, or want to request a summary of research findings, please contact Sander Van de Cruys (KU Leuven), at sander.vandecruys@kuleuven.be.</li></ul><p>The nature and purpose of this research have been sufficiently explained and I agree to participate in this study.  I understand that I am free to withdraw at any time without incurring any penalty.</p><p>Please consent by clicking the button below to continue. Otherwise, please exit the study at this time.</p></div>","","instructions","html-button-response","1","43352","0.0-1.0","3030664","co38017","norming","0","","","","","",""
"","","","instructions","fullscreen","2","49943","0.0-2.0","3030664","co38017","norming","","true","","","","",""
"36694.37999999991","","","sona","survey-html-form","3","86644","0.0-3.0","3030664","co38017","norming","","","[{""name"":""sonaid"",""value"":""38017""},{""name"":""debrief"",""value"":""yes""},{""name"":""datajoin"",""value"":""yes""}]","","","",""
"69025.0100000003","<div style='word-wrap: break-word; width: 900px'><h3>Instructions</h3><p>This experiment will have 3 parts. In the first part you will see a series of distorted images like the one below on the left. As you can see in the righthand image, the distorted images are derived from actual photographs. In what follows, you will <strong>briefly</strong> be presented with <strong>only</strong> the distorted image.</p> <div style='float: left; margin-right: 20px;'><img src='../img/018tt.jpg' height='250' width='250'></img></div><div style='float: right; margin-left: 20px;'><img src='../img/018gs.jpg' height='250' width='250'></img></div><p>Subsequently you will be asked a few questions about the image: One question on how <strong>curious</strong> you are about the solution and one on how <strong>confident</strong> you are that you know the solution.</p>Next, we ask you to make a guess on what is in the image. Note that it is OK to name just the <strong>basic level category</strong>. For example when you see a parrot in the image, 'parrot' will obviously be a correct answer but also correct is 'bird'. However, 'animal' will <strong>not</strong> be counted as a correct response. For the example above, 'rose' would be correct or 'flower', but not 'plant'. When soccer players are depicted, 'soccer', 'football', 'soccer players' will be correct, but not 'humans', 'outdoors', or 'sports'. You do not need to describe the image in full, just name the main object in it <strong>in one or two words</strong>. All images depict objects from one of the following broad level categories: animals, inanimate objects, plants, sports, vehicles, and food. Recognizing means knowing <strong>more</strong> than these broad labels for a given image. But we always encourage you to <strong>make a guess</strong> if you can. Note that you are allowed to use <strong>Dutch and English</strong> in your answers, whatever comes easiest for you.</p><p>Press any key to continue.</p></div>","32","instructions","html-keyboard-response","4","155675","0.0-4.0","3030664","co38017","norming","","","","","","",""
"24257.470000000467","<div style='word-wrap: break-word; width: 900px'><h3>Instructions</h3> <p>Next, the solution image will be revealed to you and you'll be asked to indicate how strong your <strong>aha-experience</strong> was after seeing the solution. This describes the positive feeling of the 'click' you sometimes experience, when the pieces of the 'puzzle' fall together and you suddenly have 'insight' in the image.</p><img src='aha.jpg' height='188' width='250'></img><p>Note that there are no right or wrong answers. We are interested in what <strong>you</strong> see in the image and how <strong>you</strong> feel about it.</p><p>Press any key to start the experiment.</p></div>","32","instructions","html-keyboard-response","5","179935","0.0-5.0","3030664","co38017","norming","","","","","","",""
"null","<div style=""font-size:60px;""> </div>","null","fixation","html-keyboard-response","6","180141","0.0-6.0-0.0","3030664","co38017","norming","","","","","","",""
"null","../img/tt/1243tt.jpg","null","mooney1","image-keyboard-response","7","183150","0.0-6.0-1.0","3030664","co38017","norming","","","","","","",""
"14709.710000000108","","","post_mooney1_questions","survey-likert","8","197865","0.0-6.0-2.0","3030664","co38017","norming","","","{""curiosity"":5,""confidence"":0}","[0,1]","../img/tt/1243tt.jpg","",""
"8859.805000000051","","","recognition","survey-text","9","206735","0.0-6.0-3.0","3030664","co38017","norming","","","{""guess"":""persoon""}","","../img/tt/1243tt.jpg","",""
"null","../img/gs/1243gs.jpg","null","reveal","image-keyboard-response","10","208741","0.0-6.0-4.0","3030664","co38017","norming","","","","","","",""
"null","../img/tt/1243tt.jpg","null","mooney2","image-keyboard-response","11","210746","0.0-6.0-5.0","3030664","co38017","norming","","","","","","",""
"5090.060000000434","","","post_reveal_questions","survey-likert","12","215839","0.0-6.0-6.0","3030664","co38017","norming","","","{""aha"":6}","[0]","../img/tt/1243tt.jpg","",""
"null","<div style=""font-size:60px;""> </div>","null","fixation","html-keyboard-response","13","216055","0.0-6.0-0.1","3030664","co38017","norming","","","","","","",""
"null","../img/tt/052tt.jpg","null","mooney1","image-keyboard-response","14","219061","0.0-6.0-1.1","3030664","co38017","norming","","","","","","",""
"6671.194999999891","","","post_mooney1_questions","survey-likert","15","225736","0.0-6.0-2.1","3030664","co38017","norming","","","{""curiosity"":6,""confidence"":1}","[0,1]","../img/tt/052tt.jpg","",""
"3164.445000000327","","","recognition","survey-text","16","228913","0.0-6.0-3.1","3030664","co38017","norming","","","{""guess"":""armband ""}","","../img/tt/052tt.jpg","",""
"null","../img/gs/052gs.jpg","null","reveal","image-keyboard-response","17","230920","0.0-6.0-4.1","3030664","co38017","norming","","","","","","",""
"null","../img/tt/052tt.jpg","null","mooney2","image-keyboard-response","18","232927","0.0-6.0-5.1","3030664","co38017","norming","","","","","","",""
"7193.320000000298","","","post_reveal_questions","survey-likert","19","240123","0.0-6.0-6.1","3030664","co38017","norming","","","{""aha"":4}","[0]","../img/tt/052tt.jpg","",""
"null","<div style=""font-size:60px;""> </div>","null","fixation","html-keyboard-response","20","240333","0.0-6.0-0.2","3030664","co38017","norming","","","","","","",""
"null","../img/tt/418tt.jpg","null","mooney1","image-keyboard-response","21","243340","0.0-6.0-1.2","3030664","co38017","norming","","","","","","",""
"9077.605000000389","","","post_mooney1_questions","survey-likert","22","252422","0.0-6.0-2.2","3030664","co38017","norming","","","{""curiosity"":6,""confidence"":1}","[0,1]","../img/tt/418tt.jpg","",""
"16306.779999999882","","","recognition","survey-text","23","268739","0.0-6.0-3.2","3030664","co38017","norming","","","{""guess"":""erwtenplant""}","","../img/tt/418tt.jpg","",""
"null","../img/gs/418gs.jpg","null","reveal","image-keyboard-response","24","270743","0.0-6.0-4.2","3030664","co38017","norming","","","","","","",""
"null","../img/tt/418tt.jpg","null","mooney2","image-keyboard-response","25","272747","0.0-6.0-5.2","3030664","co38017","norming","","","","","","",""
"3879.184999999765","","","post_reveal_questions","survey-likert","26","276630","0.0-6.0-6.2","3030664","co38017","norming","","","{""aha"":6}","[0]","../img/tt/418tt.jpg","",""
"null","<div style=""font-size:60px;""> </div>","null","fixation","html-keyboard-response","27","276843","0.0-6.0-0.3","3030664","co38017","norming","","","","","","",""
"null","../img/tt/1091tt.jpg","null","mooney1","image-keyboard-response","28","279849","0.0-6.0-1.3","3030664","co38017","norming","","","","","","",""
"7502.225000000151","","","post_mooney1_questions","survey-likert","29","287355","0.0-6.0-2.3","3030664","co38017","norming","","","{""curiosity"":6,""confidence"":6}","[0,1]","../img/tt/1091tt.jpg","",""
"2945.9900000001653","","","recognition","survey-text","30","290312","0.0-6.0-3.3","3030664","co38017","norming","","","{""guess"":""paard""}","","../img/tt/1091tt.jpg","",""
"null","../img/gs/1091gs.jpg","null","reveal","image-keyboard-response","31","292320","0.0-6.0-4.3","3030664","co38017","norming","","","","","","",""
"null","../img/tt/1091tt.jpg","null","mooney2","image-keyboard-response","32","294327","0.0-6.0-5.3","3030664","co38017","norming","","","","","","",""
"4155.135000000009","","","post_reveal_questions","survey-likert","33","298485","0.0-6.0-6.3","3030664","co38017","norming","","","{""aha"":2}","[0]","../img/tt/1091tt.jpg","",""
"null","<div style=""font-size:60px;""> </div>","null","fixation","html-keyboard-response","34","298695","0.0-6.0-0.4","3030664","co38017","norming","","","","","","",""
"null","../img/tt/440tt.jpg","null","mooney1","image-keyboard-response","35","301699","0.0-6.0-1.4","3030664","co38017","norming","","","","","","",""
"9567.649999999965","","","post_mooney1_questions","survey-likert","36","311270","0.0-6.0-2.4","3030664","co38017","norming","","","{""curiosity"":6,""confidence"":3}","[0,1]","../img/tt/440tt.jpg","",""
"2410.1549999995623","","","recognition","survey-text","37","313692","0.0-6.0-3.4","3030664","co38017","norming","","","{""guess"":""stal""}","","../img/tt/440tt.jpg","",""
"null","../img/gs/440gs.jpg","null","reveal","image-keyboard-response","38","315695","0.0-6.0-4.4","3030664","co38017","norming","","","","","","",""
"null","../img/tt/440tt.jpg","null","mooney2","image-keyboard-response","39","317698","0.0-6.0-5.4","3030664","co38017","norming","","","","","","",""
"3162.835000000079","","","post_reveal_questions","survey-likert","40","320864","0.0-6.0-6.4","3030664","co38017","norming","","","{""aha"":6}","[0]","../img/tt/440tt.jpg","",""
"null","<div style=""font-size:60px;""> </div>","null","fixation","html-keyboard-response","41","321077","0.0-6.0-0.5","3030664","co38017","norming","","","","","","",""
"null","../img/tt/1270tt.jpg","null","mooney1","image-keyboard-response","42","324084","0.0-6.0-1.5","3030664","co38017","norming","","","","","","",""
"3716.1150000001653","","","post_mooney1_questions","survey-likert","43","327804","0.0-6.0-2.5","3030664","co38017","norming","","","{""curiosity"":6,""confidence"":5}","[0,1]","../img/tt/1270tt.jpg","",""
"4269.075000000128","","","recognition","survey-text","44","332085","0.0-6.0-3.5","3030664","co38017","norming","","","{""guess"":""eekhoorn""}","","../img/tt/1270tt.jpg","",""
"null","../img/gs/1270gs.jpg","null","reveal","image-keyboard-response","45","334088","0.0-6.0-4.5","3030664","co38017","norming","","","","","","",""
"null","../img/tt/1270tt.jpg","null","mooney2","image-keyboard-response","46","336094","0.0-6.0-5.5","3030664","co38017","norming","","","","","","",""
"3898.5350000002654","","","post_reveal_questions","survey-likert","47","339996","0.0-6.0-6.5","3030664","co38017","norming","","","{""aha"":3}","[0]","../img/tt/1270tt.jpg","",""
"null","<div style=""font-size:60px;""> </div>","null","fixation","html-keyboard-response","48","340208","0.0-6.0-0.6","3030664","co38017","norming","","","","","","",""
"null","../img/tt/111tt.jpg","null","mooney1","image-keyboard-response","49","343216","0.0-6.0-1.6","3030664","co38017","norming","","","","","","",""
"6391.289999999572","","","post_mooney1_questions","survey-likert","50","349611","0.0-6.0-2.6","3030664","co38017","norming","","","{""curiosity"":6,""confidence"":5}","[0,1]","../img/tt/111tt.jpg","",""
"3698.330000000191","","","recognition","survey-text","51","353321","0.0-6.0-3.6","3030664","co38017","norming","","","{""guess"":""telefoon""}","","../img/tt/111tt.jpg","",""
"null","../img/gs/111gs.jpg","null","reveal","image-keyboard-response","52","355326","0.0-6.0-4.6","3030664","co38017","norming","","","","","","",""
"null","../img/tt/111tt.jpg","null","mooney2","image-keyboard-response","53","357331","0.0-6.0-5.6","3030664","co38017","norming","","","","","","",""
"2147.769999999611","","","post_reveal_questions","survey-likert","54","359482","0.0-6.0-6.6","3030664","co38017","norming","","","{""aha"":6}","[0]","../img/tt/111tt.jpg","",""
"null","<div style=""font-size:60px;""> </div>","null","fixation","html-keyboard-response","55","359696","0.0-6.0-0.7","3030664","co38017","norming","","","","","","",""
"null","../img/tt/1261tt.jpg","null","mooney1","image-keyboard-response","56","362698","0.0-6.0-1.7","3030664","co38017","norming","","","","","","",""
"5342.9200000001","","","post_mooney1_questions","survey-likert","57","368045","0.0-6.0-2.7","3030664","co38017","norming","","","{""curiosity"":6,""confidence"":2}","[0,1]","../img/tt/1261tt.jpg","",""
"2384.9899999995832","","","recognition","survey-text","58","370442","0.0-6.0-3.7","3030664","co38017","norming","","","{""guess"":""hond""}","","../img/tt/1261tt.jpg","",""
"null","../img/gs/1261gs.jpg","null","reveal","image-keyboard-response","59","372449","0.0-6.0-4.7","3030664","co38017","norming","","","","","","",""
"null","../img/tt/1261tt.jpg","null","mooney2","image-keyboard-response","60","374453","0.0-6.0-5.7","3030664","co38017","norming","","","","","","",""
"2630.30999999959","","","post_reveal_questions","survey-likert","61","377087","0.0-6.0-6.7","3030664","co38017","norming","","","{""aha"":6}","[0]","../img/tt/1261tt.jpg","",""
"null","<div style=""font-size:60px;""> </div>","null","fixation","html-keyboard-response","62","377299","0.0-6.0-0.8","3030664","co38017","norming","","","","","","",""
"null","../img/tt/497tt.jpg","null","mooney1","image-keyboard-response","63","380302","0.0-6.0-1.8","3030664","co38017","norming","","","","","","",""
"8526.010000000533","","","post_mooney1_questions","survey-likert","64","388832","0.0-6.0-2.8","3030664","co38017","norming","","","{""curiosity"":6,""confidence"":1}","[0,1]","../img/tt/497tt.jpg","",""
"2623.569999999774","","","recognition","survey-text","65","391467","0.0-6.0-3.8","3030664","co38017","norming","","","{""guess"":""kaas""}","","../img/tt/497tt.jpg","",""
"null","../img/gs/497gs.jpg","null","reveal","image-keyboard-response","66","393475","0.0-6.0-4.8","3030664","co38017","norming","","","","","","",""
"null","../img/tt/497tt.jpg","null","mooney2","image-keyboard-response","67","395481","0.0-6.0-5.8","3030664","co38017","norming","","","","","","",""
"1996.975000000035","","","post_reveal_questions","survey-likert","68","397481","0.0-6.0-6.8","3030664","co38017","norming","","","{""aha"":6}","[0]","../img/tt/497tt.jpg","",""
"null","<div style=""font-size:60px;""> </div>","null","fixation","html-keyboard-response","69","397695","0.0-6.0-0.9","3030664","co38017","norming","","","","","","",""
"null","../img/tt/1078tt.jpg","null","mooney1","image-keyboard-response","70","400702","0.0-6.0-1.9","3030664","co38017","norming","","","","","","",""
"4270.190000000235","","","post_mooney1_questions","survey-likert","71","404976","0.0-6.0-2.9","3030664","co38017","norming","","","{""curiosity"":6,""confidence"":1}","[0,1]","../img/tt/1078tt.jpg","",""
"10536.930000000226","","","recognition","survey-text","72","415524","0.0-6.0-3.9","3030664","co38017","norming","","","{""guess"":""dansende mensen""}","","../img/tt/1078tt.jpg","",""
"null","../img/gs/1078gs.jpg","null","reveal","image-keyboard-response","73","417531","0.0-6.0-4.9","3030664","co38017","norming","","","","","","",""
"null","../img/tt/1078tt.jpg","null","mooney2","image-keyboard-response","74","419533","0.0-6.0-5.9","3030664","co38017","norming","","","","","","",""
"2259.445000000589","","","post_reveal_questions","survey-likert","75","421795","0.0-6.0-6.9","3030664","co38017","norming","","","{""aha"":6}","[0]","../img/tt/1078tt.jpg","",""
"null","<div style=""font-size:60px;""> </div>","null","fixation","html-keyboard-response","76","422008","0.0-6.0-0.10","3030664","co38017","norming","","","","","","",""
"null","../img/tt/1363tt.jpg","null","mooney1","image-keyboard-response","77","425012","0.0-6.0-1.10","3030664","co38017","norming","","","","","","",""
"14770.340000000026","","","post_mooney1_questions","survey-likert","78","439786","0.0-6.0-2.10","3030664","co38017","norming","","","{""curiosity"":6,""confidence"":5}","[0,1]","../img/tt/1363tt.jpg","",""
"5638.49500000017","","","recognition","survey-text","79","445441","0.0-6.0-3.10","3030664","co38017","norming","","","{""guess"":""sauskannetje""}","","../img/tt/1363tt.jpg","",""
"null","../img/gs/1363gs.jpg","null","reveal","image-keyboard-response","80","447448","0.0-6.0-4.10","3030664","co38017","norming","","","","","","",""
"null","../img/tt/1363tt.jpg","null","mooney2","image-keyboard-response","81","449454","0.0-6.0-5.10","3030664","co38017","norming","","","","","","",""
"2294.8950000000186","","","post_reveal_questions","survey-likert","82","451752","0.0-6.0-6.10","3030664","co38017","norming","","","{""aha"":6}","[0]","../img/tt/1363tt.jpg","",""
"null","<div style=""font-size:60px;""> </div>","null","fixation","html-keyboard-response","83","451964","0.0-6.0-0.11","3030664","co38017","norming","","","","","","",""
"null","../img/tt/010tt.jpg","null","mooney1","image-keyboard-response","84","454968","0.0-6.0-1.11","3030664","co38017","norming","","","","","","",""
"4092.0400000004447","","","post_mooney1_questions","survey-likert","85","459063","0.0-6.0-2.11","3030664","co38017","norming","","","{""curiosity"":6,""confidence"":0}","[0,1]","../img/tt/010tt.jpg","",""
"2627.3850000006496","","","recognition","survey-text","86","461702","0.0-6.0-3.11","3030664","co38017","norming","","","{""guess"":""kikker""}","","../img/tt/010tt.jpg","",""
"null","../img/gs/010gs.jpg","null","reveal","image-keyboard-response","87","463709","0.0-6.0-4.11","3030664","co38017","norming","","","","","","",""
"null","../img/tt/010tt.jpg","null","mooney2","image-keyboard-response","88","465711","0.0-6.0-5.11","3030664","co38017","norming","","","","","","",""
"3046.7250000001513","","","post_reveal_questions","survey-likert","89","468761","0.0-6.0-6.11","3030664","co38017","norming","","","{""aha"":6}","[0]","../img/tt/010tt.jpg","",""
"null","<div style=""font-size:60px;""> </div>","null","fixation","html-keyboard-response","90","468974","0.0-6.0-0.12","3030664","co38017","norming","","","","","","",""
"null","../img/tt/412tt.jpg","null","mooney1","image-keyboard-response","91","471982","0.0-6.0-1.12","3030664","co38017","norming","","","","","","",""
"5635.655000000028","","","post_mooney1_questions","survey-likert","92","477621","0.0-6.0-2.12","3030664","co38017","norming","","","{""curiosity"":6,""confidence"":0}","[0,1]","../img/tt/412tt.jpg","",""
"2119.225000000384","","","recognition","survey-text","93","479751","0.0-6.0-3.12","3030664","co38017","norming","","","{""guess"":""kraan""}","","../img/tt/412tt.jpg","",""
"null","../img/gs/412gs.jpg","null","reveal","image-keyboard-response","94","481755","0.0-6.0-4.12","3030664","co38017","norming","","","","","","",""
"null","../img/tt/412tt.jpg","null","mooney2","image-keyboard-response","95","483761","0.0-6.0-5.12","3030664","co38017","norming","","","","","","",""
"6502.754999999539","","","post_reveal_questions","survey-likert","96","490267","0.0-6.0-6.12","3030664","co38017","norming","","","{""aha"":2}","[0]","../img/tt/412tt.jpg","",""
"null","<div style=""font-size:60px;""> </div>","null","fixation","html-keyboard-response","97","490478","0.0-6.0-0.13","3030664","co38017","norming","","","","","","",""
"null","../img/tt/1205tt.jpg","null","mooney1","image-keyboard-response","98","493486","0.0-6.0-1.13","3030664","co38017","norming","","","","","","",""
"4046.674999999581","","","post_mooney1_questions","survey-likert","99","497536","0.0-6.0-2.13","3030664","co38017","norming","","","{""curiosity"":6,""confidence"":0}","[0,1]","../img/tt/1205tt.jpg","",""
"4872.320000000414","","","recognition","survey-text","100","502419","0.0-6.0-3.13","3030664","co38017","norming","","","{""guess"":""kamer""}","","../img/tt/1205tt.jpg","",""
"null","../img/gs/1205gs.jpg","null","reveal","image-keyboard-response","101","504422","0.0-6.0-4.13","3030664","co38017","norming","","","","","","",""
"null","../img/tt/1205tt.jpg","null","mooney2","image-keyboard-response","102","506428","0.0-6.0-5.13","3030664","co38017","norming","","","","","","",""
"2990.8050000003423","","","post_reveal_questions","survey-likert","103","509422","0.0-6.0-6.13","3030664","co38017","norming","","","{""aha"":1}","[0]","../img/tt/1205tt.jpg","",""
"null","<div style=""font-size:60px;""> </div>","null","fixation","html-keyboard-response","104","509635","0.0-6.0-0.14","3030664","co38017","norming","","","","","","",""
"null","../img/tt/140tt.jpg","null","mooney1","image-keyboard-response","105","512642","0.0-6.0-1.14","3030664","co38017","norming","","","","","","",""
"5504.509999999718","","","post_mooney1_questions","survey-likert","106","518150","0.0-6.0-2.14","3030664","co38017","norming","","","{""curiosity"":6,""confidence"":5}","[0,1]","../img/tt/140tt.jpg","",""
"3828.260000000242","","","recognition","survey-text","107","521989","0.0-6.0-3.14","3030664","co38017","norming","","","{""guess"":""vork""}","","../img/tt/140tt.jpg","",""
"null","../img/gs/140gs.jpg","null","reveal","image-keyboard-response","108","523997","0.0-6.0-4.14","3030664","co38017","norming","","","","","","",""
"null","../img/tt/140tt.jpg","null","mooney2","image-keyboard-response","109","526003","0.0-6.0-5.14","3030664","co38017","norming","","","","","","",""
"5386.094999999856","","","post_reveal_questions","survey-likert","110","531392","0.0-6.0-6.14","3030664","co38017","norming","","","{""aha"":2}","[0]","../img/tt/140tt.jpg","",""
"null","<div style=""font-size:60px;""> </div>","null","fixation","html-keyboard-response","111","531605","0.0-6.0-0.15","3030664","co38017","norming","","","","","","",""
"null","../img/tt/1251tt.jpg","null","mooney1","image-keyboard-response","112","534612","0.0-6.0-1.15","3030664","co38017","norming","","","","","","",""
"3111.2300000003306","","","post_mooney1_questions","survey-likert","113","537727","0.0-6.0-2.15","3030664","co38017","norming","","","{""curiosity"":6,""confidence"":6}","[0,1]","../img/tt/1251tt.jpg","",""
"2363.115000000107","","","recognition","survey-text","114","540102","0.0-6.0-3.15","3030664","co38017","norming","","","{""guess"":""beer""}","","../img/tt/1251tt.jpg","",""
"null","../img/gs/1251gs.jpg","null","reveal","image-keyboard-response","115","542104","0.0-6.0-4.15","3030664","co38017","norming","","","","","","",""
"null","../img/tt/1251tt.jpg","null","mooney2","image-keyboard-response","116","544110","0.0-6.0-5.15","3030664","co38017","norming","","","","","","",""
"1713.7150000007823","","","post_reveal_questions","survey-likert","117","545827","0.0-6.0-6.15","3030664","co38017","norming","","","{""aha"":1}","[0]","../img/tt/1251tt.jpg","",""
"null","<div style=""font-size:60px;""> </div>","null","fixation","html-keyboard-response","118","546040","0.0-6.0-0.16","3030664","co38017","norming","","","","","","",""
"null","../img/tt/517tt.jpg","null","mooney1","image-keyboard-response","119","549047","0.0-6.0-1.16","3030664","co38017","norming","","","","","","",""
"5283.844999999972","","","post_mooney1_questions","survey-likert","120","554335","0.0-6.0-2.16","3030664","co38017","norming","","","{""curiosity"":6,""confidence"":3}","[0,1]","../img/tt/517tt.jpg","",""
"2040.340000000433","","","recognition","survey-text","121","556387","0.0-6.0-3.16","3030664","co38017","norming","","","{""guess"":""kat""}","","../img/tt/517tt.jpg","",""
"null","../img/gs/517gs.jpg","null","reveal","image-keyboard-response","122","558392","0.0-6.0-4.16","3030664","co38017","norming","","","","","","",""
"null","../img/tt/517tt.jpg","null","mooney2","image-keyboard-response","123","560399","0.0-6.0-5.16","3030664","co38017","norming","","","","","","",""
"3089.0899999995017","","","post_reveal_questions","survey-likert","124","563491","0.0-6.0-6.16","3030664","co38017","norming","","","{""aha"":5}","[0]","../img/tt/517tt.jpg","",""
"null","<div style=""font-size:60px;""> </div>","null","fixation","html-keyboard-response","125","563704","0.0-6.0-0.17","3030664","co38017","norming","","","","","","",""
"null","../img/tt/1234tt.jpg","null","mooney1","image-keyboard-response","126","566712","0.0-6.0-1.17","3030664","co38017","norming","","","","","","",""
"4705.724999999744","","","post_mooney1_questions","survey-likert","127","571421","0.0-6.0-2.17","3030664","co38017","norming","","","{""curiosity"":6,""confidence"":2}","[0,1]","../img/tt/1234tt.jpg","",""
"1668.6850000005215","","","recognition","survey-text","128","573101","0.0-6.0-3.17","3030664","co38017","norming","","","{""guess"":""eend""}","","../img/tt/1234tt.jpg","",""
"null","../img/gs/1234gs.jpg","null","reveal","image-keyboard-response","129","575107","0.0-6.0-4.17","3030664","co38017","norming","","","","","","",""
"null","../img/tt/1234tt.jpg","null","mooney2","image-keyboard-response","130","577109","0.0-6.0-5.17","3030664","co38017","norming","","","","","","",""
"2213.060000000056","","","post_reveal_questions","survey-likert","131","579325","0.0-6.0-6.17","3030664","co38017","norming","","","{""aha"":3}","[0]","../img/tt/1234tt.jpg","",""
"null","<div style=""font-size:60px;""> </div>","null","fixation","html-keyboard-response","132","579537","0.0-6.0-0.18","3030664","co38017","norming","","","","","","",""
"null","../img/tt/301tt.jpg","null","mooney1","image-keyboard-response","133","582545","0.0-6.0-1.18","3030664","co38017","norming","","","","","","",""
"4288.245000000577","","","post_mooney1_questions","survey-likert","134","586837","0.0-6.0-2.18","3030664","co38017","norming","","","{""curiosity"":6,""confidence"":1}","[0,1]","../img/tt/301tt.jpg","",""
"2697.755000000121","","","recognition","survey-text","135","589545","0.0-6.0-3.18","3030664","co38017","norming","","","{""guess"":""pistool""}","","../img/tt/301tt.jpg","",""
"null","../img/gs/301gs.jpg","null","reveal","image-keyboard-response","136","591552","0.0-6.0-4.18","3030664","co38017","norming","","","","","","",""
"null","../img/tt/301tt.jpg","null","mooney2","image-keyboard-response","137","593559","0.0-6.0-5.18","3030664","co38017","norming","","","","","","",""
"2484.5150000001304","","","post_reveal_questions","survey-likert","138","596046","0.0-6.0-6.18","3030664","co38017","norming","","","{""aha"":1}","[0]","../img/tt/301tt.jpg","",""
"null","<div style=""font-size:60px;""> </div>","null","fixation","html-keyboard-response","139","596259","0.0-6.0-0.19","3030664","co38017","norming","","","","","","",""
"null","../img/tt/273tt.jpg","null","mooney1","image-keyboard-response","140","599267","0.0-6.0-1.19","3030664","co38017","norming","","","","","","",""
"7723.114999999758","","","post_mooney1_questions","survey-likert","141","606994","0.0-6.0-2.19","3030664","co38017","norming","","","{""curiosity"":6,""confidence"":6}","[0,1]","../img/tt/273tt.jpg","",""
"8692.979999999865","","","recognition","survey-text","142","615699","0.0-6.0-3.19","3030664","co38017","norming","","","{""guess"":""beugel""}","","../img/tt/273tt.jpg","",""
"null","../img/gs/273gs.jpg","null","reveal","image-keyboard-response","143","617706","0.0-6.0-4.19","3030664","co38017","norming","","","","","","",""
"null","../img/tt/273tt.jpg","null","mooney2","image-keyboard-response","144","619710","0.0-6.0-5.19","3030664","co38017","norming","","","","","","",""
"6831.8100000005215","","","post_reveal_questions","survey-likert","145","626545","0.0-6.0-6.19","3030664","co38017","norming","","","{""aha"":1}","[0]","../img/tt/273tt.jpg","",""
"null","<div style=""font-size:60px;""> </div>","null","fixation","html-keyboard-response","146","626758","0.0-6.0-0.20","3030664","co38017","norming","","","","","","",""
"null","../img/tt/1202tt.jpg","null","mooney1","image-keyboard-response","147","629761","0.0-6.0-1.20","3030664","co38017","norming","","","","","","",""
"3462.0700000004144","","","post_mooney1_questions","survey-likert","148","633227","0.0-6.0-2.20","3030664","co38017","norming","","","{""curiosity"":6,""confidence"":0}","[0,1]","../img/tt/1202tt.jpg","",""
"2688.395000000135","","","recognition","survey-text","149","635927","0.0-6.0-3.20","3030664","co38017","norming","","","{""guess"":""stal""}","","../img/tt/1202tt.jpg","",""
"null","../img/gs/1202gs.jpg","null","reveal","image-keyboard-response","150","637933","0.0-6.0-4.20","3030664","co38017","norming","","","","","","",""
"null","../img/tt/1202tt.jpg","null","mooney2","image-keyboard-response","151","639938","0.0-6.0-5.20","3030664","co38017","norming","","","","","","",""
"3456.959999999497","","","post_reveal_questions","survey-likert","152","643398","0.0-6.0-6.20","3030664","co38017","norming","","","{""aha"":5}","[0]","../img/tt/1202tt.jpg","",""
"null","<div style=""font-size:60px;""> </div>","null","fixation","html-keyboard-response","153","643611","0.0-6.0-0.21","3030664","co38017","norming","","","","","","",""
"null","../img/tt/081tt.jpg","null","mooney1","image-keyboard-response","154","646618","0.0-6.0-1.21","3030664","co38017","norming","","","","","","",""
"4302.9550000000745","","","post_mooney1_questions","survey-likert","155","650925","0.0-6.0-2.21","3030664","co38017","norming","","","{""curiosity"":6,""confidence"":5}","[0,1]","../img/tt/081tt.jpg","",""
"1743.9450000001816","","","recognition","survey-text","156","652679","0.0-6.0-3.21","3030664","co38017","norming","","","{""guess"":""kikker""}","","../img/tt/081tt.jpg","",""
"null","../img/gs/081gs.jpg","null","reveal","image-keyboard-response","157","654684","0.0-6.0-4.21","3030664","co38017","norming","","","","","","",""
"null","../img/tt/081tt.jpg","null","mooney2","image-keyboard-response","158","656690","0.0-6.0-5.21","3030664","co38017","norming","","","","","","",""
"2508.1250000003492","","","post_reveal_questions","survey-likert","159","659200","0.0-6.0-6.21","3030664","co38017","norming","","","{""aha"":2}","[0]","../img/tt/081tt.jpg","",""
"null","<div style=""font-size:60px;""> </div>","null","fixation","html-keyboard-response","160","659413","0.0-6.0-0.22","3030664","co38017","norming","","","","","","",""
"null","../img/tt/590tt.jpg","null","mooney1","image-keyboard-response","161","662420","0.0-6.0-1.22","3030664","co38017","norming","","","","","","",""
"5079.42499999993","","","post_mooney1_questions","survey-likert","162","667504","0.0-6.0-2.22","3030664","co38017","norming","","","{""curiosity"":6,""confidence"":5}","[0,1]","../img/tt/590tt.jpg","",""
"1996.4499999996042","","","recognition","survey-text","163","669512","0.0-6.0-3.22","3030664","co38017","norming","","","{""guess"":""bank""}","","../img/tt/590tt.jpg","",""
"null","../img/gs/590gs.jpg","null","reveal","image-keyboard-response","164","671515","0.0-6.0-4.22","3030664","co38017","norming","","","","","","",""
"null","../img/tt/590tt.jpg","null","mooney2","image-keyboard-response","165","673517","0.0-6.0-5.22","3030664","co38017","norming","","","","","","",""
"2669.615000000689","","","post_reveal_questions","survey-likert","166","676189","0.0-6.0-6.22","3030664","co38017","norming","","","{""aha"":2}","[0]","../img/tt/590tt.jpg","",""
"null","<div style=""font-size:60px;""> </div>","null","fixation","html-keyboard-response","167","676402","0.0-6.0-0.23","3030664","co38017","norming","","","","","","",""
"null","../img/tt/580tt.jpg","null","mooney1","image-keyboard-response","168","679410","0.0-6.0-1.23","3030664","co38017","norming","","","","","","",""
"3588.7499999998836","","","post_mooney1_questions","survey-likert","169","683002","0.0-6.0-2.23","3030664","co38017","norming","","","{""curiosity"":6,""confidence"":1}","[0,1]","../img/tt/580tt.jpg","",""
"2058.2549999998882","","","recognition","survey-text","170","685072","0.0-6.0-3.23","3030664","co38017","norming","","","{""guess"":""aap""}","","../img/tt/580tt.jpg","",""
"null","../img/gs/580gs.jpg","null","reveal","image-keyboard-response","171","687080","0.0-6.0-4.23","3030664","co38017","norming","","","","","","",""
"null","../img/tt/580tt.jpg","null","mooney2","image-keyboard-response","172","689086","0.0-6.0-5.23","3030664","co38017","norming","","","","","","",""
"2750.7949999999255","","","post_reveal_questions","survey-likert","173","691840","0.0-6.0-6.23","3030664","co38017","norming","","","{""aha"":5}","[0]","../img/tt/580tt.jpg","",""
"null","<div style=""font-size:60px;""> </div>","null","fixation","html-keyboard-response","174","692053","0.0-6.0-0.24","3030664","co38017","norming","","","","","","",""
"null","../img/tt/163tt.jpg","null","mooney1","image-keyboard-response","175","695060","0.0-6.0-1.24","3030664","co38017","norming","","","","","","",""
"3679.465000000084","","","post_mooney1_questions","survey-likert","176","698744","0.0-6.0-2.24","3030664","co38017","norming","","","{""curiosity"":6,""confidence"":5}","[0,1]","../img/tt/163tt.jpg","",""
"1836.4600000005448","","","recognition","survey-text","177","700592","0.0-6.0-3.24","3030664","co38017","norming","","","{""guess"":""kikker""}","","../img/tt/163tt.jpg","",""
"null","../img/gs/163gs.jpg","null","reveal","image-keyboard-response","178","702599","0.0-6.0-4.24","3030664","co38017","norming","","","","","","",""
"null","../img/tt/163tt.jpg","null","mooney2","image-keyboard-response","179","704606","0.0-6.0-5.24","3030664","co38017","norming","","","","","","",""
"2968.414999999455","","","post_reveal_questions","survey-likert","180","707577","0.0-6.0-6.24","3030664","co38017","norming","","","{""aha"":1}","[0]","../img/tt/163tt.jpg","",""
"null","<div style=""font-size:60px;""> </div>","null","fixation","html-keyboard-response","181","707788","0.0-6.0-0.25","3030664","co38017","norming","","","","","","",""
"null","../img/tt/1272tt.jpg","null","mooney1","image-keyboard-response","182","710795","0.0-6.0-1.25","3030664","co38017","norming","","","","","","",""
"4381.974999999278","","","post_mooney1_questions","survey-likert","183","715181","0.0-6.0-2.25","3030664","co38017","norming","","","{""curiosity"":6,""confidence"":1}","[0,1]","../img/tt/1272tt.jpg","",""
"2027.2900000000373","","","recognition","survey-text","184","717219","0.0-6.0-3.25","3030664","co38017","norming","","","{""guess"":""vogel""}","","../img/tt/1272tt.jpg","",""
"null","../img/gs/1272gs.jpg","null","reveal","image-keyboard-response","185","719226","0.0-6.0-4.25","3030664","co38017","norming","","","","","","",""
"null","../img/tt/1272tt.jpg","null","mooney2","image-keyboard-response","186","721233","0.0-6.0-5.25","3030664","co38017","norming","","","","","","",""
"3476.625000000233","","","post_reveal_questions","survey-likert","187","724712","0.0-6.0-6.25","3030664","co38017","norming","","","{""aha"":5}","[0]","../img/tt/1272tt.jpg","",""
"null","<div style=""font-size:60px;""> </div>","null","fixation","html-keyboard-response","188","724926","0.0-6.0-0.26","3030664","co38017","norming","","","","","","",""
"null","../img/tt/1143tt.jpg","null","mooney1","image-keyboard-response","189","727933","0.0-6.0-1.26","3030664","co38017","norming","","","","","","",""
"6030.415000000154","","","post_mooney1_questions","survey-likert","190","733967","0.0-6.0-2.26","3030664","co38017","norming","","","{""curiosity"":6,""confidence"":0}","[0,1]","../img/tt/1143tt.jpg","",""
"10868.759999999427","","","recognition","survey-text","191","744847","0.0-6.0-3.26","3030664","co38017","norming","","","{""guess"":""""}","","../img/tt/1143tt.jpg","",""
"null","../img/gs/1143gs.jpg","null","reveal","image-keyboard-response","192","746852","0.0-6.0-4.26","3030664","co38017","norming","","","","","","",""
"null","../img/tt/1143tt.jpg","null","mooney2","image-keyboard-response","193","748854","0.0-6.0-5.26","3030664","co38017","norming","","","","","","",""
"5510.624999999884","","","post_reveal_questions","survey-likert","194","754368","0.0-6.0-6.26","3030664","co38017","norming","","","{""aha"":1}","[0]","../img/tt/1143tt.jpg","",""
"null","<div style=""font-size:60px;""> </div>","null","fixation","html-keyboard-response","195","754580","0.0-6.0-0.27","3030664","co38017","norming","","","","","","",""
"null","../img/tt/1309tt.jpg","null","mooney1","image-keyboard-response","196","757588","0.0-6.0-1.27","3030664","co38017","norming","","","","","","",""
"3466.519999999902","","","post_mooney1_questions","survey-likert","197","761058","0.0-6.0-2.27","3030664","co38017","norming","","","{""curiosity"":6,""confidence"":2}","[0,1]","../img/tt/1309tt.jpg","",""
"1854.229999999865","","","recognition","survey-text","198","762923","0.0-6.0-3.27","3030664","co38017","norming","","","{""guess"":""auto""}","","../img/tt/1309tt.jpg","",""
"null","../img/gs/1309gs.jpg","null","reveal","image-keyboard-response","199","764926","0.0-6.0-4.27","3030664","co38017","norming","","","","","","",""
"null","../img/tt/1309tt.jpg","null","mooney2","image-keyboard-response","200","766933","0.0-6.0-5.27","3030664","co38017","norming","","","","","","",""
"6559.949999999837","","","post_reveal_questions","survey-likert","201","773496","0.0-6.0-6.27","3030664","co38017","norming","","","{""aha"":4}","[0]","../img/tt/1309tt.jpg","",""
"null","<div style=""font-size:60px;""> </div>","null","fixation","html-keyboard-response","202","773710","0.0-6.0-0.28","3030664","co38017","norming","","","","","","",""
"null","../img/tt/380tt.jpg","null","mooney1","image-keyboard-response","203","776717","0.0-6.0-1.28","3030664","co38017","norming","","","","","","",""
"3335.5400000000373","","","post_mooney1_questions","survey-likert","204","780057","0.0-6.0-2.28","3030664","co38017","norming","","","{""curiosity"":6,""confidence"":0}","[0,1]","../img/tt/380tt.jpg","",""
"1534.4699999996228","","","recognition","survey-text","205","781601","0.0-6.0-3.28","3030664","co38017","norming","","","{""guess"":""vogel""}","","../img/tt/380tt.jpg","",""
"null","../img/gs/380gs.jpg","null","reveal","image-keyboard-response","206","783604","0.0-6.0-4.28","3030664","co38017","norming","","","","","","",""
"null","../img/tt/380tt.jpg","null","mooney2","image-keyboard-response","207","785609","0.0-6.0-5.28","3030664","co38017","norming","","","","","","",""
"3022.609999999986","","","post_reveal_questions","survey-likert","208","788635","0.0-6.0-6.28","3030664","co38017","norming","","","{""aha"":1}","[0]","../img/tt/380tt.jpg","",""
"null","<div style=""font-size:60px;""> </div>","null","fixation","html-keyboard-response","209","788849","0.0-6.0-0.29","3030664","co38017","norming","","","","","","",""
"null","../img/tt/1146tt.jpg","null","mooney1","image-keyboard-response","210","791857","0.0-6.0-1.29","3030664","co38017","norming","","","","","","",""
"7801.064999999595","","","post_mooney1_questions","survey-likert","211","799662","0.0-6.0-2.29","3030664","co38017","norming","","","{""curiosity"":6,""confidence"":2}","[0,1]","../img/tt/1146tt.jpg","",""
"4962.5149999993155","","","recognition","survey-text","212","804634","0.0-6.0-3.29","3030664","co38017","norming","","","{""guess"":""autobestuurder""}","","../img/tt/1146tt.jpg","",""
"null","../img/gs/1146gs.jpg","null","reveal","image-keyboard-response","213","806641","0.0-6.0-4.29","3030664","co38017","norming","","","","","","",""
"null","../img/tt/1146tt.jpg","null","mooney2","image-keyboard-response","214","808648","0.0-6.0-5.29","3030664","co38017","norming","","","","","","",""
"3664.3649999996414","","","post_reveal_questions","survey-likert","215","812315","0.0-6.0-6.29","3030664","co38017","norming","","","{""aha"":0}","[0]","../img/tt/1146tt.jpg","",""
"null","<div style=""font-size:60px;""> </div>","null","fixation","html-keyboard-response","216","812528","0.0-6.0-0.30","3030664","co38017","norming","","","","","","",""
"null","../img/tt/1173tt.jpg","null","mooney1","image-keyboard-response","217","815535","0.0-6.0-1.30","3030664","co38017","norming","","","","","","",""
"3575.2500000006985","","","post_mooney1_questions","survey-likert","218","819114","0.0-6.0-2.30","3030664","co38017","norming","","","{""curiosity"":6,""confidence"":6}","[0,1]","../img/tt/1173tt.jpg","",""
"3420.2500000001164","","","recognition","survey-text","219","822547","0.0-6.0-3.30","3030664","co38017","norming","","","{""guess"":""voetbal""}","","../img/tt/1173tt.jpg","",""
"null","../img/gs/1173gs.jpg","null","reveal","image-keyboard-response","220","824550","0.0-6.0-4.30","3030664","co38017","norming","","","","","","",""
"null","../img/tt/1173tt.jpg","null","mooney2","image-keyboard-response","221","826556","0.0-6.0-5.30","3030664","co38017","norming","","","","","","",""
"3391.9350000005215","","","post_reveal_questions","survey-likert","222","829951","0.0-6.0-6.30","3030664","co38017","norming","","","{""aha"":6}","[0]","../img/tt/1173tt.jpg","",""
"null","<div style=""font-size:60px;""> </div>","null","fixation","html-keyboard-response","223","830160","0.0-6.0-0.31","3030664","co38017","norming","","","","","","",""
"null","../img/tt/1102tt.jpg","null","mooney1","image-keyboard-response","224","833167","0.0-6.0-1.31","3030664","co38017","norming","","","","","","",""
"5836.1599999998","","","post_mooney1_questions","survey-likert","225","839007","0.0-6.0-2.31","3030664","co38017","norming","","","{""curiosity"":6,""confidence"":4}","[0,1]","../img/tt/1102tt.jpg","",""
"4112.4349999999395","","","recognition","survey-text","226","843129","0.0-6.0-3.31","3030664","co38017","norming","","","{""guess"":""hangmat""}","","../img/tt/1102tt.jpg","",""
"null","../img/gs/1102gs.jpg","null","reveal","image-keyboard-response","227","845136","0.0-6.0-4.31","3030664","co38017","norming","","","","","","",""
"null","../img/tt/1102tt.jpg","null","mooney2","image-keyboard-response","228","847142","0.0-6.0-5.31","3030664","co38017","norming","","","","","","",""
"2695.7000000001863","","","post_reveal_questions","survey-likert","229","849840","0.0-6.0-6.31","3030664","co38017","norming","","","{""aha"":6}","[0]","../img/tt/1102tt.jpg","",""
"null","<div style=""font-size:60px;""> </div>","null","fixation","html-keyboard-response","230","850050","0.0-6.0-0.32","3030664","co38017","norming","","","","","","",""
"null","../img/tt/1186tt.jpg","null","mooney1","image-keyboard-response","231","853057","0.0-6.0-1.32","3030664","co38017","norming","","","","","","",""
"4089.385000000242","","","post_mooney1_questions","survey-likert","232","857150","0.0-6.0-2.32","3030664","co38017","norming","","","{""curiosity"":6,""confidence"":4}","[0,1]","../img/tt/1186tt.jpg","",""
"3259.5000000001164","","","recognition","survey-text","233","860420","0.0-6.0-3.32","3030664","co38017","norming","","","{""guess"":""persoon""}","","../img/tt/1186tt.jpg","",""
"null","../img/gs/1186gs.jpg","null","reveal","image-keyboard-response","234","862428","0.0-6.0-4.32","3030664","co38017","norming","","","","","","",""
"null","../img/tt/1186tt.jpg","null","mooney2","image-keyboard-response","235","864430","0.0-6.0-5.32","3030664","co38017","norming","","","","","","",""
"3093.0250000001397","","","post_reveal_questions","survey-likert","236","867526","0.0-6.0-6.32","3030664","co38017","norming","","","{""aha"":1}","[0]","../img/tt/1186tt.jpg","",""
"null","<div style=""font-size:60px;""> </div>","null","fixation","html-keyboard-response","237","867738","0.0-6.0-0.33","3030664","co38017","norming","","","","","","",""
"null","../img/tt/599tt.jpg","null","mooney1","image-keyboard-response","238","870744","0.0-6.0-1.33","3030664","co38017","norming","","","","","","",""
"4572.710000000428","","","post_mooney1_questions","survey-likert","239","875321","0.0-6.0-2.33","3030664","co38017","norming","","","{""curiosity"":6,""confidence"":1}","[0,1]","../img/tt/599tt.jpg","",""
"1697.755000000121","","","recognition","survey-text","240","877029","0.0-6.0-3.33","3030664","co38017","norming","","","{""guess"":""vlinder""}","","../img/tt/599tt.jpg","",""
"null","../img/gs/599gs.jpg","null","reveal","image-keyboard-response","241","879036","0.0-6.0-4.33","3030664","co38017","norming","","","","","","",""
"null","../img/tt/599tt.jpg","null","mooney2","image-keyboard-response","242","881038","0.0-6.0-5.33","3030664","co38017","norming","","","","","","",""
"1912.994999999646","","","post_reveal_questions","survey-likert","243","882954","0.0-6.0-6.33","3030664","co38017","norming","","","{""aha"":6}","[0]","../img/tt/599tt.jpg","",""
"null","<div style=""font-size:60px;""> </div>","null","fixation","html-keyboard-response","244","883168","0.0-6.0-0.34","3030664","co38017","norming","","","","","","",""
"null","../img/tt/1188tt.jpg","null","mooney1","image-keyboard-response","245","886171","0.0-6.0-1.34","3030664","co38017","norming","","","","","","",""
"4232.135000000126","","","post_mooney1_questions","survey-likert","246","890407","0.0-6.0-2.34","3030664","co38017","norming","","","{""curiosity"":6,""confidence"":5}","[0,1]","../img/tt/1188tt.jpg","",""
"2467.5950000000885","","","recognition","survey-text","247","892885","0.0-6.0-3.34","3030664","co38017","norming","","","{""guess"":""persoon""}","","../img/tt/1188tt.jpg","",""
"null","../img/gs/1188gs.jpg","null","reveal","image-keyboard-response","248","894889","0.0-6.0-4.34","3030664","co38017","norming","","","","","","",""
"null","../img/tt/1188tt.jpg","null","mooney2","image-keyboard-response","249","896895","0.0-6.0-5.34","3030664","co38017","norming","","","","","","",""
"2648.670000000391","","","post_reveal_questions","survey-likert","250","899547","0.0-6.0-6.34","3030664","co38017","norming","","","{""aha"":6}","[0]","../img/tt/1188tt.jpg","",""
"null","<div style=""font-size:60px;""> </div>","null","fixation","html-keyboard-response","251","899760","0.0-6.0-0.35","3030664","co38017","norming","","","","","","",""
"null","../img/tt/078tt.jpg","null","mooney1","image-keyboard-response","252","902763","0.0-6.0-1.35","3030664","co38017","norming","","","","","","",""
"6272.135000000126","","","post_mooney1_questions","survey-likert","253","909039","0.0-6.0-2.35","3030664","co38017","norming","","","{""curiosity"":6,""confidence"":3}","[0,1]","../img/tt/078tt.jpg","",""
"2462.6599999992177","","","recognition","survey-text","254","911513","0.0-6.0-3.35","3030664","co38017","norming","","","{""guess"":""blad""}","","../img/tt/078tt.jpg","",""
"null","../img/gs/078gs.jpg","null","reveal","image-keyboard-response","255","913520","0.0-6.0-4.35","3030664","co38017","norming","","","","","","",""
"null","../img/tt/078tt.jpg","null","mooney2","image-keyboard-response","256","915527","0.0-6.0-5.35","3030664","co38017","norming","","","","","","",""
"2022.9050000007264","","","post_reveal_questions","survey-likert","257","917552","0.0-6.0-6.35","3030664","co38017","norming","","","{""aha"":6}","[0]","../img/tt/078tt.jpg","",""
"null","<div style=""font-size:60px;""> </div>","null","fixation","html-keyboard-response","258","917766","0.0-6.0-0.36","3030664","co38017","norming","","","","","","",""
"null","../img/tt/405tt.jpg","null","mooney1","image-keyboard-response","259","920773","0.0-6.0-1.36","3030664","co38017","norming","","","","","","",""
"4559.979999999981","","","post_mooney1_questions","survey-likert","260","925337","0.0-6.0-2.36","3030664","co38017","norming","","","{""curiosity"":6,""confidence"":6}","[0,1]","../img/tt/405tt.jpg","",""
"1854.119999999879","","","recognition","survey-text","261","927202","0.0-6.0-3.36","3030664","co38017","norming","","","{""guess"":""koala""}","","../img/tt/405tt.jpg","",""
"null","../img/gs/405gs.jpg","null","reveal","image-keyboard-response","262","929208","0.0-6.0-4.36","3030664","co38017","norming","","","","","","",""
"null","../img/tt/405tt.jpg","null","mooney2","image-keyboard-response","263","931215","0.0-6.0-5.36","3030664","co38017","norming","","","","","","",""
"3209.284999999916","","","post_reveal_questions","survey-likert","264","934427","0.0-6.0-6.36","3030664","co38017","norming","","","{""aha"":0}","[0]","../img/tt/405tt.jpg","",""
"null","<div style=""font-size:60px;""> </div>","null","fixation","html-keyboard-response","265","934640","0.0-6.0-0.37","3030664","co38017","norming","","","","","","",""
"null","../img/tt/357tt.jpg","null","mooney1","image-keyboard-response","266","937647","0.0-6.0-1.37","3030664","co38017","norming","","","","","","",""
"4435.830000000307","","","post_mooney1_questions","survey-likert","267","942087","0.0-6.0-2.37","3030664","co38017","norming","","","{""curiosity"":6,""confidence"":1}","[0,1]","../img/tt/357tt.jpg","",""
"1609.4899999997579","","","recognition","survey-text","268","943707","0.0-6.0-3.37","3030664","co38017","norming","","","{""guess"":""haan""}","","../img/tt/357tt.jpg","",""
"null","../img/gs/357gs.jpg","null","reveal","image-keyboard-response","269","945710","0.0-6.0-4.37","3030664","co38017","norming","","","","","","",""
"null","../img/tt/357tt.jpg","null","mooney2","image-keyboard-response","270","947714","0.0-6.0-5.37","3030664","co38017","norming","","","","","","",""
"2505.5700000001816","","","post_reveal_questions","survey-likert","271","950222","0.0-6.0-6.37","3030664","co38017","norming","","","{""aha"":6}","[0]","../img/tt/357tt.jpg","",""
"null","<div style=""font-size:60px;""> </div>","null","fixation","html-keyboard-response","272","950435","0.0-6.0-0.38","3030664","co38017","norming","","","","","","",""
"null","../img/tt/1227tt.jpg","null","mooney1","image-keyboard-response","273","953443","0.0-6.0-1.38","3030664","co38017","norming","","","","","","",""
"3181.704999999958","","","post_mooney1_questions","survey-likert","274","956628","0.0-6.0-2.38","3030664","co38017","norming","","","{""curiosity"":6,""confidence"":0}","[0,1]","../img/tt/1227tt.jpg","",""
"820.4149999992223","","","recognition","survey-text","275","957459","0.0-6.0-3.38","3030664","co38017","norming","","","{""guess"":""""}","","../img/tt/1227tt.jpg","",""
"null","../img/gs/1227gs.jpg","null","reveal","image-keyboard-response","276","959466","0.0-6.0-4.38","3030664","co38017","norming","","","","","","",""
"null","../img/tt/1227tt.jpg","null","mooney2","image-keyboard-response","277","961473","0.0-6.0-5.38","3030664","co38017","norming","","","","","","",""
"2547.905000000377","","","post_reveal_questions","survey-likert","278","964023","0.0-6.0-6.38","3030664","co38017","norming","","","{""aha"":2}","[0]","../img/tt/1227tt.jpg","",""
"null","<div style=""font-size:60px;""> </div>","null","fixation","html-keyboard-response","279","964234","0.0-6.0-0.39","3030664","co38017","norming","","","","","","",""
"null","../img/tt/105tt.jpg","null","mooney1","image-keyboard-response","280","967242","0.0-6.0-1.39","3030664","co38017","norming","","","","","","",""
"4668.965000000782","","","post_mooney1_questions","survey-likert","281","971915","0.0-6.0-2.39","3030664","co38017","norming","","","{""curiosity"":6,""confidence"":4}","[0,1]","../img/tt/105tt.jpg","",""
"3896.6849999997066","","","recognition","survey-text","282","975823","0.0-6.0-3.39","3030664","co38017","norming","","","{""guess"":""paperclip""}","","../img/tt/105tt.jpg","",""
"null","../img/gs/105gs.jpg","null","reveal","image-keyboard-response","283","977831","0.0-6.0-4.39","3030664","co38017","norming","","","","","","",""
"null","../img/tt/105tt.jpg","null","mooney2","image-keyboard-response","284","979838","0.0-6.0-5.39","3030664","co38017","norming","","","","","","",""
"4232.969999999972","","","post_reveal_questions","survey-likert","285","984074","0.0-6.0-6.39","3030664","co38017","norming","","","{""aha"":1}","[0]","../img/tt/105tt.jpg","",""
"null","<div style=""font-size:60px;""> </div>","null","fixation","html-keyboard-response","286","984285","0.0-6.0-0.40","3030664","co38017","norming","","","","","","",""
"null","../img/tt/013tt.jpg","null","mooney1","image-keyboard-response","287","987289","0.0-6.0-1.40","3030664","co38017","norming","","","","","","",""
"6629.714999999967","","","post_mooney1_questions","survey-likert","288","993923","0.0-6.0-2.40","3030664","co38017","norming","","","{""curiosity"":6,""confidence"":1}","[0,1]","../img/tt/013tt.jpg","",""
"5288.935000000405","","","recognition","survey-text","289","999224","0.0-6.0-3.40","3030664","co38017","norming","","","{""guess"":""gezicht""}","","../img/tt/013tt.jpg","",""
"null","../img/gs/013gs.jpg","null","reveal","image-keyboard-response","290","1001226","0.0-6.0-4.40","3030664","co38017","norming","","","","","","",""
"null","../img/tt/013tt.jpg","null","mooney2","image-keyboard-response","291","1003233","0.0-6.0-5.40","3030664","co38017","norming","","","","","","",""
"2084.910000000382","","","post_reveal_questions","survey-likert","292","1005321","0.0-6.0-6.40","3030664","co38017","norming","","","{""aha"":6}","[0]","../img/tt/013tt.jpg","",""
"null","<div style=""font-size:60px;""> </div>","null","fixation","html-keyboard-response","293","1005534","0.0-6.0-0.41","3030664","co38017","norming","","","","","","",""
"null","../img/tt/1127tt.jpg","null","mooney1","image-keyboard-response","294","1008537","0.0-6.0-1.41","3030664","co38017","norming","","","","","","",""
"4941.069999999832","","","post_mooney1_questions","survey-likert","295","1013482","0.0-6.0-2.41","3030664","co38017","norming","","","{""curiosity"":6,""confidence"":5}","[0,1]","../img/tt/1127tt.jpg","",""
"2525.9799999993993","","","recognition","survey-text","296","1016017","0.0-6.0-3.41","3030664","co38017","norming","","","{""guess"":""pastoor""}","","../img/tt/1127tt.jpg","",""
"null","../img/gs/1127gs.jpg","null","reveal","image-keyboard-response","297","1018025","0.0-6.0-4.41","3030664","co38017","norming","","","","","","",""
"null","../img/tt/1127tt.jpg","null","mooney2","image-keyboard-response","298","1020028","0.0-6.0-5.41","3030664","co38017","norming","","","","","","",""
"2952.8699999999953","","","post_reveal_questions","survey-likert","299","1022984","0.0-6.0-6.41","3030664","co38017","norming","","","{""aha"":6}","[0]","../img/tt/1127tt.jpg","",""
"null","<div style=""font-size:60px;""> </div>","null","fixation","html-keyboard-response","300","1023197","0.0-6.0-0.42","3030664","co38017","norming","","","","","","",""
"null","../img/tt/123tt.jpg","null","mooney1","image-keyboard-response","301","1026204","0.0-6.0-1.42","3030664","co38017","norming","","","","","","",""
"3586.1749999994645","","","post_mooney1_questions","survey-likert","302","1029794","0.0-6.0-2.42","3030664","co38017","norming","","","{""curiosity"":6,""confidence"":3}","[0,1]","../img/tt/123tt.jpg","",""
"3214.4249999992317","","","recognition","survey-text","303","1033020","0.0-6.0-3.42","3030664","co38017","norming","","","{""guess"":""boekentas""}","","../img/tt/123tt.jpg","",""
"null","../img/gs/123gs.jpg","null","reveal","image-keyboard-response","304","1035024","0.0-6.0-4.42","3030664","co38017","norming","","","","","","",""
"null","../img/tt/123tt.jpg","null","mooney2","image-keyboard-response","305","1037031","0.0-6.0-5.42","3030664","co38017","norming","","","","","","",""
"2458.005000000354","","","post_reveal_questions","survey-likert","306","1039491","0.0-6.0-6.42","3030664","co38017","norming","","","{""aha"":2}","[0]","../img/tt/123tt.jpg","",""
"null","<div style=""font-size:60px;""> </div>","null","fixation","html-keyboard-response","307","1039704","0.0-6.0-0.43","3030664","co38017","norming","","","","","","",""
"null","../img/tt/1089tt.jpg","null","mooney1","image-keyboard-response","308","1042714","0.0-6.0-1.43","3030664","co38017","norming","","","","","","",""
"3150.0399999993388","","","post_mooney1_questions","survey-likert","309","1045868","0.0-6.0-2.43","3030664","co38017","norming","","","{""curiosity"":6,""confidence"":6}","[0,1]","../img/tt/1089tt.jpg","",""
"2667.285000000382","","","recognition","survey-text","310","1048547","0.0-6.0-3.43","3030664","co38017","norming","","","{""guess"":""olifant""}","","../img/tt/1089tt.jpg","",""
"null","../img/gs/1089gs.jpg","null","reveal","image-keyboard-response","311","1050554","0.0-6.0-4.43","3030664","co38017","norming","","","","","","",""
"null","../img/tt/1089tt.jpg","null","mooney2","image-keyboard-response","312","1052561","0.0-6.0-5.43","3030664","co38017","norming","","","","","","",""
"3069.029999999795","","","post_reveal_questions","survey-likert","313","1055633","0.0-6.0-6.43","3030664","co38017","norming","","","{""aha"":4}","[0]","../img/tt/1089tt.jpg","",""
"null","<div style=""font-size:60px;""> </div>","null","fixation","html-keyboard-response","314","1055846","0.0-6.0-0.44","3030664","co38017","norming","","","","","","",""
"null","../img/tt/1024tt.jpg","null","mooney1","image-keyboard-response","315","1058853","0.0-6.0-1.44","3030664","co38017","norming","","","","","","",""
"3682.100000000093","","","post_mooney1_questions","survey-likert","316","1062539","0.0-6.0-2.44","3030664","co38017","norming","","","{""curiosity"":6,""confidence"":6}","[0,1]","../img/tt/1024tt.jpg","",""
"5226.735000000335","","","recognition","survey-text","317","1067778","0.0-6.0-3.44","3030664","co38017","norming","","","{""guess"":""dansende vrouw""}","","../img/tt/1024tt.jpg","",""
"null","../img/gs/1024gs.jpg","null","reveal","image-keyboard-response","318","1069781","0.0-6.0-4.44","3030664","co38017","norming","","","","","","",""
"null","../img/tt/1024tt.jpg","null","mooney2","image-keyboard-response","319","1071787","0.0-6.0-5.44","3030664","co38017","norming","","","","","","",""
"2491.7350000003353","","","post_reveal_questions","survey-likert","320","1074282","0.0-6.0-6.44","3030664","co38017","norming","","","{""aha"":1}","[0]","../img/tt/1024tt.jpg","",""
"null","<div style=""font-size:60px;""> </div>","null","fixation","html-keyboard-response","321","1074490","0.0-6.0-0.45","3030664","co38017","norming","","","","","","",""
"null","../img/tt/559tt.jpg","null","mooney1","image-keyboard-response","322","1077497","0.0-6.0-1.45","3030664","co38017","norming","","","","","","",""
"3185.2149999993853","","","post_mooney1_questions","survey-likert","323","1080686","0.0-6.0-2.45","3030664","co38017","norming","","","{""curiosity"":6,""confidence"":2}","[0,1]","../img/tt/559tt.jpg","",""
"3074.0300000007264","","","recognition","survey-text","324","1083771","0.0-6.0-3.45","3030664","co38017","norming","","","{""guess"":""boek""}","","../img/tt/559tt.jpg","",""
"null","../img/gs/559gs.jpg","null","reveal","image-keyboard-response","325","1085778","0.0-6.0-4.45","3030664","co38017","norming","","","","","","",""
"null","../img/tt/559tt.jpg","null","mooney2","image-keyboard-response","326","1087782","0.0-6.0-5.45","3030664","co38017","norming","","","","","","",""
"2966.755000000354","","","post_reveal_questions","survey-likert","327","1090752","0.0-6.0-6.45","3030664","co38017","norming","","","{""aha"":4}","[0]","../img/tt/559tt.jpg","",""
"null","<div style=""font-size:60px;""> </div>","null","fixation","html-keyboard-response","328","1090968","0.0-6.0-0.46","3030664","co38017","norming","","","","","","",""
"null","../img/tt/318tt.jpg","null","mooney1","image-keyboard-response","329","1093975","0.0-6.0-1.46","3030664","co38017","norming","","","","","","",""
"4045.1700000001583","","","post_mooney1_questions","survey-likert","330","1098024","0.0-6.0-2.46","3030664","co38017","norming","","","{""curiosity"":6,""confidence"":2}","[0,1]","../img/tt/318tt.jpg","",""
"3941.2549999996554","","","recognition","survey-text","331","1101976","0.0-6.0-3.46","3030664","co38017","norming","","","{""guess"":""rugbyspeler""}","","../img/tt/318tt.jpg","",""
"null","../img/gs/318gs.jpg","null","reveal","image-keyboard-response","332","1103981","0.0-6.0-4.46","3030664","co38017","norming","","","","","","",""
"null","../img/tt/318tt.jpg","null","mooney2","image-keyboard-response","333","1105988","0.0-6.0-5.46","3030664","co38017","norming","","","","","","",""
"1897.519999999553","","","post_reveal_questions","survey-likert","334","1107888","0.0-6.0-6.46","3030664","co38017","norming","","","{""aha"":1}","[0]","../img/tt/318tt.jpg","",""
"null","<div style=""font-size:60px;""> </div>","null","fixation","html-keyboard-response","335","1108101","0.0-6.0-0.47","3030664","co38017","norming","","","","","","",""
"null","../img/tt/085tt.jpg","null","mooney1","image-keyboard-response","336","1111109","0.0-6.0-1.47","3030664","co38017","norming","","","","","","",""
"5733.755000000121","","","post_mooney1_questions","survey-likert","337","1116846","0.0-6.0-2.47","3030664","co38017","norming","","","{""curiosity"":6,""confidence"":0}","[0,1]","../img/tt/085tt.jpg","",""
"2385.3450000004377","","","recognition","survey-text","338","1119243","0.0-6.0-3.47","3030664","co38017","norming","","","{""guess"":""jezus""}","","../img/tt/085tt.jpg","",""
"null","../img/gs/085gs.jpg","null","reveal","image-keyboard-response","339","1121250","0.0-6.0-4.47","3030664","co38017","norming","","","","","","",""
"null","../img/tt/085tt.jpg","null","mooney2","image-keyboard-response","340","1123257","0.0-6.0-5.47","3030664","co38017","norming","","","","","","",""
"1723.5149999996647","","","post_reveal_questions","survey-likert","341","1124984","0.0-6.0-6.47","3030664","co38017","norming","","","{""aha"":0}","[0]","../img/tt/085tt.jpg","",""
"null","<div style=""font-size:60px;""> </div>","null","fixation","html-keyboard-response","342","1125197","0.0-6.0-0.48","3030664","co38017","norming","","","","","","",""
"null","../img/tt/1239tt.jpg","null","mooney1","image-keyboard-response","343","1128203","0.0-6.0-1.48","3030664","co38017","norming","","","","","","",""
"3334.230000000447","","","post_mooney1_questions","survey-likert","344","1131541","0.0-6.0-2.48","3030664","co38017","norming","","","{""curiosity"":6,""confidence"":6}","[0,1]","../img/tt/1239tt.jpg","",""
"2063.2599999997765","","","recognition","survey-text","345","1133614","0.0-6.0-3.48","3030664","co38017","norming","","","{""guess"":""kat""}","","../img/tt/1239tt.jpg","",""
"null","../img/gs/1239gs.jpg","null","reveal","image-keyboard-response","346","1135620","0.0-6.0-4.48","3030664","co38017","norming","","","","","","",""
"null","../img/tt/1239tt.jpg","null","mooney2","image-keyboard-response","347","1137626","0.0-6.0-5.48","3030664","co38017","norming","","","","","","",""
"3280.929999999935","","","post_reveal_questions","survey-likert","348","1140910","0.0-6.0-6.48","3030664","co38017","norming","","","{""aha"":5}","[0]","../img/tt/1239tt.jpg","",""
"null","<div style=""font-size:60px;""> </div>","null","fixation","html-keyboard-response","349","1141123","0.0-6.0-0.49","3030664","co38017","norming","","","","","","",""
"null","../img/tt/001tt.jpg","null","mooney1","image-keyboard-response","350","1144130","0.0-6.0-1.49","3030664","co38017","norming","","","","","","",""
"3417.0250000006054","","","post_mooney1_questions","survey-likert","351","1147551","0.0-6.0-2.49","3030664","co38017","norming","","","{""curiosity"":6,""confidence"":6}","[0,1]","../img/tt/001tt.jpg","",""
"2942.5100000000093","","","recognition","survey-text","352","1150505","0.0-6.0-3.49","3030664","co38017","norming","","","{""guess"":""uil""}","","../img/tt/001tt.jpg","",""
"null","../img/gs/001gs.jpg","null","reveal","image-keyboard-response","353","1152508","0.0-6.0-4.49","3030664","co38017","norming","","","","","","",""
"null","../img/tt/001tt.jpg","null","mooney2","image-keyboard-response","354","1154515","0.0-6.0-5.49","3030664","co38017","norming","","","","","","",""
"2026.8400000003166","","","post_reveal_questions","survey-likert","355","1156545","0.0-6.0-6.49","3030664","co38017","norming","","","{""aha"":0}","[0]","../img/tt/001tt.jpg","",""
"null","<div style=""font-size:60px;""> </div>","null","fixation","html-keyboard-response","356","1156758","0.0-6.0-0.50","3030664","co38017","norming","","","","","","",""
"null","../img/tt/1061tt.jpg","null","mooney1","image-keyboard-response","357","1159762","0.0-6.0-1.50","3030664","co38017","norming","","","","","","",""
"3586.0500000000466","","","post_mooney1_questions","survey-likert","358","1163352","0.0-6.0-2.50","3030664","co38017","norming","","","{""curiosity"":6,""confidence"":5}","[0,1]","../img/tt/1061tt.jpg","",""
"6671.355000000214","","","recognition","survey-text","359","1170034","0.0-6.0-3.50","3030664","co38017","norming","","","{""guess"":""sportende mensen ""}","","../img/tt/1061tt.jpg","",""
"null","../img/gs/1061gs.jpg","null","reveal","image-keyboard-response","360","1172037","0.0-6.0-4.50","3030664","co38017","norming","","","","","","",""
"null","../img/tt/1061tt.jpg","null","mooney2","image-keyboard-response","361","1174043","0.0-6.0-5.50","3030664","co38017","norming","","","","","","",""
"2845.475000000093","","","post_reveal_questions","survey-likert","362","1176891","0.0-6.0-6.50","3030664","co38017","norming","","","{""aha"":3}","[0]","../img/tt/1061tt.jpg","",""
"null","<div style=""font-size:60px;""> </div>","null","fixation","html-keyboard-response","363","1177103","0.0-6.0-0.51","3030664","co38017","norming","","","","","","",""
"null","../img/tt/056tt.jpg","null","mooney1","image-keyboard-response","364","1180109","0.0-6.0-1.51","3030664","co38017","norming","","","","","","",""
"3587.125","","","post_mooney1_questions","survey-likert","365","1183700","0.0-6.0-2.51","3030664","co38017","norming","","","{""curiosity"":6,""confidence"":3}","[0,1]","../img/tt/056tt.jpg","",""
"1756.440000000177","","","recognition","survey-text","366","1185466","0.0-6.0-3.51","3030664","co38017","norming","","","{""guess"":""persoon""}","","../img/tt/056tt.jpg","",""
"null","../img/gs/056gs.jpg","null","reveal","image-keyboard-response","367","1187472","0.0-6.0-4.51","3030664","co38017","norming","","","","","","",""
"null","../img/tt/056tt.jpg","null","mooney2","image-keyboard-response","368","1189479","0.0-6.0-5.51","3030664","co38017","norming","","","","","","",""
"1670.0400000000373","","","post_reveal_questions","survey-likert","369","1191152","0.0-6.0-6.51","3030664","co38017","norming","","","{""aha"":0}","[0]","../img/tt/056tt.jpg","",""
"null","<div style=""font-size:60px;""> </div>","null","fixation","html-keyboard-response","370","1191363","0.0-6.0-0.52","3030664","co38017","norming","","","","","","",""
"null","../img/tt/1241tt.jpg","null","mooney1","image-keyboard-response","371","1194370","0.0-6.0-1.52","3030664","co38017","norming","","","","","","",""
"4375.719999999972","","","post_mooney1_questions","survey-likert","372","1198750","0.0-6.0-2.52","3030664","co38017","norming","","","{""curiosity"":6,""confidence"":3}","[0,1]","../img/tt/1241tt.jpg","",""
"4745.89000000013","","","recognition","survey-text","373","1203507","0.0-6.0-3.52","3030664","co38017","norming","","","{""guess"":""katachtige ""}","","../img/tt/1241tt.jpg","",""
"null","../img/gs/1241gs.jpg","null","reveal","image-keyboard-response","374","1205510","0.0-6.0-4.52","3030664","co38017","norming","","","","","","",""
"null","../img/tt/1241tt.jpg","null","mooney2","image-keyboard-response","375","1207513","0.0-6.0-5.52","3030664","co38017","norming","","","","","","",""
"3777.7299999997485","","","post_reveal_questions","survey-likert","376","1211293","0.0-6.0-6.52","3030664","co38017","norming","","","{""aha"":5}","[0]","../img/tt/1241tt.jpg","",""
"null","<div style=""font-size:60px;""> </div>","null","fixation","html-keyboard-response","377","1211506","0.0-6.0-0.53","3030664","co38017","norming","","","","","","",""
"null","../img/tt/477tt.jpg","null","mooney1","image-keyboard-response","378","1214509","0.0-6.0-1.53","3030664","co38017","norming","","","","","","",""
"4049.070000000065","","","post_mooney1_questions","survey-likert","379","1218562","0.0-6.0-2.53","3030664","co38017","norming","","","{""curiosity"":6,""confidence"":0}","[0,1]","../img/tt/477tt.jpg","",""
"2120.419999999227","","","recognition","survey-text","380","1220693","0.0-6.0-3.53","3030664","co38017","norming","","","{""guess"":""""}","","../img/tt/477tt.jpg","",""
"null","../img/gs/477gs.jpg","null","reveal","image-keyboard-response","381","1222700","0.0-6.0-4.53","3030664","co38017","norming","","","","","","",""
"null","../img/tt/477tt.jpg","null","mooney2","image-keyboard-response","382","1224707","0.0-6.0-5.53","3030664","co38017","norming","","","","","","",""
"2048.0250000001397","","","post_reveal_questions","survey-likert","383","1226758","0.0-6.0-6.53","3030664","co38017","norming","","","{""aha"":6}","[0]","../img/tt/477tt.jpg","",""
"null","<div style=""font-size:60px;""> </div>","null","fixation","html-keyboard-response","384","1226966","0.0-6.0-0.54","3030664","co38017","norming","","","","","","",""
"null","../img/tt/091tt.jpg","null","mooney1","image-keyboard-response","385","1229968","0.0-6.0-1.54","3030664","co38017","norming","","","","","","",""
"4155.01500000013","","","post_mooney1_questions","survey-likert","386","1234126","0.0-6.0-2.54","3030664","co38017","norming","","","{""curiosity"":6,""confidence"":4}","[0,1]","../img/tt/091tt.jpg","",""
"3017.3799999994226","","","recognition","survey-text","387","1237155","0.0-6.0-3.54","3030664","co38017","norming","","","{""guess"":""leguaan""}","","../img/tt/091tt.jpg","",""
"null","../img/gs/091gs.jpg","null","reveal","image-keyboard-response","388","1239162","0.0-6.0-4.54","3030664","co38017","norming","","","","","","",""
"null","../img/tt/091tt.jpg","null","mooney2","image-keyboard-response","389","1241165","0.0-6.0-5.54","3030664","co38017","norming","","","","","","",""
"3017.784999999916","","","post_reveal_questions","survey-likert","390","1244186","0.0-6.0-6.54","3030664","co38017","norming","","","{""aha"":3}","[0]","../img/tt/091tt.jpg","",""
"null","<div style=""font-size:60px;""> </div>","null","fixation","html-keyboard-response","391","1244400","0.0-6.0-0.55","3030664","co38017","norming","","","","","","",""
"null","../img/tt/1224tt.jpg","null","mooney1","image-keyboard-response","392","1247403","0.0-6.0-1.55","3030664","co38017","norming","","","","","","",""
"6188.290000000037","","","post_mooney1_questions","survey-likert","393","1253595","0.0-6.0-2.55","3030664","co38017","norming","","","{""curiosity"":6,""confidence"":2}","[0,1]","../img/tt/1224tt.jpg","",""
"2846.6650000000373","","","recognition","survey-text","394","1256452","0.0-6.0-3.55","3030664","co38017","norming","","","{""guess"":""gezicht""}","","../img/tt/1224tt.jpg","",""
"null","../img/gs/1224gs.jpg","null","reveal","image-keyboard-response","395","1258458","0.0-6.0-4.55","3030664","co38017","norming","","","","","","",""
"null","../img/tt/1224tt.jpg","null","mooney2","image-keyboard-response","396","1260464","0.0-6.0-5.55","3030664","co38017","norming","","","","","","",""
"2580.9600000001956","","","post_reveal_questions","survey-likert","397","1263048","0.0-6.0-6.55","3030664","co38017","norming","","","{""aha"":6}","[0]","../img/tt/1224tt.jpg","",""
"null","<div style=""font-size:60px;""> </div>","null","fixation","html-keyboard-response","398","1263259","0.0-6.0-0.56","3030664","co38017","norming","","","","","","",""
"null","../img/tt/1040tt.jpg","null","mooney1","image-keyboard-response","399","1266267","0.0-6.0-1.56","3030664","co38017","norming","","","","","","",""
"8858.414999999804","","","post_mooney1_questions","survey-likert","400","1275129","0.0-6.0-2.56","3030664","co38017","norming","","","{""curiosity"":6,""confidence"":0}","[0,1]","../img/tt/1040tt.jpg","",""
"972.1250000002328","","","recognition","survey-text","401","1276112","0.0-6.0-3.56","3030664","co38017","norming","","","{""guess"":""""}","","../img/tt/1040tt.jpg","",""
"null","../img/gs/1040gs.jpg","null","reveal","image-keyboard-response","402","1278120","0.0-6.0-4.56","3030664","co38017","norming","","","","","","",""
"null","../img/tt/1040tt.jpg","null","mooney2","image-keyboard-response","403","1280126","0.0-6.0-5.56","3030664","co38017","norming","","","","","","",""
"2481.3199999998324","","","post_reveal_questions","survey-likert","404","1282611","0.0-6.0-6.56","3030664","co38017","norming","","","{""aha"":6}","[0]","../img/tt/1040tt.jpg","",""
"null","<div style=""font-size:60px;""> </div>","null","fixation","html-keyboard-response","405","1282824","0.0-6.0-0.57","3030664","co38017","norming","","","","","","",""
"null","../img/tt/1307tt.jpg","null","mooney1","image-keyboard-response","406","1285831","0.0-6.0-1.57","3030664","co38017","norming","","","","","","",""
"4492.225000000093","","","post_mooney1_questions","survey-likert","407","1290327","0.0-6.0-2.57","3030664","co38017","norming","","","{""curiosity"":6,""confidence"":3}","[0,1]","../img/tt/1307tt.jpg","",""
"3753.29499999946","","","recognition","survey-text","408","1294092","0.0-6.0-3.57","3030664","co38017","norming","","","{""guess"":""kalkoen""}","","../img/tt/1307tt.jpg","",""
"null","../img/gs/1307gs.jpg","null","reveal","image-keyboard-response","409","1296100","0.0-6.0-4.57","3030664","co38017","norming","","","","","","",""
"null","../img/tt/1307tt.jpg","null","mooney2","image-keyboard-response","410","1298106","0.0-6.0-5.57","3030664","co38017","norming","","","","","","",""
"2435.3799999998882","","","post_reveal_questions","survey-likert","411","1300545","0.0-6.0-6.57","3030664","co38017","norming","","","{""aha"":0}","[0]","../img/tt/1307tt.jpg","",""
"null","<div style=""font-size:60px;""> </div>","null","fixation","html-keyboard-response","412","1300757","0.0-6.0-0.58","3030664","co38017","norming","","","","","","",""
"null","../img/tt/1175tt.jpg","null","mooney1","image-keyboard-response","413","1303762","0.0-6.0-1.58","3030664","co38017","norming","","","","","","",""
"4014.409999999916","","","post_mooney1_questions","survey-likert","414","1307781","0.0-6.0-2.58","3030664","co38017","norming","","","{""curiosity"":6,""confidence"":5}","[0,1]","../img/tt/1175tt.jpg","",""
"4380.369999999646","","","recognition","survey-text","415","1312173","0.0-6.0-3.58","3030664","co38017","norming","","","{""guess"":""boogschieter""}","","../img/tt/1175tt.jpg","",""
"null","../img/gs/1175gs.jpg","null","reveal","image-keyboard-response","416","1314176","0.0-6.0-4.58","3030664","co38017","norming","","","","","","",""
"null","../img/tt/1175tt.jpg","null","mooney2","image-keyboard-response","417","1316183","0.0-6.0-5.58","3030664","co38017","norming","","","","","","",""
"2129.41500000027","","","post_reveal_questions","survey-likert","418","1318316","0.0-6.0-6.58","3030664","co38017","norming","","","{""aha"":6}","[0]","../img/tt/1175tt.jpg","",""
"null","<div style=""font-size:60px;""> </div>","null","fixation","html-keyboard-response","419","1318527","0.0-6.0-0.59","3030664","co38017","norming","","","","","","",""
"null","../img/tt/1044tt.jpg","null","mooney1","image-keyboard-response","420","1321534","0.0-6.0-1.59","3030664","co38017","norming","","","","","","",""
"4143.550000000512","","","post_mooney1_questions","survey-likert","421","1325682","0.0-6.0-2.59","3030664","co38017","norming","","","{""curiosity"":6,""confidence"":0}","[0,1]","../img/tt/1044tt.jpg","",""
"722.4999999997672","","","recognition","survey-text","422","1326414","0.0-6.0-3.59","3030664","co38017","norming","","","{""guess"":""""}","","../img/tt/1044tt.jpg","",""
"null","../img/gs/1044gs.jpg","null","reveal","image-keyboard-response","423","1328418","0.0-6.0-4.59","3030664","co38017","norming","","","","","","",""
"null","../img/tt/1044tt.jpg","null","mooney2","image-keyboard-response","424","1330423","0.0-6.0-5.59","3030664","co38017","norming","","","","","","",""
"1850.9700000004377","","","post_reveal_questions","survey-likert","425","1332277","0.0-6.0-6.59","3030664","co38017","norming","","","{""aha"":6}","[0]","../img/tt/1044tt.jpg","",""
"null","<div style=""font-size:60px;""> </div>","null","fixation","html-keyboard-response","426","1332489","0.0-6.0-0.60","3030664","co38017","norming","","","","","","",""
"null","../img/tt/1053tt.jpg","null","mooney1","image-keyboard-response","427","1335492","0.0-6.0-1.60","3030664","co38017","norming","","","","","","",""
"3081.0250000006054","","","post_mooney1_questions","survey-likert","428","1338577","0.0-6.0-2.60","3030664","co38017","norming","","","{""curiosity"":6,""confidence"":5}","[0,1]","../img/tt/1053tt.jpg","",""
"3277.2400000004563","","","recognition","survey-text","429","1341865","0.0-6.0-3.60","3030664","co38017","norming","","","{""guess"":""paard""}","","../img/tt/1053tt.jpg","",""
"null","../img/gs/1053gs.jpg","null","reveal","image-keyboard-response","430","1343873","0.0-6.0-4.60","3030664","co38017","norming","","","","","","",""
"null","../img/tt/1053tt.jpg","null","mooney2","image-keyboard-response","431","1345878","0.0-6.0-5.60","3030664","co38017","norming","","","","","","",""
"2070.0200000000186","","","post_reveal_questions","survey-likert","432","1347951","0.0-6.0-6.60","3030664","co38017","norming","","","{""aha"":6}","[0]","../img/tt/1053tt.jpg","",""
"null","<div style=""font-size:60px;""> </div>","null","fixation","html-keyboard-response","433","1348164","0.0-6.0-0.61","3030664","co38017","norming","","","","","","",""
"null","../img/tt/1279tt.jpg","null","mooney1","image-keyboard-response","434","1351172","0.0-6.0-1.61","3030664","co38017","norming","","","","","","",""
"3227.244999999879","","","post_mooney1_questions","survey-likert","435","1354403","0.0-6.0-2.61","3030664","co38017","norming","","","{""curiosity"":6,""confidence"":4}","[0,1]","../img/tt/1279tt.jpg","",""
"2436.9950000001118","","","recognition","survey-text","436","1356852","0.0-6.0-3.61","3030664","co38017","norming","","","{""guess"":""paard""}","","../img/tt/1279tt.jpg","",""
"null","../img/gs/1279gs.jpg","null","reveal","image-keyboard-response","437","1358857","0.0-6.0-4.61","3030664","co38017","norming","","","","","","",""
"null","../img/tt/1279tt.jpg","null","mooney2","image-keyboard-response","438","1360859","0.0-6.0-5.61","3030664","co38017","norming","","","","","","",""
"2732.7249999998603","","","post_reveal_questions","survey-likert","439","1363595","0.0-6.0-6.61","3030664","co38017","norming","","","{""aha"":1}","[0]","../img/tt/1279tt.jpg","",""
"null","<div style=""font-size:60px;""> </div>","null","fixation","html-keyboard-response","440","1363808","0.0-6.0-0.62","3030664","co38017","norming","","","","","","",""
"null","../img/tt/1086tt.jpg","null","mooney1","image-keyboard-response","441","1366811","0.0-6.0-1.62","3030664","co38017","norming","","","","","","",""
"3795.9100000006147","","","post_mooney1_questions","survey-likert","442","1370611","0.0-6.0-2.62","3030664","co38017","norming","","","{""curiosity"":6,""confidence"":5}","[0,1]","../img/tt/1086tt.jpg","",""
"2292.7650000001304","","","recognition","survey-text","443","1372916","0.0-6.0-3.62","3030664","co38017","norming","","","{""guess"":""husky""}","","../img/tt/1086tt.jpg","",""
"null","../img/gs/1086gs.jpg","null","reveal","image-keyboard-response","444","1374923","0.0-6.0-4.62","3030664","co38017","norming","","","","","","",""
"null","../img/tt/1086tt.jpg","null","mooney2","image-keyboard-response","445","1376927","0.0-6.0-5.62","3030664","co38017","norming","","","","","","",""
"2293.880000000121","","","post_reveal_questions","survey-likert","446","1379224","0.0-6.0-6.62","3030664","co38017","norming","","","{""aha"":5}","[0]","../img/tt/1086tt.jpg","",""
"null","<div style=""font-size:60px;""> </div>","null","fixation","html-keyboard-response","447","1379434","0.0-6.0-0.63","3030664","co38017","norming","","","","","","",""
"null","../img/tt/522tt.jpg","null","mooney1","image-keyboard-response","448","1382441","0.0-6.0-1.63","3030664","co38017","norming","","","","","","",""
"3364.9899999999907","","","post_mooney1_questions","survey-likert","449","1385810","0.0-6.0-2.63","3030664","co38017","norming","","","{""curiosity"":6,""confidence"":3}","[0,1]","../img/tt/522tt.jpg","",""
"2012.2599999993108","","","recognition","survey-text","450","1387834","0.0-6.0-3.63","3030664","co38017","norming","","","{""guess"":""worm""}","","../img/tt/522tt.jpg","",""
"null","../img/gs/522gs.jpg","null","reveal","image-keyboard-response","451","1389841","0.0-6.0-4.63","3030664","co38017","norming","","","","","","",""
"null","../img/tt/522tt.jpg","null","mooney2","image-keyboard-response","452","1391843","0.0-6.0-5.63","3030664","co38017","norming","","","","","","",""
"2024.3149999997113","","","post_reveal_questions","survey-likert","453","1393870","0.0-6.0-6.63","3030664","co38017","norming","","","{""aha"":6}","[0]","../img/tt/522tt.jpg","",""
"null","<div style=""font-size:60px;""> </div>","null","fixation","html-keyboard-response","454","1394079","0.0-6.0-0.64","3030664","co38017","norming","","","","","","",""
"null","../img/tt/1362tt.jpg","null","mooney1","image-keyboard-response","455","1397087","0.0-6.0-1.64","3030664","co38017","norming","","","","","","",""
"3534.3700000003446","","","post_mooney1_questions","survey-likert","456","1400625","0.0-6.0-2.64","3030664","co38017","norming","","","{""curiosity"":6,""confidence"":5}","[0,1]","../img/tt/1362tt.jpg","",""
"6142.41500000027","","","recognition","survey-text","457","1406779","0.0-6.0-3.64","3030664","co38017","norming","","","{""guess"":""platenspeler""}","","../img/tt/1362tt.jpg","",""
"null","../img/gs/1362gs.jpg","null","reveal","image-keyboard-response","458","1408783","0.0-6.0-4.64","3030664","co38017","norming","","","","","","",""
"null","../img/tt/1362tt.jpg","null","mooney2","image-keyboard-response","459","1410787","0.0-6.0-5.64","3030664","co38017","norming","","","","","","",""
"1713.714999999851","","","post_reveal_questions","survey-likert","460","1412504","0.0-6.0-6.64","3030664","co38017","norming","","","{""aha"":6}","[0]","../img/tt/1362tt.jpg","",""
"null","<div style=""font-size:60px;""> </div>","null","fixation","html-keyboard-response","461","1412717","0.0-6.0-0.65","3030664","co38017","norming","","","","","","",""
"null","../img/tt/096tt.jpg","null","mooney1","image-keyboard-response","462","1415723","0.0-6.0-1.65","3030664","co38017","norming","","","","","","",""
"3047.710000000894","","","post_mooney1_questions","survey-likert","463","1418775","0.0-6.0-2.65","3030664","co38017","norming","","","{""curiosity"":6,""confidence"":4}","[0,1]","../img/tt/096tt.jpg","",""
"2145.3300000003073","","","recognition","survey-text","464","1420932","0.0-6.0-3.65","3030664","co38017","norming","","","{""guess"":""piano""}","","../img/tt/096tt.jpg","",""
"null","../img/gs/096gs.jpg","null","reveal","image-keyboard-response","465","1422935","0.0-6.0-4.65","3030664","co38017","norming","","","","","","",""
"null","../img/tt/096tt.jpg","null","mooney2","image-keyboard-response","466","1424941","0.0-6.0-5.65","3030664","co38017","norming","","","","","","",""
"2178.2099999999627","","","post_reveal_questions","survey-likert","467","1427122","0.0-6.0-6.65","3030664","co38017","norming","","","{""aha"":3}","[0]","../img/tt/096tt.jpg","",""
"null","<div style=""font-size:60px;""> </div>","null","fixation","html-keyboard-response","468","1427334","0.0-6.0-0.66","3030664","co38017","norming","","","","","","",""
"null","../img/tt/1154tt.jpg","null","mooney1","image-keyboard-response","469","1430342","0.0-6.0-1.66","3030664","co38017","norming","","","","","","",""
"6223.735000000335","","","post_mooney1_questions","survey-likert","470","1436570","0.0-6.0-2.66","3030664","co38017","norming","","","{""curiosity"":6,""confidence"":5}","[0,1]","../img/tt/1154tt.jpg","",""
"1966.5800000000745","","","recognition","survey-text","471","1438548","0.0-6.0-3.66","3030664","co38017","norming","","","{""guess"":""kano""}","","../img/tt/1154tt.jpg","",""
"null","../img/gs/1154gs.jpg","null","reveal","image-keyboard-response","472","1440556","0.0-6.0-4.66","3030664","co38017","norming","","","","","","",""
"null","../img/tt/1154tt.jpg","null","mooney2","image-keyboard-response","473","1442557","0.0-6.0-5.66","3030664","co38017","norming","","","","","","",""
"2565.820000000531","","","post_reveal_questions","survey-likert","474","1445125","0.0-6.0-6.66","3030664","co38017","norming","","","{""aha"":3}","[0]","../img/tt/1154tt.jpg","",""
"null","<div style=""font-size:60px;""> </div>","null","fixation","html-keyboard-response","475","1445338","0.0-6.0-0.67","3030664","co38017","norming","","","","","","",""
"null","../img/tt/079tt.jpg","null","mooney1","image-keyboard-response","476","1448346","0.0-6.0-1.67","3030664","co38017","norming","","","","","","",""
"2762.764999999432","","","post_mooney1_questions","survey-likert","477","1451112","0.0-6.0-2.67","3030664","co38017","norming","","","{""curiosity"":6,""confidence"":5}","[0,1]","../img/tt/079tt.jpg","",""
"1514.7600000002421","","","recognition","survey-text","478","1452638","0.0-6.0-3.67","3030664","co38017","norming","","","{""guess"":""beer""}","","../img/tt/079tt.jpg","",""
"null","../img/gs/079gs.jpg","null","reveal","image-keyboard-response","479","1454643","0.0-6.0-4.67","3030664","co38017","norming","","","","","","",""
"null","../img/tt/079tt.jpg","null","mooney2","image-keyboard-response","480","1456650","0.0-6.0-5.67","3030664","co38017","norming","","","","","","",""
"3378.234999999171","","","post_reveal_questions","survey-likert","481","1460032","0.0-6.0-6.67","3030664","co38017","norming","","","{""aha"":3}","[0]","../img/tt/079tt.jpg","",""
"null","<div style=""font-size:60px;""> </div>","null","fixation","html-keyboard-response","482","1460246","0.0-6.0-0.68","3030664","co38017","norming","","","","","","",""
"null","../img/tt/1199tt.jpg","null","mooney1","image-keyboard-response","483","1463254","0.0-6.0-1.68","3030664","co38017","norming","","","","","","",""
"3684.6649999998044","","","post_mooney1_questions","survey-likert","484","1466942","0.0-6.0-2.68","3030664","co38017","norming","","","{""curiosity"":6,""confidence"":3}","[0,1]","../img/tt/1199tt.jpg","",""
"4486.539999999804","","","recognition","survey-text","485","1471439","0.0-6.0-3.68","3030664","co38017","norming","","","{""guess"":""ballerina ""}","","../img/tt/1199tt.jpg","",""
"null","../img/gs/1199gs.jpg","null","reveal","image-keyboard-response","486","1473444","0.0-6.0-4.68","3030664","co38017","norming","","","","","","",""
"null","../img/tt/1199tt.jpg","null","mooney2","image-keyboard-response","487","1475451","0.0-6.0-5.68","3030664","co38017","norming","","","","","","",""
"3005.4599999992643","","","post_reveal_questions","survey-likert","488","1478459","0.0-6.0-6.68","3030664","co38017","norming","","","{""aha"":4}","[0]","../img/tt/1199tt.jpg","",""
"null","<div style=""font-size:60px;""> </div>","null","fixation","html-keyboard-response","489","1478673","0.0-6.0-0.69","3030664","co38017","norming","","","","","","",""
"null","../img/tt/1366tt.jpg","null","mooney1","image-keyboard-response","490","1481681","0.0-6.0-1.69","3030664","co38017","norming","","","","","","",""
"4553.395000000019","","","post_mooney1_questions","survey-likert","491","1486238","0.0-6.0-2.69","3030664","co38017","norming","","","{""curiosity"":6,""confidence"":3}","[0,1]","../img/tt/1366tt.jpg","",""
"1807.1849999995902","","","recognition","survey-text","492","1488058","0.0-6.0-3.69","3030664","co38017","norming","","","{""guess"":""etne""}","","../img/tt/1366tt.jpg","",""
"null","../img/gs/1366gs.jpg","null","reveal","image-keyboard-response","493","1490067","0.0-6.0-4.69","3030664","co38017","norming","","","","","","",""
"null","../img/tt/1366tt.jpg","null","mooney2","image-keyboard-response","494","1492070","0.0-6.0-5.69","3030664","co38017","norming","","","","","","",""
"4792.550000000047","","","post_reveal_questions","survey-likert","495","1496866","0.0-6.0-6.69","3030664","co38017","norming","","","{""aha"":1}","[0]","../img/tt/1366tt.jpg","",""
"null","<div style=""font-size:60px;""> </div>","null","fixation","html-keyboard-response","496","1497075","0.0-6.0-0.70","3030664","co38017","norming","","","","","","",""
"null","../img/tt/055tt.jpg","null","mooney1","image-keyboard-response","497","1500083","0.0-6.0-1.70","3030664","co38017","norming","","","","","","",""
"3495.6649999995716","","","post_mooney1_questions","survey-likert","498","1503583","0.0-6.0-2.70","3030664","co38017","norming","","","{""curiosity"":6,""confidence"":4}","[0,1]","../img/tt/055tt.jpg","",""
"2168.279999999795","","","recognition","survey-text","499","1505763","0.0-6.0-3.70","3030664","co38017","norming","","","{""guess"":""zadel""}","","../img/tt/055tt.jpg","",""
"null","../img/gs/055gs.jpg","null","reveal","image-keyboard-response","500","1507766","0.0-6.0-4.70","3030664","co38017","norming","","","","","","",""
"null","../img/tt/055tt.jpg","null","mooney2","image-keyboard-response","501","1509768","0.0-6.0-5.70","3030664","co38017","norming","","","","","","",""
"5475.084999999963","","","post_reveal_questions","survey-likert","502","1515246","0.0-6.0-6.70","3030664","co38017","norming","","","{""aha"":4}","[0]","../img/tt/055tt.jpg","",""
"null","<div style=""font-size:60px;""> </div>","null","fixation","html-keyboard-response","503","1515459","0.0-6.0-0.71","3030664","co38017","norming","","","","","","",""
"null","../img/tt/1211tt.jpg","null","mooney1","image-keyboard-response","504","1518465","0.0-6.0-1.71","3030664","co38017","norming","","","","","","",""
"4153.56500000041","","","post_mooney1_questions","survey-likert","505","1522623","0.0-6.0-2.71","3030664","co38017","norming","","","{""curiosity"":6,""confidence"":5}","[0,1]","../img/tt/1211tt.jpg","",""
"3184.9799999999814","","","recognition","survey-text","506","1525820","0.0-6.0-3.71","3030664","co38017","norming","","","{""guess"":""golf""}","","../img/tt/1211tt.jpg","",""
"null","../img/gs/1211gs.jpg","null","reveal","image-keyboard-response","507","1527826","0.0-6.0-4.71","3030664","co38017","norming","","","","","","",""
"null","../img/tt/1211tt.jpg","null","mooney2","image-keyboard-response","508","1529832","0.0-6.0-5.71","3030664","co38017","norming","","","","","","",""
"3529.075000000419","","","post_reveal_questions","survey-likert","509","1533364","0.0-6.0-6.71","3030664","co38017","norming","","","{""aha"":3}","[0]","../img/tt/1211tt.jpg","",""
"null","<div style=""font-size:60px;""> </div>","null","fixation","html-keyboard-response","510","1533576","0.0-6.0-0.72","3030664","co38017","norming","","","","","","",""
"null","../img/tt/481tt.jpg","null","mooney1","image-keyboard-response","511","1536584","0.0-6.0-1.72","3030664","co38017","norming","","","","","","",""
"3779.6450000004843","","","post_mooney1_questions","survey-likert","512","1540368","0.0-6.0-2.72","3030664","co38017","norming","","","{""curiosity"":6,""confidence"":5}","[0,1]","../img/tt/481tt.jpg","",""
"1472.6750000000466","","","recognition","survey-text","513","1541852","0.0-6.0-3.72","3030664","co38017","norming","","","{""guess"":""hond""}","","../img/tt/481tt.jpg","",""
"null","../img/gs/481gs.jpg","null","reveal","image-keyboard-response","514","1543860","0.0-6.0-4.72","3030664","co38017","norming","","","","","","",""
"null","../img/tt/481tt.jpg","null","mooney2","image-keyboard-response","515","1545866","0.0-6.0-5.72","3030664","co38017","norming","","","","","","",""
"1699.1499999994412","","","post_reveal_questions","survey-likert","516","1547569","0.0-6.0-6.72","3030664","co38017","norming","","","{""aha"":3}","[0]","../img/tt/481tt.jpg","",""
"null","<div style=""font-size:60px;""> </div>","null","fixation","html-keyboard-response","517","1547778","0.0-6.0-0.73","3030664","co38017","norming","","","","","","",""
"null","../img/tt/1232tt.jpg","null","mooney1","image-keyboard-response","518","1550785","0.0-6.0-1.73","3030664","co38017","norming","","","","","","",""
"3001.219999999972","","","post_mooney1_questions","survey-likert","519","1553790","0.0-6.0-2.73","3030664","co38017","norming","","","{""curiosity"":6,""confidence"":4}","[0,1]","../img/tt/1232tt.jpg","",""
"3630.1450000002515","","","recognition","survey-text","520","1557431","0.0-6.0-3.73","3030664","co38017","norming","","","{""guess"":""schildpad""}","","../img/tt/1232tt.jpg","",""
"null","../img/gs/1232gs.jpg","null","reveal","image-keyboard-response","521","1559436","0.0-6.0-4.73","3030664","co38017","norming","","","","","","",""
"null","../img/tt/1232tt.jpg","null","mooney2","image-keyboard-response","522","1561441","0.0-6.0-5.73","3030664","co38017","norming","","","","","","",""
"1903.9899999999907","","","post_reveal_questions","survey-likert","523","1563348","0.0-6.0-6.73","3030664","co38017","norming","","","{""aha"":5}","[0]","../img/tt/1232tt.jpg","",""
"null","<div style=""font-size:60px;""> </div>","null","fixation","html-keyboard-response","524","1563561","0.0-6.0-0.74","3030664","co38017","norming","","","","","","",""
"null","../img/tt/1159tt.jpg","null","mooney1","image-keyboard-response","525","1566568","0.0-6.0-1.74","3030664","co38017","norming","","","","","","",""
"3137.075000000419","","","post_mooney1_questions","survey-likert","526","1569709","0.0-6.0-2.74","3030664","co38017","norming","","","{""curiosity"":6,""confidence"":3}","[0,1]","../img/tt/1159tt.jpg","",""
"4800.575000000186","","","recognition","survey-text","527","1574520","0.0-6.0-3.74","3030664","co38017","norming","","","{""guess"":""rollercoaster""}","","../img/tt/1159tt.jpg","",""
"null","../img/gs/1159gs.jpg","null","reveal","image-keyboard-response","528","1576527","0.0-6.0-4.74","3030664","co38017","norming","","","","","","",""
"null","../img/tt/1159tt.jpg","null","mooney2","image-keyboard-response","529","1578534","0.0-6.0-5.74","3030664","co38017","norming","","","","","","",""
"3197.7549999991897","","","post_reveal_questions","survey-likert","530","1581735","0.0-6.0-6.74","3030664","co38017","norming","","","{""aha"":5}","[0]","../img/tt/1159tt.jpg","",""
"null","<div style=""font-size:60px;""> </div>","null","fixation","html-keyboard-response","531","1581946","0.0-6.0-0.75","3030664","co38017","norming","","","","","","",""
"null","../img/tt/1242tt.jpg","null","mooney1","image-keyboard-response","532","1584949","0.0-6.0-1.75","3030664","co38017","norming","","","","","","",""
"3903.339999999851","","","post_mooney1_questions","survey-likert","533","1588857","0.0-6.0-2.75","3030664","co38017","norming","","","{""curiosity"":6,""confidence"":0}","[0,1]","../img/tt/1242tt.jpg","",""
"2308.8900000001304","","","recognition","survey-text","534","1591176","0.0-6.0-3.75","3030664","co38017","norming","","","{""guess"":""gezicht""}","","../img/tt/1242tt.jpg","",""
"null","../img/gs/1242gs.jpg","null","reveal","image-keyboard-response","535","1593183","0.0-6.0-4.75","3030664","co38017","norming","","","","","","",""
"null","../img/tt/1242tt.jpg","null","mooney2","image-keyboard-response","536","1595185","0.0-6.0-5.75","3030664","co38017","norming","","","","","","",""
"1718.1899999997113","","","post_reveal_questions","survey-likert","537","1596906","0.0-6.0-6.75","3030664","co38017","norming","","","{""aha"":6}","[0]","../img/tt/1242tt.jpg","",""
"null","<div style=""font-size:60px;""> </div>","null","fixation","html-keyboard-response","538","1597116","0.0-6.0-0.76","3030664","co38017","norming","","","","","","",""
"null","../img/tt/082tt.jpg","null","mooney1","image-keyboard-response","539","1600118","0.0-6.0-1.76","3030664","co38017","norming","","","","","","",""
"2823.8549999995157","","","post_mooney1_questions","survey-likert","540","1602946","0.0-6.0-2.76","3030664","co38017","norming","","","{""curiosity"":6,""confidence"":3}","[0,1]","../img/tt/082tt.jpg","",""
"8363.804999999935","","","recognition","survey-text","541","1611321","0.0-6.0-3.76","3030664","co38017","norming","","","{""guess"":""papegaai""}","","../img/tt/082tt.jpg","",""
"null","../img/gs/082gs.jpg","null","reveal","image-keyboard-response","542","1613324","0.0-6.0-4.76","3030664","co38017","norming","","","","","","",""
"null","../img/tt/082tt.jpg","null","mooney2","image-keyboard-response","543","1615329","0.0-6.0-5.76","3030664","co38017","norming","","","","","","",""
"2027.6899999999441","","","post_reveal_questions","survey-likert","544","1617360","0.0-6.0-6.76","3030664","co38017","norming","","","{""aha"":5}","[0]","../img/tt/082tt.jpg","",""
"null","<div style=""font-size:60px;""> </div>","null","fixation","html-keyboard-response","545","1617569","0.0-6.0-0.77","3030664","co38017","norming","","","","","","",""
"null","../img/tt/1043tt.jpg","null","mooney1","image-keyboard-response","546","1620576","0.0-6.0-1.77","3030664","co38017","norming","","","","","","",""
"3706.350000000326","","","post_mooney1_questions","survey-likert","547","1624287","0.0-6.0-2.77","3030664","co38017","norming","","","{""curiosity"":6,""confidence"":4}","[0,1]","../img/tt/1043tt.jpg","",""
"3267.049999999348","","","recognition","survey-text","548","1627564","0.0-6.0-3.77","3030664","co38017","norming","","","{""guess"":""cameleon""}","","../img/tt/1043tt.jpg","",""
"null","../img/gs/1043gs.jpg","null","reveal","image-keyboard-response","549","1629567","0.0-6.0-4.77","3030664","co38017","norming","","","","","","",""
"null","../img/tt/1043tt.jpg","null","mooney2","image-keyboard-response","550","1631574","0.0-6.0-5.77","3030664","co38017","norming","","","","","","",""
"4215.8300000000745","","","post_reveal_questions","survey-likert","551","1635792","0.0-6.0-6.77","3030664","co38017","norming","","","{""aha"":4}","[0]","../img/tt/1043tt.jpg","",""
