"rt","stimulus","key_press","test_part","trial_type","trial_index","time_elapsed","internal_node_id","totalTime","subject","experiment_name","button_pressed","success","responses","question_order","currentStim","old","correct"
"4777.49","Welcome to the experiment. This is an online experiment so please don't close the tab/window until we say goodbye.  Press any key to begin.","32","instructions","html-keyboard-response","0","4794","0.0-0.0","3039011","co38341","norming","","","","","","",""
"22248.539999999994","<div style='word-wrap: break-word; width: 900px'><h3>Please consider this information carefully before deciding whether to participate in this research</h3><ul style='text-align: left; font-size: .8em;'><li><b>Purpose of the research</b>: To examine how people process images.</li><li><b>What you will do in this research</b>:  Stimuli (images) will be presented on the computer and you will be asked different questions about them.</li><li><b>Time required</b>: Participation will take between 45 and 60 minutes to complete.</li><li><b>Risks</b>:  There are no anticipated risks associated with participating in this study. The effects of participating should be comparable to those you would experience from viewing a computer monitor for 30 minutes and using a mouse or keyboard.</li><li><b>Benefits</b>:  This study provides no benefits to you individually except for the credit. The study provides important information about the nature of perception and learning.</li><li><b>Confidentiality</b>:  Your participation in this study will remain confidential. No personally identifiable information will be associated with your data. Your de-identified data may be shared with other researchers and used in future projects.</li><li><b>Participation and withdrawal</b>:  Your participation in this study is completely voluntary and you may refuse to participate or you may choose to withdraw at any time without penalty.</li><li><b>How to contact the researchers</b>: If you have questions or concerns about your participation or payment, or want to request a summary of research findings, please contact Sander Van de Cruys (KU Leuven), at sander.vandecruys@kuleuven.be.</li></ul><p>The nature and purpose of this research have been sufficiently explained and I agree to participate in this study.  I understand that I am free to withdraw at any time without incurring any penalty.</p><p>Please consent by clicking the button below to continue. Otherwise, please exit the study at this time.</p></div>","","instructions","html-button-response","1","27046","0.0-1.0","3039011","co38341","norming","0","","","","","",""
"","","","instructions","fullscreen","2","32343","0.0-2.0","3039011","co38341","norming","","true","","","","",""
"28095.035000000054","","","sona","survey-html-form","3","60440","0.0-3.0","3039011","co38341","norming","","","[{""name"":""sonaid"",""value"":""38341""},{""name"":""debrief"",""value"":""yes""},{""name"":""datajoin"",""value"":""yes""}]","","","",""
"76540.28000000001","<div style='word-wrap: break-word; width: 900px'><h3>Instructions</h3><p>This experiment will have 3 parts. In the first part you will see a series of distorted images like the one below on the left. As you can see in the righthand image, the distorted images are derived from actual photographs. In what follows, you will <strong>briefly</strong> be presented with <strong>only</strong> the distorted image.</p> <div style='float: left; margin-right: 20px;'><img src='../img/018tt.jpg' height='250' width='250'></img></div><div style='float: right; margin-left: 20px;'><img src='../img/018gs.jpg' height='250' width='250'></img></div><p>Subsequently you will be asked a few questions about the image: One question on how <strong>curious</strong> you are about the solution and one on how <strong>confident</strong> you are that you know the solution.</p>Next, we ask you to make a guess on what is in the image. Note that it is OK to name just the <strong>basic level category</strong>. For example when you see a parrot in the image, 'parrot' will obviously be a correct answer but also correct is 'bird'. However, 'animal' will <strong>not</strong> be counted as a correct response. For the example above, 'rose' would be correct or 'flower', but not 'plant'. When soccer players are depicted, 'soccer', 'football', 'soccer players' will be correct, but not 'humans', 'outdoors', or 'sports'. You do not need to describe the image in full, just name the main object in it <strong>in one or two words</strong>. All images depict objects from one of the following broad level categories: animals, inanimate objects, plants, sports, vehicles, and food. Recognizing means knowing <strong>more</strong> than these broad labels for a given image. But we always encourage you to <strong>make a guess</strong> if you can. Note that you are allowed to use <strong>Dutch and English</strong> in your answers, whatever comes easiest for you.</p><p>Press any key to continue.</p></div>","32","instructions","html-keyboard-response","4","136982","0.0-4.0","3039011","co38341","norming","","","","","","",""
"13127.475000000006","<div style='word-wrap: break-word; width: 900px'><h3>Instructions</h3> <p>Next, the solution image will be revealed to you and you'll be asked to indicate how strong your <strong>aha-experience</strong> was after seeing the solution. This describes the positive feeling of the 'click' you sometimes experience, when the pieces of the 'puzzle' fall together and you suddenly have 'insight' in the image.</p><img src='aha.jpg' height='188' width='250'></img><p>Note that there are no right or wrong answers. We are interested in what <strong>you</strong> see in the image and how <strong>you</strong> feel about it.</p><p>Press any key to start the experiment.</p></div>","32","instructions","html-keyboard-response","5","150111","0.0-5.0","3039011","co38341","norming","","","","","","",""
"null","<div style=""font-size:60px;""> </div>","null","fixation","html-keyboard-response","6","150318","0.0-6.0-0.0","3039011","co38341","norming","","","","","","",""
"null","../img/tt/279tt.jpg","null","mooney1","image-keyboard-response","7","153334","0.0-6.0-1.0","3039011","co38341","norming","","","","","","",""
"11865.155000000028","","","post_mooney1_questions","survey-likert","8","165202","0.0-6.0-2.0","3039011","co38341","norming","","","{""curiosity"":6,""confidence"":0}","[0,1]","../img/tt/279tt.jpg","",""
"9717.179999999964","","","recognition","survey-text","9","174922","0.0-6.0-3.0","3039011","co38341","norming","","","{""guess"":""""}","","../img/tt/279tt.jpg","",""
"null","../img/gs/279gs.jpg","null","reveal","image-keyboard-response","10","176937","0.0-6.0-4.0","3039011","co38341","norming","","","","","","",""
"null","../img/tt/279tt.jpg","null","mooney2","image-keyboard-response","11","178944","0.0-6.0-5.0","3039011","co38341","norming","","","","","","",""
"10442.290000000008","","","post_reveal_questions","survey-likert","12","189387","0.0-6.0-6.0","3039011","co38341","norming","","","{""aha"":0}","[0]","../img/tt/279tt.jpg","",""
"null","<div style=""font-size:60px;""> </div>","null","fixation","html-keyboard-response","13","189594","0.0-6.0-0.1","3039011","co38341","norming","","","","","","",""
"null","../img/tt/603tt.jpg","null","mooney1","image-keyboard-response","14","192599","0.0-6.0-1.1","3039011","co38341","norming","","","","","","",""
"6115.029999999941","","","post_mooney1_questions","survey-likert","15","198715","0.0-6.0-2.1","3039011","co38341","norming","","","{""curiosity"":4,""confidence"":3}","[0,1]","../img/tt/603tt.jpg","",""
"5607.524999999994","","","recognition","survey-text","16","204325","0.0-6.0-3.1","3039011","co38341","norming","","","{""guess"":""Kat""}","","../img/tt/603tt.jpg","",""
"null","../img/gs/603gs.jpg","null","reveal","image-keyboard-response","17","206339","0.0-6.0-4.1","3039011","co38341","norming","","","","","","",""
"null","../img/tt/603tt.jpg","null","mooney2","image-keyboard-response","18","208351","0.0-6.0-5.1","3039011","co38341","norming","","","","","","",""
"3707.7200000001176","","","post_reveal_questions","survey-likert","19","212060","0.0-6.0-6.1","3039011","co38341","norming","","","{""aha"":1}","[0]","../img/tt/603tt.jpg","",""
"null","<div style=""font-size:60px;""> </div>","null","fixation","html-keyboard-response","20","212267","0.0-6.0-0.2","3039011","co38341","norming","","","","","","",""
"null","../img/tt/123tt.jpg","null","mooney1","image-keyboard-response","21","215277","0.0-6.0-1.2","3039011","co38341","norming","","","","","","",""
"5548.77999999997","","","post_mooney1_questions","survey-likert","22","220828","0.0-6.0-2.2","3039011","co38341","norming","","","{""curiosity"":4,""confidence"":2}","[0,1]","../img/tt/123tt.jpg","",""
"4938.174999999988","","","recognition","survey-text","23","225768","0.0-6.0-3.2","3039011","co38341","norming","","","{""guess"":""Boot""}","","../img/tt/123tt.jpg","",""
"null","../img/gs/123gs.jpg","null","reveal","image-keyboard-response","24","227770","0.0-6.0-4.2","3039011","co38341","norming","","","","","","",""
"null","../img/tt/123tt.jpg","null","mooney2","image-keyboard-response","25","229781","0.0-6.0-5.2","3039011","co38341","norming","","","","","","",""
"4777.924999999988","","","post_reveal_questions","survey-likert","26","234560","0.0-6.0-6.2","3039011","co38341","norming","","","{""aha"":1}","[0]","../img/tt/123tt.jpg","",""
"null","<div style=""font-size:60px;""> </div>","null","fixation","html-keyboard-response","27","234773","0.0-6.0-0.3","3039011","co38341","norming","","","","","","",""
"null","../img/tt/1084tt.jpg","null","mooney1","image-keyboard-response","28","237778","0.0-6.0-1.3","3039011","co38341","norming","","","","","","",""
"6344.619999999966","","","post_mooney1_questions","survey-likert","29","244124","0.0-6.0-2.3","3039011","co38341","norming","","","{""curiosity"":4,""confidence"":1}","[0,1]","../img/tt/1084tt.jpg","",""
"6402.905000000028","","","recognition","survey-text","30","250529","0.0-6.0-3.3","3039011","co38341","norming","","","{""guess"":""Tijger?""}","","../img/tt/1084tt.jpg","",""
"null","../img/gs/1084gs.jpg","null","reveal","image-keyboard-response","31","252538","0.0-6.0-4.3","3039011","co38341","norming","","","","","","",""
"null","../img/tt/1084tt.jpg","null","mooney2","image-keyboard-response","32","254542","0.0-6.0-5.3","3039011","co38341","norming","","","","","","",""
"5651.10500000004","","","post_reveal_questions","survey-likert","33","260195","0.0-6.0-6.3","3039011","co38341","norming","","","{""aha"":4}","[0]","../img/tt/1084tt.jpg","",""
"null","<div style=""font-size:60px;""> </div>","null","fixation","html-keyboard-response","34","260403","0.0-6.0-0.4","3039011","co38341","norming","","","","","","",""
"null","../img/tt/1087tt.jpg","null","mooney1","image-keyboard-response","35","263409","0.0-6.0-1.4","3039011","co38341","norming","","","","","","",""
"5294.210000000021","","","post_mooney1_questions","survey-likert","36","268705","0.0-6.0-2.4","3039011","co38341","norming","","","{""curiosity"":6,""confidence"":0}","[0,1]","../img/tt/1087tt.jpg","",""
"1585.600000000035","","","recognition","survey-text","37","270293","0.0-6.0-3.4","3039011","co38341","norming","","","{""guess"":""""}","","../img/tt/1087tt.jpg","",""
"null","../img/gs/1087gs.jpg","null","reveal","image-keyboard-response","38","272298","0.0-6.0-4.4","3039011","co38341","norming","","","","","","",""
"null","../img/tt/1087tt.jpg","null","mooney2","image-keyboard-response","39","274303","0.0-6.0-5.4","3039011","co38341","norming","","","","","","",""
"3139.8349999999627","","","post_reveal_questions","survey-likert","40","277444","0.0-6.0-6.4","3039011","co38341","norming","","","{""aha"":4}","[0]","../img/tt/1087tt.jpg","",""
"null","<div style=""font-size:60px;""> </div>","null","fixation","html-keyboard-response","41","277658","0.0-6.0-0.5","3039011","co38341","norming","","","","","","",""
"null","../img/tt/477tt.jpg","null","mooney1","image-keyboard-response","42","280664","0.0-6.0-1.5","3039011","co38341","norming","","","","","","",""
"7483.020000000019","","","post_mooney1_questions","survey-likert","43","288149","0.0-6.0-2.5","3039011","co38341","norming","","","{""curiosity"":5,""confidence"":1}","[0,1]","../img/tt/477tt.jpg","",""
"5516.239999999874","","","recognition","survey-text","44","293667","0.0-6.0-3.5","3039011","co38341","norming","","","{""guess"":""Dolfijn""}","","../img/tt/477tt.jpg","",""
"null","../img/gs/477gs.jpg","null","reveal","image-keyboard-response","45","295684","0.0-6.0-4.5","3039011","co38341","norming","","","","","","",""
"null","../img/tt/477tt.jpg","null","mooney2","image-keyboard-response","46","297699","0.0-6.0-5.5","3039011","co38341","norming","","","","","","",""
"4626.575000000012","","","post_reveal_questions","survey-likert","47","302327","0.0-6.0-6.5","3039011","co38341","norming","","","{""aha"":4}","[0]","../img/tt/477tt.jpg","",""
"null","<div style=""font-size:60px;""> </div>","null","fixation","html-keyboard-response","48","302539","0.0-6.0-0.6","3039011","co38341","norming","","","","","","",""
"null","../img/tt/1089tt.jpg","null","mooney1","image-keyboard-response","49","305552","0.0-6.0-1.6","3039011","co38341","norming","","","","","","",""
"6316.484999999928","","","post_mooney1_questions","survey-likert","50","311870","0.0-6.0-2.6","3039011","co38341","norming","","","{""curiosity"":5,""confidence"":0}","[0,1]","../img/tt/1089tt.jpg","",""
"1271.875","","","recognition","survey-text","51","313144","0.0-6.0-3.6","3039011","co38341","norming","","","{""guess"":""""}","","../img/tt/1089tt.jpg","",""
"null","../img/gs/1089gs.jpg","null","reveal","image-keyboard-response","52","315150","0.0-6.0-4.6","3039011","co38341","norming","","","","","","",""
"null","../img/tt/1089tt.jpg","null","mooney2","image-keyboard-response","53","317162","0.0-6.0-5.6","3039011","co38341","norming","","","","","","",""
"3689.5250000000233","","","post_reveal_questions","survey-likert","54","320853","0.0-6.0-6.6","3039011","co38341","norming","","","{""aha"":5}","[0]","../img/tt/1089tt.jpg","",""
"null","<div style=""font-size:60px;""> </div>","null","fixation","html-keyboard-response","55","321063","0.0-6.0-0.7","3039011","co38341","norming","","","","","","",""
"null","../img/tt/1161tt.jpg","null","mooney1","image-keyboard-response","56","324075","0.0-6.0-1.7","3039011","co38341","norming","","","","","","",""
"5429.475000000035","","","post_mooney1_questions","survey-likert","57","329506","0.0-6.0-2.7","3039011","co38341","norming","","","{""curiosity"":6,""confidence"":1}","[0,1]","../img/tt/1161tt.jpg","",""
"1245.1999999999534","","","recognition","survey-text","58","330754","0.0-6.0-3.7","3039011","co38341","norming","","","{""guess"":""""}","","../img/tt/1161tt.jpg","",""
"null","../img/gs/1161gs.jpg","null","reveal","image-keyboard-response","59","332770","0.0-6.0-4.7","3039011","co38341","norming","","","","","","",""
"null","../img/tt/1161tt.jpg","null","mooney2","image-keyboard-response","60","334771","0.0-6.0-5.7","3039011","co38341","norming","","","","","","",""
"2402.3800000000047","","","post_reveal_questions","survey-likert","61","337175","0.0-6.0-6.7","3039011","co38341","norming","","","{""aha"":5}","[0]","../img/tt/1161tt.jpg","",""
"null","<div style=""font-size:60px;""> </div>","null","fixation","html-keyboard-response","62","337391","0.0-6.0-0.8","3039011","co38341","norming","","","","","","",""
"null","../img/tt/1148tt.jpg","null","mooney1","image-keyboard-response","63","340398","0.0-6.0-1.8","3039011","co38341","norming","","","","","","",""
"5745.024999999965","","","post_mooney1_questions","survey-likert","64","346145","0.0-6.0-2.8","3039011","co38341","norming","","","{""curiosity"":6,""confidence"":0}","[0,1]","../img/tt/1148tt.jpg","",""
"5953.619999999995","","","recognition","survey-text","65","352101","0.0-6.0-3.8","3039011","co38341","norming","","","{""guess"":""""}","","../img/tt/1148tt.jpg","",""
"null","../img/gs/1148gs.jpg","null","reveal","image-keyboard-response","66","354112","0.0-6.0-4.8","3039011","co38341","norming","","","","","","",""
"null","../img/tt/1148tt.jpg","null","mooney2","image-keyboard-response","67","356125","0.0-6.0-5.8","3039011","co38341","norming","","","","","","",""
"2791.749999999942","","","post_reveal_questions","survey-likert","68","358917","0.0-6.0-6.8","3039011","co38341","norming","","","{""aha"":2}","[0]","../img/tt/1148tt.jpg","",""
"null","<div style=""font-size:60px;""> </div>","null","fixation","html-keyboard-response","69","359125","0.0-6.0-0.9","3039011","co38341","norming","","","","","","",""
"null","../img/tt/1004tt.jpg","null","mooney1","image-keyboard-response","70","362143","0.0-6.0-1.9","3039011","co38341","norming","","","","","","",""
"9213.19499999989","","","post_mooney1_questions","survey-likert","71","371357","0.0-6.0-2.9","3039011","co38341","norming","","","{""curiosity"":5,""confidence"":1}","[0,1]","../img/tt/1004tt.jpg","",""
"3908.2600000000675","","","recognition","survey-text","72","375268","0.0-6.0-3.9","3039011","co38341","norming","","","{""guess"":""Hond""}","","../img/tt/1004tt.jpg","",""
"null","../img/gs/1004gs.jpg","null","reveal","image-keyboard-response","73","377280","0.0-6.0-4.9","3039011","co38341","norming","","","","","","",""
"null","../img/tt/1004tt.jpg","null","mooney2","image-keyboard-response","74","379296","0.0-6.0-5.9","3039011","co38341","norming","","","","","","",""
"4037.2050000000745","","","post_reveal_questions","survey-likert","75","383335","0.0-6.0-6.9","3039011","co38341","norming","","","{""aha"":3}","[0]","../img/tt/1004tt.jpg","",""
"null","<div style=""font-size:60px;""> </div>","null","fixation","html-keyboard-response","76","383540","0.0-6.0-0.10","3039011","co38341","norming","","","","","","",""
"null","../img/tt/405tt.jpg","null","mooney1","image-keyboard-response","77","386548","0.0-6.0-1.10","3039011","co38341","norming","","","","","","",""
"6440.445000000065","","","post_mooney1_questions","survey-likert","78","392990","0.0-6.0-2.10","3039011","co38341","norming","","","{""curiosity"":3,""confidence"":4}","[0,1]","../img/tt/405tt.jpg","",""
"37051.465000000026","","","recognition","survey-text","79","430044","0.0-6.0-3.10","3039011","co38341","norming","","","{""guess"":""Koala""}","","../img/tt/405tt.jpg","",""
"null","../img/gs/405gs.jpg","null","reveal","image-keyboard-response","80","432055","0.0-6.0-4.10","3039011","co38341","norming","","","","","","",""
"null","../img/tt/405tt.jpg","null","mooney2","image-keyboard-response","81","434058","0.0-6.0-5.10","3039011","co38341","norming","","","","","","",""
"2773.7000000000116","","","post_reveal_questions","survey-likert","82","436832","0.0-6.0-6.10","3039011","co38341","norming","","","{""aha"":0}","[0]","../img/tt/405tt.jpg","",""
"null","<div style=""font-size:60px;""> </div>","null","fixation","html-keyboard-response","83","437044","0.0-6.0-0.11","3039011","co38341","norming","","","","","","",""
"null","../img/tt/1270tt.jpg","null","mooney1","image-keyboard-response","84","440046","0.0-6.0-1.11","3039011","co38341","norming","","","","","","",""
"7362.264999999956","","","post_mooney1_questions","survey-likert","85","447410","0.0-6.0-2.11","3039011","co38341","norming","","","{""curiosity"":5,""confidence"":1}","[0,1]","../img/tt/1270tt.jpg","",""
"3279.054999999993","","","recognition","survey-text","86","450691","0.0-6.0-3.11","3039011","co38341","norming","","","{""guess"":""""}","","../img/tt/1270tt.jpg","",""
"null","../img/gs/1270gs.jpg","null","reveal","image-keyboard-response","87","452707","0.0-6.0-4.11","3039011","co38341","norming","","","","","","",""
"null","../img/tt/1270tt.jpg","null","mooney2","image-keyboard-response","88","454715","0.0-6.0-5.11","3039011","co38341","norming","","","","","","",""
"3405.539999999979","","","post_reveal_questions","survey-likert","89","458122","0.0-6.0-6.11","3039011","co38341","norming","","","{""aha"":3}","[0]","../img/tt/1270tt.jpg","",""
"null","<div style=""font-size:60px;""> </div>","null","fixation","html-keyboard-response","90","458336","0.0-6.0-0.12","3039011","co38341","norming","","","","","","",""
"null","../img/tt/1175tt.jpg","null","mooney1","image-keyboard-response","91","461349","0.0-6.0-1.12","3039011","co38341","norming","","","","","","",""
"6127.284999999916","","","post_mooney1_questions","survey-likert","92","467478","0.0-6.0-2.12","3039011","co38341","norming","","","{""curiosity"":5,""confidence"":0}","[0,1]","../img/tt/1175tt.jpg","",""
"1231.7200000000885","","","recognition","survey-text","93","468712","0.0-6.0-3.12","3039011","co38341","norming","","","{""guess"":""""}","","../img/tt/1175tt.jpg","",""
"null","../img/gs/1175gs.jpg","null","reveal","image-keyboard-response","94","470723","0.0-6.0-4.12","3039011","co38341","norming","","","","","","",""
"null","../img/tt/1175tt.jpg","null","mooney2","image-keyboard-response","95","472725","0.0-6.0-5.12","3039011","co38341","norming","","","","","","",""
"2634.285000000091","","","post_reveal_questions","survey-likert","96","475361","0.0-6.0-6.12","3039011","co38341","norming","","","{""aha"":2}","[0]","../img/tt/1175tt.jpg","",""
"null","<div style=""font-size:60px;""> </div>","null","fixation","html-keyboard-response","97","475573","0.0-6.0-0.13","3039011","co38341","norming","","","","","","",""
"null","../img/tt/440tt.jpg","null","mooney1","image-keyboard-response","98","478583","0.0-6.0-1.13","3039011","co38341","norming","","","","","","",""
"5123.285000000033","","","post_mooney1_questions","survey-likert","99","483707","0.0-6.0-2.13","3039011","co38341","norming","","","{""curiosity"":5,""confidence"":1}","[0,1]","../img/tt/440tt.jpg","",""
"3556.2200000000303","","","recognition","survey-text","100","487266","0.0-6.0-3.13","3039011","co38341","norming","","","{""guess"":""Paard""}","","../img/tt/440tt.jpg","",""
"null","../img/gs/440gs.jpg","null","reveal","image-keyboard-response","101","489278","0.0-6.0-4.13","3039011","co38341","norming","","","","","","",""
"null","../img/tt/440tt.jpg","null","mooney2","image-keyboard-response","102","491280","0.0-6.0-5.13","3039011","co38341","norming","","","","","","",""
"2494.4500000000116","","","post_reveal_questions","survey-likert","103","493775","0.0-6.0-6.13","3039011","co38341","norming","","","{""aha"":5}","[0]","../img/tt/440tt.jpg","",""
"null","<div style=""font-size:60px;""> </div>","null","fixation","html-keyboard-response","104","493989","0.0-6.0-0.14","3039011","co38341","norming","","","","","","",""
"null","../img/tt/1188tt.jpg","null","mooney1","image-keyboard-response","105","497007","0.0-6.0-1.14","3039011","co38341","norming","","","","","","",""
"7698.174999999988","","","post_mooney1_questions","survey-likert","106","504708","0.0-6.0-2.14","3039011","co38341","norming","","","{""curiosity"":4,""confidence"":2}","[0,1]","../img/tt/1188tt.jpg","",""
"8148.905000000028","","","recognition","survey-text","107","512859","0.0-6.0-3.14","3039011","co38341","norming","","","{""guess"":""Verpleger""}","","../img/tt/1188tt.jpg","",""
"null","../img/gs/1188gs.jpg","null","reveal","image-keyboard-response","108","514868","0.0-6.0-4.14","3039011","co38341","norming","","","","","","",""
"null","../img/tt/1188tt.jpg","null","mooney2","image-keyboard-response","109","516876","0.0-6.0-5.14","3039011","co38341","norming","","","","","","",""
"2781.9450000001234","","","post_reveal_questions","survey-likert","110","519659","0.0-6.0-6.14","3039011","co38341","norming","","","{""aha"":4}","[0]","../img/tt/1188tt.jpg","",""
"null","<div style=""font-size:60px;""> </div>","null","fixation","html-keyboard-response","111","519870","0.0-6.0-0.15","3039011","co38341","norming","","","","","","",""
"null","../img/tt/1199tt.jpg","null","mooney1","image-keyboard-response","112","522880","0.0-6.0-1.15","3039011","co38341","norming","","","","","","",""
"8868.064999999944","","","post_mooney1_questions","survey-likert","113","531749","0.0-6.0-2.15","3039011","co38341","norming","","","{""curiosity"":5,""confidence"":1}","[0,1]","../img/tt/1199tt.jpg","",""
"3743.3850000000093","","","recognition","survey-text","114","535495","0.0-6.0-3.15","3039011","co38341","norming","","","{""guess"":""Ballet""}","","../img/tt/1199tt.jpg","",""
"null","../img/gs/1199gs.jpg","null","reveal","image-keyboard-response","115","537498","0.0-6.0-4.15","3039011","co38341","norming","","","","","","",""
"null","../img/tt/1199tt.jpg","null","mooney2","image-keyboard-response","116","539514","0.0-6.0-5.15","3039011","co38341","norming","","","","","","",""
"11544.744999999995","","","post_reveal_questions","survey-likert","117","551060","0.0-6.0-6.15","3039011","co38341","norming","","","{""aha"":5}","[0]","../img/tt/1199tt.jpg","",""
"null","<div style=""font-size:60px;""> </div>","null","fixation","html-keyboard-response","118","551274","0.0-6.0-0.16","3039011","co38341","norming","","","","","","",""
"null","../img/tt/1227tt.jpg","null","mooney1","image-keyboard-response","119","554290","0.0-6.0-1.16","3039011","co38341","norming","","","","","","",""
"5582.114999999991","","","post_mooney1_questions","survey-likert","120","559874","0.0-6.0-2.16","3039011","co38341","norming","","","{""curiosity"":5,""confidence"":1}","[0,1]","../img/tt/1227tt.jpg","",""
"3606.954999999958","","","recognition","survey-text","121","563483","0.0-6.0-3.16","3039011","co38341","norming","","","{""guess"":""Vissen""}","","../img/tt/1227tt.jpg","",""
"null","../img/gs/1227gs.jpg","null","reveal","image-keyboard-response","122","565490","0.0-6.0-4.16","3039011","co38341","norming","","","","","","",""
"null","../img/tt/1227tt.jpg","null","mooney2","image-keyboard-response","123","567496","0.0-6.0-5.16","3039011","co38341","norming","","","","","","",""
"2907.4349999999395","","","post_reveal_questions","survey-likert","124","570404","0.0-6.0-6.16","3039011","co38341","norming","","","{""aha"":5}","[0]","../img/tt/1227tt.jpg","",""
"null","<div style=""font-size:60px;""> </div>","null","fixation","html-keyboard-response","125","570611","0.0-6.0-0.17","3039011","co38341","norming","","","","","","",""
"null","../img/tt/1196tt.jpg","null","mooney1","image-keyboard-response","126","573624","0.0-6.0-1.17","3039011","co38341","norming","","","","","","",""
"6317.699999999953","","","post_mooney1_questions","survey-likert","127","579943","0.0-6.0-2.17","3039011","co38341","norming","","","{""curiosity"":6,""confidence"":0}","[0,1]","../img/tt/1196tt.jpg","",""
"1911.1699999999255","","","recognition","survey-text","128","581857","0.0-6.0-3.17","3039011","co38341","norming","","","{""guess"":""""}","","../img/tt/1196tt.jpg","",""
"null","../img/gs/1196gs.jpg","null","reveal","image-keyboard-response","129","583861","0.0-6.0-4.17","3039011","co38341","norming","","","","","","",""
"null","../img/tt/1196tt.jpg","null","mooney2","image-keyboard-response","130","585869","0.0-6.0-5.17","3039011","co38341","norming","","","","","","",""
"2765.9700000000885","","","post_reveal_questions","survey-likert","131","588636","0.0-6.0-6.17","3039011","co38341","norming","","","{""aha"":1}","[0]","../img/tt/1196tt.jpg","",""
"null","<div style=""font-size:60px;""> </div>","null","fixation","html-keyboard-response","132","588842","0.0-6.0-0.18","3039011","co38341","norming","","","","","","",""
"null","../img/tt/584tt.jpg","null","mooney1","image-keyboard-response","133","591843","0.0-6.0-1.18","3039011","co38341","norming","","","","","","",""
"5654.185000000056","","","post_mooney1_questions","survey-likert","134","597499","0.0-6.0-2.18","3039011","co38341","norming","","","{""curiosity"":4,""confidence"":3}","[0,1]","../img/tt/584tt.jpg","",""
"20656.84500000009","","","recognition","survey-text","135","618158","0.0-6.0-3.18","3039011","co38341","norming","","","{""guess"":""Peace""}","","../img/tt/584tt.jpg","",""
"null","../img/gs/584gs.jpg","null","reveal","image-keyboard-response","136","620164","0.0-6.0-4.18","3039011","co38341","norming","","","","","","",""
"null","../img/tt/584tt.jpg","null","mooney2","image-keyboard-response","137","622165","0.0-6.0-5.18","3039011","co38341","norming","","","","","","",""
"3900.3649999999907","","","post_reveal_questions","survey-likert","138","626067","0.0-6.0-6.18","3039011","co38341","norming","","","{""aha"":4}","[0]","../img/tt/584tt.jpg","",""
"null","<div style=""font-size:60px;""> </div>","null","fixation","html-keyboard-response","139","626281","0.0-6.0-0.19","3039011","co38341","norming","","","","","","",""
"null","../img/tt/1190tt.jpg","null","mooney1","image-keyboard-response","140","629289","0.0-6.0-1.19","3039011","co38341","norming","","","","","","",""
"6068.104999999981","","","post_mooney1_questions","survey-likert","141","635357","0.0-6.0-2.19","3039011","co38341","norming","","","{""curiosity"":5,""confidence"":0}","[0,1]","../img/tt/1190tt.jpg","",""
"1577.7450000001118","","","recognition","survey-text","142","636938","0.0-6.0-3.19","3039011","co38341","norming","","","{""guess"":""""}","","../img/tt/1190tt.jpg","",""
"null","../img/gs/1190gs.jpg","null","reveal","image-keyboard-response","143","638952","0.0-6.0-4.19","3039011","co38341","norming","","","","","","",""
"null","../img/tt/1190tt.jpg","null","mooney2","image-keyboard-response","144","640964","0.0-6.0-5.19","3039011","co38341","norming","","","","","","",""
"2206.3800000000047","","","post_reveal_questions","survey-likert","145","643171","0.0-6.0-6.19","3039011","co38341","norming","","","{""aha"":5}","[0]","../img/tt/1190tt.jpg","",""
"null","<div style=""font-size:60px;""> </div>","null","fixation","html-keyboard-response","146","643379","0.0-6.0-0.20","3039011","co38341","norming","","","","","","",""
"null","../img/tt/080tt.jpg","null","mooney1","image-keyboard-response","147","646387","0.0-6.0-1.20","3039011","co38341","norming","","","","","","",""
"5366.260000000009","","","post_mooney1_questions","survey-likert","148","651755","0.0-6.0-2.20","3039011","co38341","norming","","","{""curiosity"":5,""confidence"":1}","[0,1]","../img/tt/080tt.jpg","",""
"3895.2149999999674","","","recognition","survey-text","149","655652","0.0-6.0-3.20","3039011","co38341","norming","","","{""guess"":""Kuiken ei""}","","../img/tt/080tt.jpg","",""
"null","../img/gs/080gs.jpg","null","reveal","image-keyboard-response","150","657666","0.0-6.0-4.20","3039011","co38341","norming","","","","","","",""
"null","../img/tt/080tt.jpg","null","mooney2","image-keyboard-response","151","659672","0.0-6.0-5.20","3039011","co38341","norming","","","","","","",""
"3137.9899999999907","","","post_reveal_questions","survey-likert","152","662811","0.0-6.0-6.20","3039011","co38341","norming","","","{""aha"":3}","[0]","../img/tt/080tt.jpg","",""
"null","<div style=""font-size:60px;""> </div>","null","fixation","html-keyboard-response","153","663020","0.0-6.0-0.21","3039011","co38341","norming","","","","","","",""
"null","../img/tt/273tt.jpg","null","mooney1","image-keyboard-response","154","666022","0.0-6.0-1.21","3039011","co38341","norming","","","","","","",""
"5431.539999999921","","","post_mooney1_questions","survey-likert","155","671455","0.0-6.0-2.21","3039011","co38341","norming","","","{""curiosity"":5,""confidence"":4}","[0,1]","../img/tt/273tt.jpg","",""
"13161.370000000112","","","recognition","survey-text","156","684619","0.0-6.0-3.21","3039011","co38341","norming","","","{""guess"":""Gebit beugel""}","","../img/tt/273tt.jpg","",""
"null","../img/gs/273gs.jpg","null","reveal","image-keyboard-response","157","686629","0.0-6.0-4.21","3039011","co38341","norming","","","","","","",""
"null","../img/tt/273tt.jpg","null","mooney2","image-keyboard-response","158","688634","0.0-6.0-5.21","3039011","co38341","norming","","","","","","",""
"3469.95000000007","","","post_reveal_questions","survey-likert","159","692105","0.0-6.0-6.21","3039011","co38341","norming","","","{""aha"":0}","[0]","../img/tt/273tt.jpg","",""
"null","<div style=""font-size:60px;""> </div>","null","fixation","html-keyboard-response","160","692307","0.0-6.0-0.22","3039011","co38341","norming","","","","","","",""
"null","../img/tt/1146tt.jpg","null","mooney1","image-keyboard-response","161","695323","0.0-6.0-1.22","3039011","co38341","norming","","","","","","",""
"4345.829999999958","","","post_mooney1_questions","survey-likert","162","699671","0.0-6.0-2.22","3039011","co38341","norming","","","{""curiosity"":4,""confidence"":3}","[0,1]","../img/tt/1146tt.jpg","",""
"4774.770000000019","","","recognition","survey-text","163","704448","0.0-6.0-3.22","3039011","co38341","norming","","","{""guess"":""Visser""}","","../img/tt/1146tt.jpg","",""
"null","../img/gs/1146gs.jpg","null","reveal","image-keyboard-response","164","706452","0.0-6.0-4.22","3039011","co38341","norming","","","","","","",""
"null","../img/tt/1146tt.jpg","null","mooney2","image-keyboard-response","165","708468","0.0-6.0-5.22","3039011","co38341","norming","","","","","","",""
"2973.895000000135","","","post_reveal_questions","survey-likert","166","711443","0.0-6.0-6.22","3039011","co38341","norming","","","{""aha"":4}","[0]","../img/tt/1146tt.jpg","",""
"null","<div style=""font-size:60px;""> </div>","null","fixation","html-keyboard-response","167","711658","0.0-6.0-0.23","3039011","co38341","norming","","","","","","",""
"null","../img/tt/1272tt.jpg","null","mooney1","image-keyboard-response","168","714674","0.0-6.0-1.23","3039011","co38341","norming","","","","","","",""
"4132.630000000121","","","post_mooney1_questions","survey-likert","169","718809","0.0-6.0-2.23","3039011","co38341","norming","","","{""curiosity"":5,""confidence"":1}","[0,1]","../img/tt/1272tt.jpg","",""
"4049.7150000002002","","","recognition","survey-text","170","722861","0.0-6.0-3.23","3039011","co38341","norming","","","{""guess"":""Stier""}","","../img/tt/1272tt.jpg","",""
"null","../img/gs/1272gs.jpg","null","reveal","image-keyboard-response","171","724862","0.0-6.0-4.23","3039011","co38341","norming","","","","","","",""
"null","../img/tt/1272tt.jpg","null","mooney2","image-keyboard-response","172","726876","0.0-6.0-5.23","3039011","co38341","norming","","","","","","",""
"3741.350000000093","","","post_reveal_questions","survey-likert","173","730619","0.0-6.0-6.23","3039011","co38341","norming","","","{""aha"":6}","[0]","../img/tt/1272tt.jpg","",""
"null","<div style=""font-size:60px;""> </div>","null","fixation","html-keyboard-response","174","730831","0.0-6.0-0.24","3039011","co38341","norming","","","","","","",""
"null","../img/tt/053tt.jpg","null","mooney1","image-keyboard-response","175","733832","0.0-6.0-1.24","3039011","co38341","norming","","","","","","",""
"4506.795000000042","","","post_mooney1_questions","survey-likert","176","738341","0.0-6.0-2.24","3039011","co38341","norming","","","{""curiosity"":6,""confidence"":0}","[0,1]","../img/tt/053tt.jpg","",""
"943.7900000000373","","","recognition","survey-text","177","739287","0.0-6.0-3.24","3039011","co38341","norming","","","{""guess"":""""}","","../img/tt/053tt.jpg","",""
"null","../img/gs/053gs.jpg","null","reveal","image-keyboard-response","178","741297","0.0-6.0-4.24","3039011","co38341","norming","","","","","","",""
"null","../img/tt/053tt.jpg","null","mooney2","image-keyboard-response","179","743313","0.0-6.0-5.24","3039011","co38341","norming","","","","","","",""
"2587.0850000001956","","","post_reveal_questions","survey-likert","180","745901","0.0-6.0-6.24","3039011","co38341","norming","","","{""aha"":6}","[0]","../img/tt/053tt.jpg","",""
"null","<div style=""font-size:60px;""> </div>","null","fixation","html-keyboard-response","181","746113","0.0-6.0-0.25","3039011","co38341","norming","","","","","","",""
"null","../img/tt/001tt.jpg","null","mooney1","image-keyboard-response","182","749119","0.0-6.0-1.25","3039011","co38341","norming","","","","","","",""
"6812.615000000107","","","post_mooney1_questions","survey-likert","183","755933","0.0-6.0-2.25","3039011","co38341","norming","","","{""curiosity"":6,""confidence"":1}","[0,1]","../img/tt/001tt.jpg","",""
"5820.219999999972","","","recognition","survey-text","184","761756","0.0-6.0-3.25","3039011","co38341","norming","","","{""guess"":""Monster""}","","../img/tt/001tt.jpg","",""
"null","../img/gs/001gs.jpg","null","reveal","image-keyboard-response","185","763772","0.0-6.0-4.25","3039011","co38341","norming","","","","","","",""
"null","../img/tt/001tt.jpg","null","mooney2","image-keyboard-response","186","765777","0.0-6.0-5.25","3039011","co38341","norming","","","","","","",""
"3553.4649999999674","","","post_reveal_questions","survey-likert","187","769331","0.0-6.0-6.25","3039011","co38341","norming","","","{""aha"":4}","[0]","../img/tt/001tt.jpg","",""
"null","<div style=""font-size:60px;""> </div>","null","fixation","html-keyboard-response","188","769543","0.0-6.0-0.26","3039011","co38341","norming","","","","","","",""
"null","../img/tt/1125tt.jpg","null","mooney1","image-keyboard-response","189","772544","0.0-6.0-1.26","3039011","co38341","norming","","","","","","",""
"6091.8300000000745","","","post_mooney1_questions","survey-likert","190","778638","0.0-6.0-2.26","3039011","co38341","norming","","","{""curiosity"":5,""confidence"":1}","[0,1]","../img/tt/1125tt.jpg","",""
"4451.0950000000885","","","recognition","survey-text","191","783092","0.0-6.0-3.26","3039011","co38341","norming","","","{""guess"":""Jongetje""}","","../img/tt/1125tt.jpg","",""
"null","../img/gs/1125gs.jpg","null","reveal","image-keyboard-response","192","785109","0.0-6.0-4.26","3039011","co38341","norming","","","","","","",""
"null","../img/tt/1125tt.jpg","null","mooney2","image-keyboard-response","193","787111","0.0-6.0-5.26","3039011","co38341","norming","","","","","","",""
"2169.100000000093","","","post_reveal_questions","survey-likert","194","789281","0.0-6.0-6.26","3039011","co38341","norming","","","{""aha"":2}","[0]","../img/tt/1125tt.jpg","",""
"null","<div style=""font-size:60px;""> </div>","null","fixation","html-keyboard-response","195","789495","0.0-6.0-0.27","3039011","co38341","norming","","","","","","",""
"null","../img/tt/1070tt.jpg","null","mooney1","image-keyboard-response","196","792500","0.0-6.0-1.27","3039011","co38341","norming","","","","","","",""
"4587.165000000154","","","post_mooney1_questions","survey-likert","197","797088","0.0-6.0-2.27","3039011","co38341","norming","","","{""curiosity"":6,""confidence"":0}","[0,1]","../img/tt/1070tt.jpg","",""
"1236.015000000014","","","recognition","survey-text","198","798327","0.0-6.0-3.27","3039011","co38341","norming","","","{""guess"":""""}","","../img/tt/1070tt.jpg","",""
"null","../img/gs/1070gs.jpg","null","reveal","image-keyboard-response","199","800328","0.0-6.0-4.27","3039011","co38341","norming","","","","","","",""
"null","../img/tt/1070tt.jpg","null","mooney2","image-keyboard-response","200","802340","0.0-6.0-5.27","3039011","co38341","norming","","","","","","",""
"2525.1750000000466","","","post_reveal_questions","survey-likert","201","804866","0.0-6.0-6.27","3039011","co38341","norming","","","{""aha"":6}","[0]","../img/tt/1070tt.jpg","",""
"null","<div style=""font-size:60px;""> </div>","null","fixation","html-keyboard-response","202","805074","0.0-6.0-0.28","3039011","co38341","norming","","","","","","",""
"null","../img/tt/1362tt.jpg","null","mooney1","image-keyboard-response","203","808088","0.0-6.0-1.28","3039011","co38341","norming","","","","","","",""
"4230.119999999995","","","post_mooney1_questions","survey-likert","204","812320","0.0-6.0-2.28","3039011","co38341","norming","","","{""curiosity"":5,""confidence"":3}","[0,1]","../img/tt/1362tt.jpg","",""
"5610.460000000079","","","recognition","survey-text","205","817933","0.0-6.0-3.28","3039011","co38341","norming","","","{""guess"":""Goochelen""}","","../img/tt/1362tt.jpg","",""
"null","../img/gs/1362gs.jpg","null","reveal","image-keyboard-response","206","819942","0.0-6.0-4.28","3039011","co38341","norming","","","","","","",""
"null","../img/tt/1362tt.jpg","null","mooney2","image-keyboard-response","207","821949","0.0-6.0-5.28","3039011","co38341","norming","","","","","","",""
"2223.6999999999534","","","post_reveal_questions","survey-likert","208","824174","0.0-6.0-6.28","3039011","co38341","norming","","","{""aha"":4}","[0]","../img/tt/1362tt.jpg","",""
"null","<div style=""font-size:60px;""> </div>","null","fixation","html-keyboard-response","209","824388","0.0-6.0-0.29","3039011","co38341","norming","","","","","","",""
"null","../img/tt/060tt.jpg","null","mooney1","image-keyboard-response","210","827395","0.0-6.0-1.29","3039011","co38341","norming","","","","","","",""
"5374.224999999744","","","post_mooney1_questions","survey-likert","211","832771","0.0-6.0-2.29","3039011","co38341","norming","","","{""curiosity"":5,""confidence"":1}","[0,1]","../img/tt/060tt.jpg","",""
"3427.930000000051","","","recognition","survey-text","212","836201","0.0-6.0-3.29","3039011","co38341","norming","","","{""guess"":""Broodje""}","","../img/tt/060tt.jpg","",""
"null","../img/gs/060gs.jpg","null","reveal","image-keyboard-response","213","838218","0.0-6.0-4.29","3039011","co38341","norming","","","","","","",""
"null","../img/tt/060tt.jpg","null","mooney2","image-keyboard-response","214","840234","0.0-6.0-5.29","3039011","co38341","norming","","","","","","",""
"3166.655000000028","","","post_reveal_questions","survey-likert","215","843401","0.0-6.0-6.29","3039011","co38341","norming","","","{""aha"":4}","[0]","../img/tt/060tt.jpg","",""
"null","<div style=""font-size:60px;""> </div>","null","fixation","html-keyboard-response","216","843618","0.0-6.0-0.30","3039011","co38341","norming","","","","","","",""
"null","../img/tt/013tt.jpg","null","mooney1","image-keyboard-response","217","846627","0.0-6.0-1.30","3039011","co38341","norming","","","","","","",""
"4388.895000000019","","","post_mooney1_questions","survey-likert","218","851017","0.0-6.0-2.30","3039011","co38341","norming","","","{""curiosity"":6,""confidence"":0}","[0,1]","../img/tt/013tt.jpg","",""
"1154.4999999998836","","","recognition","survey-text","219","852175","0.0-6.0-3.30","3039011","co38341","norming","","","{""guess"":""""}","","../img/tt/013tt.jpg","",""
"null","../img/gs/013gs.jpg","null","reveal","image-keyboard-response","220","854181","0.0-6.0-4.30","3039011","co38341","norming","","","","","","",""
"null","../img/tt/013tt.jpg","null","mooney2","image-keyboard-response","221","856189","0.0-6.0-5.30","3039011","co38341","norming","","","","","","",""
"2150.0500000000466","","","post_reveal_questions","survey-likert","222","858340","0.0-6.0-6.30","3039011","co38341","norming","","","{""aha"":5}","[0]","../img/tt/013tt.jpg","",""
"null","<div style=""font-size:60px;""> </div>","null","fixation","html-keyboard-response","223","858545","0.0-6.0-0.31","3039011","co38341","norming","","","","","","",""
"null","../img/tt/184tt.jpg","null","mooney1","image-keyboard-response","224","861551","0.0-6.0-1.31","3039011","co38341","norming","","","","","","",""
"4327.475000000093","","","post_mooney1_questions","survey-likert","225","865880","0.0-6.0-2.31","3039011","co38341","norming","","","{""curiosity"":6,""confidence"":0}","[0,1]","../img/tt/184tt.jpg","",""
"1026.75","","","recognition","survey-text","226","866909","0.0-6.0-3.31","3039011","co38341","norming","","","{""guess"":""""}","","../img/tt/184tt.jpg","",""
"null","../img/gs/184gs.jpg","null","reveal","image-keyboard-response","227","868922","0.0-6.0-4.31","3039011","co38341","norming","","","","","","",""
"null","../img/tt/184tt.jpg","null","mooney2","image-keyboard-response","228","870925","0.0-6.0-5.31","3039011","co38341","norming","","","","","","",""
"4928.649999999907","","","post_reveal_questions","survey-likert","229","875855","0.0-6.0-6.31","3039011","co38341","norming","","","{""aha"":3}","[0]","../img/tt/184tt.jpg","",""
"null","<div style=""font-size:60px;""> </div>","null","fixation","html-keyboard-response","230","876069","0.0-6.0-0.32","3039011","co38341","norming","","","","","","",""
"null","../img/tt/1123tt.jpg","null","mooney1","image-keyboard-response","231","879074","0.0-6.0-1.32","3039011","co38341","norming","","","","","","",""
"6099.8150000000605","","","post_mooney1_questions","survey-likert","232","885175","0.0-6.0-2.32","3039011","co38341","norming","","","{""curiosity"":5,""confidence"":1}","[0,1]","../img/tt/1123tt.jpg","",""
"3523.194999999949","","","recognition","survey-text","233","888701","0.0-6.0-3.32","3039011","co38341","norming","","","{""guess"":""Speler""}","","../img/tt/1123tt.jpg","",""
"null","../img/gs/1123gs.jpg","null","reveal","image-keyboard-response","234","890707","0.0-6.0-4.32","3039011","co38341","norming","","","","","","",""
"null","../img/tt/1123tt.jpg","null","mooney2","image-keyboard-response","235","892713","0.0-6.0-5.32","3039011","co38341","norming","","","","","","",""
"4894.109999999986","","","post_reveal_questions","survey-likert","236","897608","0.0-6.0-6.32","3039011","co38341","norming","","","{""aha"":5}","[0]","../img/tt/1123tt.jpg","",""
"null","<div style=""font-size:60px;""> </div>","null","fixation","html-keyboard-response","237","897816","0.0-6.0-0.33","3039011","co38341","norming","","","","","","",""
"null","../img/tt/079tt.jpg","null","mooney1","image-keyboard-response","238","900818","0.0-6.0-1.33","3039011","co38341","norming","","","","","","",""
"5254.949999999953","","","post_mooney1_questions","survey-likert","239","906074","0.0-6.0-2.33","3039011","co38341","norming","","","{""curiosity"":5,""confidence"":1}","[0,1]","../img/tt/079tt.jpg","",""
"3047.1849999999395","","","recognition","survey-text","240","909124","0.0-6.0-3.33","3039011","co38341","norming","","","{""guess"":""Sla""}","","../img/tt/079tt.jpg","",""
"null","../img/gs/079gs.jpg","null","reveal","image-keyboard-response","241","911130","0.0-6.0-4.33","3039011","co38341","norming","","","","","","",""
"null","../img/tt/079tt.jpg","null","mooney2","image-keyboard-response","242","913132","0.0-6.0-5.33","3039011","co38341","norming","","","","","","",""
"2266.5300000001444","","","post_reveal_questions","survey-likert","243","915400","0.0-6.0-6.33","3039011","co38341","norming","","","{""aha"":2}","[0]","../img/tt/079tt.jpg","",""
"null","<div style=""font-size:60px;""> </div>","null","fixation","html-keyboard-response","244","915605","0.0-6.0-0.34","3039011","co38341","norming","","","","","","",""
"null","../img/tt/052tt.jpg","null","mooney1","image-keyboard-response","245","918609","0.0-6.0-1.34","3039011","co38341","norming","","","","","","",""
"5095.395000000019","","","post_mooney1_questions","survey-likert","246","923706","0.0-6.0-2.34","3039011","co38341","norming","","","{""curiosity"":5,""confidence"":1}","[0,1]","../img/tt/052tt.jpg","",""
"984.839999999851","","","recognition","survey-text","247","924693","0.0-6.0-3.34","3039011","co38341","norming","","","{""guess"":""""}","","../img/tt/052tt.jpg","",""
"null","../img/gs/052gs.jpg","null","reveal","image-keyboard-response","248","926695","0.0-6.0-4.34","3039011","co38341","norming","","","","","","",""
"null","../img/tt/052tt.jpg","null","mooney2","image-keyboard-response","249","928696","0.0-6.0-5.34","3039011","co38341","norming","","","","","","",""
"2220.195000000065","","","post_reveal_questions","survey-likert","250","930918","0.0-6.0-6.34","3039011","co38341","norming","","","{""aha"":5}","[0]","../img/tt/052tt.jpg","",""
"null","<div style=""font-size:60px;""> </div>","null","fixation","html-keyboard-response","251","931132","0.0-6.0-0.35","3039011","co38341","norming","","","","","","",""
"null","../img/tt/1078tt.jpg","null","mooney1","image-keyboard-response","252","934143","0.0-6.0-1.35","3039011","co38341","norming","","","","","","",""
"3746.449999999837","","","post_mooney1_questions","survey-likert","253","937891","0.0-6.0-2.35","3039011","co38341","norming","","","{""curiosity"":5,""confidence"":2}","[0,1]","../img/tt/1078tt.jpg","",""
"6308.880000000121","","","recognition","survey-text","254","944202","0.0-6.0-3.35","3039011","co38341","norming","","","{""guess"":""Piano spelen""}","","../img/tt/1078tt.jpg","",""
"null","../img/gs/1078gs.jpg","null","reveal","image-keyboard-response","255","946219","0.0-6.0-4.35","3039011","co38341","norming","","","","","","",""
"null","../img/tt/1078tt.jpg","null","mooney2","image-keyboard-response","256","948220","0.0-6.0-5.35","3039011","co38341","norming","","","","","","",""
"2784.7500000001164","","","post_reveal_questions","survey-likert","257","951006","0.0-6.0-6.35","3039011","co38341","norming","","","{""aha"":4}","[0]","../img/tt/1078tt.jpg","",""
"null","<div style=""font-size:60px;""> </div>","null","fixation","html-keyboard-response","258","951215","0.0-6.0-0.36","3039011","co38341","norming","","","","","","",""
"null","../img/tt/552tt.jpg","null","mooney1","image-keyboard-response","259","954229","0.0-6.0-1.36","3039011","co38341","norming","","","","","","",""
"3960.774999999907","","","post_mooney1_questions","survey-likert","260","958192","0.0-6.0-2.36","3039011","co38341","norming","","","{""curiosity"":5,""confidence"":1}","[0,1]","../img/tt/552tt.jpg","",""
"4219.249999999884","","","recognition","survey-text","261","962413","0.0-6.0-3.36","3039011","co38341","norming","","","{""guess"":""Grasmaaier""}","","../img/tt/552tt.jpg","",""
"null","../img/gs/552gs.jpg","null","reveal","image-keyboard-response","262","964424","0.0-6.0-4.36","3039011","co38341","norming","","","","","","",""
"null","../img/tt/552tt.jpg","null","mooney2","image-keyboard-response","263","966426","0.0-6.0-5.36","3039011","co38341","norming","","","","","","",""
"1761.704999999958","","","post_reveal_questions","survey-likert","264","968189","0.0-6.0-6.36","3039011","co38341","norming","","","{""aha"":5}","[0]","../img/tt/552tt.jpg","",""
"null","<div style=""font-size:60px;""> </div>","null","fixation","html-keyboard-response","265","968406","0.0-6.0-0.37","3039011","co38341","norming","","","","","","",""
"null","../img/tt/1251tt.jpg","null","mooney1","image-keyboard-response","266","971407","0.0-6.0-1.37","3039011","co38341","norming","","","","","","",""
"4006.1900000000605","","","post_mooney1_questions","survey-likert","267","975415","0.0-6.0-2.37","3039011","co38341","norming","","","{""curiosity"":5,""confidence"":1}","[0,1]","../img/tt/1251tt.jpg","",""
"3696.115000000107","","","recognition","survey-text","268","979113","0.0-6.0-3.37","3039011","co38341","norming","","","{""guess"":""Beer""}","","../img/tt/1251tt.jpg","",""
"null","../img/gs/1251gs.jpg","null","reveal","image-keyboard-response","269","981115","0.0-6.0-4.37","3039011","co38341","norming","","","","","","",""
"null","../img/tt/1251tt.jpg","null","mooney2","image-keyboard-response","270","983127","0.0-6.0-5.37","3039011","co38341","norming","","","","","","",""
"3623.715000000084","","","post_reveal_questions","survey-likert","271","986752","0.0-6.0-6.37","3039011","co38341","norming","","","{""aha"":5}","[0]","../img/tt/1251tt.jpg","",""
"null","<div style=""font-size:60px;""> </div>","null","fixation","html-keyboard-response","272","986957","0.0-6.0-0.38","3039011","co38341","norming","","","","","","",""
"null","../img/tt/1255tt.jpg","null","mooney1","image-keyboard-response","273","989959","0.0-6.0-1.38","3039011","co38341","norming","","","","","","",""
"5322.605000000098","","","post_mooney1_questions","survey-likert","274","995283","0.0-6.0-2.38","3039011","co38341","norming","","","{""curiosity"":5,""confidence"":0}","[0,1]","../img/tt/1255tt.jpg","",""
"770.2100000000792","","","recognition","survey-text","275","996056","0.0-6.0-3.38","3039011","co38341","norming","","","{""guess"":""""}","","../img/tt/1255tt.jpg","",""
"null","../img/gs/1255gs.jpg","null","reveal","image-keyboard-response","276","998064","0.0-6.0-4.38","3039011","co38341","norming","","","","","","",""
"null","../img/tt/1255tt.jpg","null","mooney2","image-keyboard-response","277","1000065","0.0-6.0-5.38","3039011","co38341","norming","","","","","","",""
"1972.1149999997579","","","post_reveal_questions","survey-likert","278","1002038","0.0-6.0-6.38","3039011","co38341","norming","","","{""aha"":4}","[0]","../img/tt/1255tt.jpg","",""
"null","<div style=""font-size:60px;""> </div>","null","fixation","html-keyboard-response","279","1002254","0.0-6.0-0.39","3039011","co38341","norming","","","","","","",""
"null","../img/tt/1118tt.jpg","null","mooney1","image-keyboard-response","280","1005256","0.0-6.0-1.39","3039011","co38341","norming","","","","","","",""
"3758.8399999999674","","","post_mooney1_questions","survey-likert","281","1009016","0.0-6.0-2.39","3039011","co38341","norming","","","{""curiosity"":5,""confidence"":0}","[0,1]","../img/tt/1118tt.jpg","",""
"947.6850000001723","","","recognition","survey-text","282","1009966","0.0-6.0-3.39","3039011","co38341","norming","","","{""guess"":""""}","","../img/tt/1118tt.jpg","",""
"null","../img/gs/1118gs.jpg","null","reveal","image-keyboard-response","283","1011977","0.0-6.0-4.39","3039011","co38341","norming","","","","","","",""
"null","../img/tt/1118tt.jpg","null","mooney2","image-keyboard-response","284","1013990","0.0-6.0-5.39","3039011","co38341","norming","","","","","","",""
"1724.3850000000093","","","post_reveal_questions","survey-likert","285","1015716","0.0-6.0-6.39","3039011","co38341","norming","","","{""aha"":4}","[0]","../img/tt/1118tt.jpg","",""
"null","<div style=""font-size:60px;""> </div>","null","fixation","html-keyboard-response","286","1015932","0.0-6.0-0.40","3039011","co38341","norming","","","","","","",""
"null","../img/tt/1063tt.jpg","null","mooney1","image-keyboard-response","287","1018940","0.0-6.0-1.40","3039011","co38341","norming","","","","","","",""
"3832.4499999999534","","","post_mooney1_questions","survey-likert","288","1022774","0.0-6.0-2.40","3039011","co38341","norming","","","{""curiosity"":5,""confidence"":2}","[0,1]","../img/tt/1063tt.jpg","",""
"3028.7249999996275","","","recognition","survey-text","289","1025805","0.0-6.0-3.40","3039011","co38341","norming","","","{""guess"":""Paard""}","","../img/tt/1063tt.jpg","",""
"null","../img/gs/1063gs.jpg","null","reveal","image-keyboard-response","290","1027820","0.0-6.0-4.40","3039011","co38341","norming","","","","","","",""
"null","../img/tt/1063tt.jpg","null","mooney2","image-keyboard-response","291","1029823","0.0-6.0-5.40","3039011","co38341","norming","","","","","","",""
"2176.319999999483","","","post_reveal_questions","survey-likert","292","1032000","0.0-6.0-6.40","3039011","co38341","norming","","","{""aha"":5}","[0]","../img/tt/1063tt.jpg","",""
"null","<div style=""font-size:60px;""> </div>","null","fixation","html-keyboard-response","293","1032213","0.0-6.0-0.41","3039011","co38341","norming","","","","","","",""
"null","../img/tt/1269tt.jpg","null","mooney1","image-keyboard-response","294","1035227","0.0-6.0-1.41","3039011","co38341","norming","","","","","","",""
"9617.465000000317","","","post_mooney1_questions","survey-likert","295","1044846","0.0-6.0-2.41","3039011","co38341","norming","","","{""curiosity"":5,""confidence"":3}","[0,1]","../img/tt/1269tt.jpg","",""
"9399.620000000112","","","recognition","survey-text","296","1054248","0.0-6.0-3.41","3039011","co38341","norming","","","{""guess"":""Kat/koala""}","","../img/tt/1269tt.jpg","",""
"null","../img/gs/1269gs.jpg","null","reveal","image-keyboard-response","297","1056253","0.0-6.0-4.41","3039011","co38341","norming","","","","","","",""
"null","../img/tt/1269tt.jpg","null","mooney2","image-keyboard-response","298","1058269","0.0-6.0-5.41","3039011","co38341","norming","","","","","","",""
"3754.559999999823","","","post_reveal_questions","survey-likert","299","1062025","0.0-6.0-6.41","3039011","co38341","norming","","","{""aha"":5}","[0]","../img/tt/1269tt.jpg","",""
"null","<div style=""font-size:60px;""> </div>","null","fixation","html-keyboard-response","300","1062230","0.0-6.0-0.42","3039011","co38341","norming","","","","","","",""
"null","../img/tt/1283tt.jpg","null","mooney1","image-keyboard-response","301","1065232","0.0-6.0-1.42","3039011","co38341","norming","","","","","","",""
"5331.840000000317","","","post_mooney1_questions","survey-likert","302","1070566","0.0-6.0-2.42","3039011","co38341","norming","","","{""curiosity"":6,""confidence"":0}","[0,1]","../img/tt/1283tt.jpg","",""
"1222.8900000001304","","","recognition","survey-text","303","1071791","0.0-6.0-3.42","3039011","co38341","norming","","","{""guess"":""""}","","../img/tt/1283tt.jpg","",""
"null","../img/gs/1283gs.jpg","null","reveal","image-keyboard-response","304","1073805","0.0-6.0-4.42","3039011","co38341","norming","","","","","","",""
"null","../img/tt/1283tt.jpg","null","mooney2","image-keyboard-response","305","1075822","0.0-6.0-5.42","3039011","co38341","norming","","","","","","",""
"2980.195000000065","","","post_reveal_questions","survey-likert","306","1078804","0.0-6.0-6.42","3039011","co38341","norming","","","{""aha"":4}","[0]","../img/tt/1283tt.jpg","",""
"null","<div style=""font-size:60px;""> </div>","null","fixation","html-keyboard-response","307","1079021","0.0-6.0-0.43","3039011","co38341","norming","","","","","","",""
"null","../img/tt/1363tt.jpg","null","mooney1","image-keyboard-response","308","1082034","0.0-6.0-1.43","3039011","co38341","norming","","","","","","",""
"4524.895000000019","","","post_mooney1_questions","survey-likert","309","1086561","0.0-6.0-2.43","3039011","co38341","norming","","","{""curiosity"":5,""confidence"":0}","[0,1]","../img/tt/1363tt.jpg","",""
"842.8249999997206","","","recognition","survey-text","310","1087406","0.0-6.0-3.43","3039011","co38341","norming","","","{""guess"":""""}","","../img/tt/1363tt.jpg","",""
"null","../img/gs/1363gs.jpg","null","reveal","image-keyboard-response","311","1089408","0.0-6.0-4.43","3039011","co38341","norming","","","","","","",""
"null","../img/tt/1363tt.jpg","null","mooney2","image-keyboard-response","312","1091423","0.0-6.0-5.43","3039011","co38341","norming","","","","","","",""
"2012.4449999998324","","","post_reveal_questions","survey-likert","313","1093437","0.0-6.0-6.43","3039011","co38341","norming","","","{""aha"":5}","[0]","../img/tt/1363tt.jpg","",""
"null","<div style=""font-size:60px;""> </div>","null","fixation","html-keyboard-response","314","1093644","0.0-6.0-0.44","3039011","co38341","norming","","","","","","",""
"null","../img/tt/140tt.jpg","null","mooney1","image-keyboard-response","315","1096646","0.0-6.0-1.44","3039011","co38341","norming","","","","","","",""
"5440.560000000056","","","post_mooney1_questions","survey-likert","316","1102088","0.0-6.0-2.44","3039011","co38341","norming","","","{""curiosity"":4,""confidence"":4}","[0,1]","../img/tt/140tt.jpg","",""
"3026.1099999998696","","","recognition","survey-text","317","1105117","0.0-6.0-3.44","3039011","co38341","norming","","","{""guess"":""Vorken""}","","../img/tt/140tt.jpg","",""
"null","../img/gs/140gs.jpg","null","reveal","image-keyboard-response","318","1107119","0.0-6.0-4.44","3039011","co38341","norming","","","","","","",""
"null","../img/tt/140tt.jpg","null","mooney2","image-keyboard-response","319","1109121","0.0-6.0-5.44","3039011","co38341","norming","","","","","","",""
"3301.3300000003073","","","post_reveal_questions","survey-likert","320","1112423","0.0-6.0-6.44","3039011","co38341","norming","","","{""aha"":0}","[0]","../img/tt/140tt.jpg","",""
"null","<div style=""font-size:60px;""> </div>","null","fixation","html-keyboard-response","321","1112625","0.0-6.0-0.45","3039011","co38341","norming","","","","","","",""
"null","../img/tt/020tt.jpg","null","mooney1","image-keyboard-response","322","1115637","0.0-6.0-1.45","3039011","co38341","norming","","","","","","",""
"4030.0100000000093","","","post_mooney1_questions","survey-likert","323","1119669","0.0-6.0-2.45","3039011","co38341","norming","","","{""curiosity"":5,""confidence"":1}","[0,1]","../img/tt/020tt.jpg","",""
"3235.2649999996647","","","recognition","survey-text","324","1122907","0.0-6.0-3.45","3039011","co38341","norming","","","{""guess"":""Vrouw""}","","../img/tt/020tt.jpg","",""
"null","../img/gs/020gs.jpg","null","reveal","image-keyboard-response","325","1124919","0.0-6.0-4.45","3039011","co38341","norming","","","","","","",""
"null","../img/tt/020tt.jpg","null","mooney2","image-keyboard-response","326","1126922","0.0-6.0-5.45","3039011","co38341","norming","","","","","","",""
"2733.8549999999814","","","post_reveal_questions","survey-likert","327","1129657","0.0-6.0-6.45","3039011","co38341","norming","","","{""aha"":3}","[0]","../img/tt/020tt.jpg","",""
"null","<div style=""font-size:60px;""> </div>","null","fixation","html-keyboard-response","328","1129859","0.0-6.0-0.46","3039011","co38341","norming","","","","","","",""
"null","../img/tt/1130tt.jpg","null","mooney1","image-keyboard-response","329","1132867","0.0-6.0-1.46","3039011","co38341","norming","","","","","","",""
"4714.135000000242","","","post_mooney1_questions","survey-likert","330","1137582","0.0-6.0-2.46","3039011","co38341","norming","","","{""curiosity"":5,""confidence"":2}","[0,1]","../img/tt/1130tt.jpg","",""
"4741.260000000242","","","recognition","survey-text","331","1142326","0.0-6.0-3.46","3039011","co38341","norming","","","{""guess"":""Man/speler""}","","../img/tt/1130tt.jpg","",""
"null","../img/gs/1130gs.jpg","null","reveal","image-keyboard-response","332","1144331","0.0-6.0-4.46","3039011","co38341","norming","","","","","","",""
"null","../img/tt/1130tt.jpg","null","mooney2","image-keyboard-response","333","1146332","0.0-6.0-5.46","3039011","co38341","norming","","","","","","",""
"2092.9149999995716","","","post_reveal_questions","survey-likert","334","1148426","0.0-6.0-6.46","3039011","co38341","norming","","","{""aha"":6}","[0]","../img/tt/1130tt.jpg","",""
"null","<div style=""font-size:60px;""> </div>","null","fixation","html-keyboard-response","335","1148639","0.0-6.0-0.47","3039011","co38341","norming","","","","","","",""
"null","../img/tt/040tt.jpg","null","mooney1","image-keyboard-response","336","1151654","0.0-6.0-1.47","3039011","co38341","norming","","","","","","",""
"6173.830000000307","","","post_mooney1_questions","survey-likert","337","1157829","0.0-6.0-2.47","3039011","co38341","norming","","","{""curiosity"":5,""confidence"":2}","[0,1]","../img/tt/040tt.jpg","",""
"9941.689999999711","","","recognition","survey-text","338","1167773","0.0-6.0-3.47","3039011","co38341","norming","","","{""guess"":""Wolf""}","","../img/tt/040tt.jpg","",""
"null","../img/gs/040gs.jpg","null","reveal","image-keyboard-response","339","1169778","0.0-6.0-4.47","3039011","co38341","norming","","","","","","",""
"null","../img/tt/040tt.jpg","null","mooney2","image-keyboard-response","340","1171783","0.0-6.0-5.47","3039011","co38341","norming","","","","","","",""
"3497.5450000001583","","","post_reveal_questions","survey-likert","341","1175282","0.0-6.0-6.47","3039011","co38341","norming","","","{""aha"":5}","[0]","../img/tt/040tt.jpg","",""
"null","<div style=""font-size:60px;""> </div>","null","fixation","html-keyboard-response","342","1175494","0.0-6.0-0.48","3039011","co38341","norming","","","","","","",""
"null","../img/tt/008tt.jpg","null","mooney1","image-keyboard-response","343","1178504","0.0-6.0-1.48","3039011","co38341","norming","","","","","","",""
"4581.614999999991","","","post_mooney1_questions","survey-likert","344","1183088","0.0-6.0-2.48","3039011","co38341","norming","","","{""curiosity"":5,""confidence"":1}","[0,1]","../img/tt/008tt.jpg","",""
"3951.2900000000373","","","recognition","survey-text","345","1187041","0.0-6.0-3.48","3039011","co38341","norming","","","{""guess"":""Geweer""}","","../img/tt/008tt.jpg","",""
"null","../img/gs/008gs.jpg","null","reveal","image-keyboard-response","346","1189043","0.0-6.0-4.48","3039011","co38341","norming","","","","","","",""
"null","../img/tt/008tt.jpg","null","mooney2","image-keyboard-response","347","1191049","0.0-6.0-5.48","3039011","co38341","norming","","","","","","",""
"2498.840000000084","","","post_reveal_questions","survey-likert","348","1193549","0.0-6.0-6.48","3039011","co38341","norming","","","{""aha"":6}","[0]","../img/tt/008tt.jpg","",""
"null","<div style=""font-size:60px;""> </div>","null","fixation","html-keyboard-response","349","1193763","0.0-6.0-0.49","3039011","co38341","norming","","","","","","",""
"null","../img/tt/094tt.jpg","null","mooney1","image-keyboard-response","350","1196765","0.0-6.0-1.49","3039011","co38341","norming","","","","","","",""
"4405.414999999804","","","post_mooney1_questions","survey-likert","351","1201172","0.0-6.0-2.49","3039011","co38341","norming","","","{""curiosity"":5,""confidence"":2}","[0,1]","../img/tt/094tt.jpg","",""
"3915.1099999998696","","","recognition","survey-text","352","1205089","0.0-6.0-3.49","3039011","co38341","norming","","","{""guess"":""Beer""}","","../img/tt/094tt.jpg","",""
"null","../img/gs/094gs.jpg","null","reveal","image-keyboard-response","353","1207091","0.0-6.0-4.49","3039011","co38341","norming","","","","","","",""
"null","../img/tt/094tt.jpg","null","mooney2","image-keyboard-response","354","1209093","0.0-6.0-5.49","3039011","co38341","norming","","","","","","",""
"2419.655000000028","","","post_reveal_questions","survey-likert","355","1211514","0.0-6.0-6.49","3039011","co38341","norming","","","{""aha"":5}","[0]","../img/tt/094tt.jpg","",""
"null","<div style=""font-size:60px;""> </div>","null","fixation","html-keyboard-response","356","1211726","0.0-6.0-0.50","3039011","co38341","norming","","","","","","",""
"null","../img/tt/1239tt.jpg","null","mooney1","image-keyboard-response","357","1214739","0.0-6.0-1.50","3039011","co38341","norming","","","","","","",""
"5468.590000000084","","","post_mooney1_questions","survey-likert","358","1220209","0.0-6.0-2.50","3039011","co38341","norming","","","{""curiosity"":6,""confidence"":0}","[0,1]","../img/tt/1239tt.jpg","",""
"1243.125","","","recognition","survey-text","359","1221454","0.0-6.0-3.50","3039011","co38341","norming","","","{""guess"":""""}","","../img/tt/1239tt.jpg","",""
"null","../img/gs/1239gs.jpg","null","reveal","image-keyboard-response","360","1223457","0.0-6.0-4.50","3039011","co38341","norming","","","","","","",""
"null","../img/tt/1239tt.jpg","null","mooney2","image-keyboard-response","361","1225469","0.0-6.0-5.50","3039011","co38341","norming","","","","","","",""
"2030.8149999997113","","","post_reveal_questions","survey-likert","362","1227501","0.0-6.0-6.50","3039011","co38341","norming","","","{""aha"":4}","[0]","../img/tt/1239tt.jpg","",""
"null","<div style=""font-size:60px;""> </div>","null","fixation","html-keyboard-response","363","1227718","0.0-6.0-0.51","3039011","co38341","norming","","","","","","",""
"null","../img/tt/315tt.jpg","null","mooney1","image-keyboard-response","364","1230724","0.0-6.0-1.51","3039011","co38341","norming","","","","","","",""
"3884.0200000000186","","","post_mooney1_questions","survey-likert","365","1234610","0.0-6.0-2.51","3039011","co38341","norming","","","{""curiosity"":5,""confidence"":1}","[0,1]","../img/tt/315tt.jpg","",""
"4498.860000000102","","","recognition","survey-text","366","1239111","0.0-6.0-3.51","3039011","co38341","norming","","","{""guess"":""Vogel""}","","../img/tt/315tt.jpg","",""
"null","../img/gs/315gs.jpg","null","reveal","image-keyboard-response","367","1241114","0.0-6.0-4.51","3039011","co38341","norming","","","","","","",""
"null","../img/tt/315tt.jpg","null","mooney2","image-keyboard-response","368","1243115","0.0-6.0-5.51","3039011","co38341","norming","","","","","","",""
"1872.440000000177","","","post_reveal_questions","survey-likert","369","1244989","0.0-6.0-6.51","3039011","co38341","norming","","","{""aha"":5}","[0]","../img/tt/315tt.jpg","",""
"null","<div style=""font-size:60px;""> </div>","null","fixation","html-keyboard-response","370","1245198","0.0-6.0-0.52","3039011","co38341","norming","","","","","","",""
"null","../img/tt/296tt.jpg","null","mooney1","image-keyboard-response","371","1248212","0.0-6.0-1.52","3039011","co38341","norming","","","","","","",""
"3797.345000000205","","","post_mooney1_questions","survey-likert","372","1252011","0.0-6.0-2.52","3039011","co38341","norming","","","{""curiosity"":5,""confidence"":1}","[0,1]","../img/tt/296tt.jpg","",""
"5959.664999999804","","","recognition","survey-text","373","1257974","0.0-6.0-3.52","3039011","co38341","norming","","","{""guess"":""Dokterskamer""}","","../img/tt/296tt.jpg","",""
"null","../img/gs/296gs.jpg","null","reveal","image-keyboard-response","374","1259976","0.0-6.0-4.52","3039011","co38341","norming","","","","","","",""
"null","../img/tt/296tt.jpg","null","mooney2","image-keyboard-response","375","1261991","0.0-6.0-5.52","3039011","co38341","norming","","","","","","",""
"2329.519999999786","","","post_reveal_questions","survey-likert","376","1264322","0.0-6.0-6.52","3039011","co38341","norming","","","{""aha"":1}","[0]","../img/tt/296tt.jpg","",""
"null","<div style=""font-size:60px;""> </div>","null","fixation","html-keyboard-response","377","1264527","0.0-6.0-0.53","3039011","co38341","norming","","","","","","",""
"null","../img/tt/1309tt.jpg","null","mooney1","image-keyboard-response","378","1267543","0.0-6.0-1.53","3039011","co38341","norming","","","","","","",""
"3627.024999999674","","","post_mooney1_questions","survey-likert","379","1271172","0.0-6.0-2.53","3039011","co38341","norming","","","{""curiosity"":5,""confidence"":2}","[0,1]","../img/tt/1309tt.jpg","",""
"3519.4950000001118","","","recognition","survey-text","380","1274694","0.0-6.0-3.53","3039011","co38341","norming","","","{""guess"":""Bos""}","","../img/tt/1309tt.jpg","",""
"null","../img/gs/1309gs.jpg","null","reveal","image-keyboard-response","381","1276703","0.0-6.0-4.53","3039011","co38341","norming","","","","","","",""
"null","../img/tt/1309tt.jpg","null","mooney2","image-keyboard-response","382","1278704","0.0-6.0-5.53","3039011","co38341","norming","","","","","","",""
"3527.75","","","post_reveal_questions","survey-likert","383","1282233","0.0-6.0-6.53","3039011","co38341","norming","","","{""aha"":5}","[0]","../img/tt/1309tt.jpg","",""
"null","<div style=""font-size:60px;""> </div>","null","fixation","html-keyboard-response","384","1282448","0.0-6.0-0.54","3039011","co38341","norming","","","","","","",""
"null","../img/tt/121tt.jpg","null","mooney1","image-keyboard-response","385","1285456","0.0-6.0-1.54","3039011","co38341","norming","","","","","","",""
"7093.225000000093","","","post_mooney1_questions","survey-likert","386","1292551","0.0-6.0-2.54","3039011","co38341","norming","","","{""curiosity"":5,""confidence"":2}","[0,1]","../img/tt/121tt.jpg","",""
"3661.6550000002608","","","recognition","survey-text","387","1296215","0.0-6.0-3.54","3039011","co38341","norming","","","{""guess"":""Rivier""}","","../img/tt/121tt.jpg","",""
"null","../img/gs/121gs.jpg","null","reveal","image-keyboard-response","388","1298232","0.0-6.0-4.54","3039011","co38341","norming","","","","","","",""
"null","../img/tt/121tt.jpg","null","mooney2","image-keyboard-response","389","1300233","0.0-6.0-5.54","3039011","co38341","norming","","","","","","",""
"2113.4650000003166","","","post_reveal_questions","survey-likert","390","1302348","0.0-6.0-6.54","3039011","co38341","norming","","","{""aha"":5}","[0]","../img/tt/121tt.jpg","",""
"null","<div style=""font-size:60px;""> </div>","null","fixation","html-keyboard-response","391","1302562","0.0-6.0-0.55","3039011","co38341","norming","","","","","","",""
"null","../img/tt/064tt.jpg","null","mooney1","image-keyboard-response","392","1305570","0.0-6.0-1.55","3039011","co38341","norming","","","","","","",""
"4813.230000000214","","","post_mooney1_questions","survey-likert","393","1310385","0.0-6.0-2.55","3039011","co38341","norming","","","{""curiosity"":5,""confidence"":3}","[0,1]","../img/tt/064tt.jpg","",""
"4260.655000000028","","","recognition","survey-text","394","1314649","0.0-6.0-3.55","3039011","co38341","norming","","","{""guess"":""Schildpad""}","","../img/tt/064tt.jpg","",""
"null","../img/gs/064gs.jpg","null","reveal","image-keyboard-response","395","1316662","0.0-6.0-4.55","3039011","co38341","norming","","","","","","",""
"null","../img/tt/064tt.jpg","null","mooney2","image-keyboard-response","396","1318663","0.0-6.0-5.55","3039011","co38341","norming","","","","","","",""
"2345.7599999995437","","","post_reveal_questions","survey-likert","397","1321010","0.0-6.0-6.55","3039011","co38341","norming","","","{""aha"":2}","[0]","../img/tt/064tt.jpg","",""
"null","<div style=""font-size:60px;""> </div>","null","fixation","html-keyboard-response","398","1321213","0.0-6.0-0.56","3039011","co38341","norming","","","","","","",""
"null","../img/tt/438tt.jpg","null","mooney1","image-keyboard-response","399","1324228","0.0-6.0-1.56","3039011","co38341","norming","","","","","","",""
"3634.9449999998324","","","post_mooney1_questions","survey-likert","400","1327865","0.0-6.0-2.56","3039011","co38341","norming","","","{""curiosity"":5,""confidence"":4}","[0,1]","../img/tt/438tt.jpg","",""
"4533.820000000065","","","recognition","survey-text","401","1332402","0.0-6.0-3.56","3039011","co38341","norming","","","{""guess"":""Krokodil""}","","../img/tt/438tt.jpg","",""
"null","../img/gs/438gs.jpg","null","reveal","image-keyboard-response","402","1334418","0.0-6.0-4.56","3039011","co38341","norming","","","","","","",""
"null","../img/tt/438tt.jpg","null","mooney2","image-keyboard-response","403","1336422","0.0-6.0-5.56","3039011","co38341","norming","","","","","","",""
"2735.79000000027","","","post_reveal_questions","survey-likert","404","1339159","0.0-6.0-6.56","3039011","co38341","norming","","","{""aha"":6}","[0]","../img/tt/438tt.jpg","",""
"null","<div style=""font-size:60px;""> </div>","null","fixation","html-keyboard-response","405","1339373","0.0-6.0-0.57","3039011","co38341","norming","","","","","","",""
"null","../img/tt/111tt.jpg","null","mooney1","image-keyboard-response","406","1342376","0.0-6.0-1.57","3039011","co38341","norming","","","","","","",""
"4067.4699999997392","","","post_mooney1_questions","survey-likert","407","1346445","0.0-6.0-2.57","3039011","co38341","norming","","","{""curiosity"":6,""confidence"":0}","[0,1]","../img/tt/111tt.jpg","",""
"1075.3499999996275","","","recognition","survey-text","408","1347523","0.0-6.0-3.57","3039011","co38341","norming","","","{""guess"":""""}","","../img/tt/111tt.jpg","",""
"null","../img/gs/111gs.jpg","null","reveal","image-keyboard-response","409","1349524","0.0-6.0-4.57","3039011","co38341","norming","","","","","","",""
"null","../img/tt/111tt.jpg","null","mooney2","image-keyboard-response","410","1351526","0.0-6.0-5.57","3039011","co38341","norming","","","","","","",""
"1667.2400000002235","","","post_reveal_questions","survey-likert","411","1353195","0.0-6.0-6.57","3039011","co38341","norming","","","{""aha"":6}","[0]","../img/tt/111tt.jpg","",""
"null","<div style=""font-size:60px;""> </div>","null","fixation","html-keyboard-response","412","1353407","0.0-6.0-0.58","3039011","co38341","norming","","","","","","",""
"null","../img/tt/534tt.jpg","null","mooney1","image-keyboard-response","413","1356410","0.0-6.0-1.58","3039011","co38341","norming","","","","","","",""
"4625.744999999879","","","post_mooney1_questions","survey-likert","414","1361037","0.0-6.0-2.58","3039011","co38341","norming","","","{""curiosity"":6,""confidence"":1}","[0,1]","../img/tt/534tt.jpg","",""
"5358.550000000047","","","recognition","survey-text","415","1366398","0.0-6.0-3.58","3039011","co38341","norming","","","{""guess"":""Netels""}","","../img/tt/534tt.jpg","",""
"null","../img/gs/534gs.jpg","null","reveal","image-keyboard-response","416","1368403","0.0-6.0-4.58","3039011","co38341","norming","","","","","","",""
"null","../img/tt/534tt.jpg","null","mooney2","image-keyboard-response","417","1370419","0.0-6.0-5.58","3039011","co38341","norming","","","","","","",""
"2035.5549999999348","","","post_reveal_questions","survey-likert","418","1372456","0.0-6.0-6.58","3039011","co38341","norming","","","{""aha"":6}","[0]","../img/tt/534tt.jpg","",""
"null","<div style=""font-size:60px;""> </div>","null","fixation","html-keyboard-response","419","1372663","0.0-6.0-0.59","3039011","co38341","norming","","","","","","",""
"null","../img/tt/1275tt.jpg","null","mooney1","image-keyboard-response","420","1375670","0.0-6.0-1.59","3039011","co38341","norming","","","","","","",""
"4991.389999999665","","","post_mooney1_questions","survey-likert","421","1380664","0.0-6.0-2.59","3039011","co38341","norming","","","{""curiosity"":5,""confidence"":2}","[0,1]","../img/tt/1275tt.jpg","",""
"3344","","","recognition","survey-text","422","1384010","0.0-6.0-3.59","3039011","co38341","norming","","","{""guess"":""Varken""}","","../img/tt/1275tt.jpg","",""
"null","../img/gs/1275gs.jpg","null","reveal","image-keyboard-response","423","1386013","0.0-6.0-4.59","3039011","co38341","norming","","","","","","",""
"null","../img/tt/1275tt.jpg","null","mooney2","image-keyboard-response","424","1388023","0.0-6.0-5.59","3039011","co38341","norming","","","","","","",""
"2411.314999999944","","","post_reveal_questions","survey-likert","425","1390436","0.0-6.0-6.59","3039011","co38341","norming","","","{""aha"":6}","[0]","../img/tt/1275tt.jpg","",""
"null","<div style=""font-size:60px;""> </div>","null","fixation","html-keyboard-response","426","1390641","0.0-6.0-0.60","3039011","co38341","norming","","","","","","",""
"null","../img/tt/1096tt.jpg","null","mooney1","image-keyboard-response","427","1393649","0.0-6.0-1.60","3039011","co38341","norming","","","","","","",""
"3591.8000000002794","","","post_mooney1_questions","survey-likert","428","1397243","0.0-6.0-2.60","3039011","co38341","norming","","","{""curiosity"":5,""confidence"":2}","[0,1]","../img/tt/1096tt.jpg","",""
"4184.145000000019","","","recognition","survey-text","429","1401429","0.0-6.0-3.60","3039011","co38341","norming","","","{""guess"":""Kelder""}","","../img/tt/1096tt.jpg","",""
"null","../img/gs/1096gs.jpg","null","reveal","image-keyboard-response","430","1403435","0.0-6.0-4.60","3039011","co38341","norming","","","","","","",""
"null","../img/tt/1096tt.jpg","null","mooney2","image-keyboard-response","431","1405437","0.0-6.0-5.60","3039011","co38341","norming","","","","","","",""
"1965.9999999997672","","","post_reveal_questions","survey-likert","432","1407404","0.0-6.0-6.60","3039011","co38341","norming","","","{""aha"":4}","[0]","../img/tt/1096tt.jpg","",""
"null","<div style=""font-size:60px;""> </div>","null","fixation","html-keyboard-response","433","1407610","0.0-6.0-0.61","3039011","co38341","norming","","","","","","",""
"null","../img/tt/194tt.jpg","null","mooney1","image-keyboard-response","434","1410620","0.0-6.0-1.61","3039011","co38341","norming","","","","","","",""
"4520.229999999981","","","post_mooney1_questions","survey-likert","435","1415142","0.0-6.0-2.61","3039011","co38341","norming","","","{""curiosity"":5,""confidence"":2}","[0,1]","../img/tt/194tt.jpg","",""
"8088.889999999898","","","recognition","survey-text","436","1423233","0.0-6.0-3.61","3039011","co38341","norming","","","{""guess"":""Muziekspeelster""}","","../img/tt/194tt.jpg","",""
"null","../img/gs/194gs.jpg","null","reveal","image-keyboard-response","437","1425249","0.0-6.0-4.61","3039011","co38341","norming","","","","","","",""
"null","../img/tt/194tt.jpg","null","mooney2","image-keyboard-response","438","1427267","0.0-6.0-5.61","3039011","co38341","norming","","","","","","",""
"1968.1250000002328","","","post_reveal_questions","survey-likert","439","1429236","0.0-6.0-6.61","3039011","co38341","norming","","","{""aha"":6}","[0]","../img/tt/194tt.jpg","",""
"null","<div style=""font-size:60px;""> </div>","null","fixation","html-keyboard-response","440","1429452","0.0-6.0-0.62","3039011","co38341","norming","","","","","","",""
"null","../img/tt/306tt.jpg","null","mooney1","image-keyboard-response","441","1432469","0.0-6.0-1.62","3039011","co38341","norming","","","","","","",""
"6081.305000000168","","","post_mooney1_questions","survey-likert","442","1438552","0.0-6.0-2.62","3039011","co38341","norming","","","{""curiosity"":6,""confidence"":3}","[0,1]","../img/tt/306tt.jpg","",""
"4431.065000000177","","","recognition","survey-text","443","1442986","0.0-6.0-3.62","3039011","co38341","norming","","","{""guess"":""Brommer rijden""}","","../img/tt/306tt.jpg","",""
"null","../img/gs/306gs.jpg","null","reveal","image-keyboard-response","444","1445002","0.0-6.0-4.62","3039011","co38341","norming","","","","","","",""
"null","../img/tt/306tt.jpg","null","mooney2","image-keyboard-response","445","1447003","0.0-6.0-5.62","3039011","co38341","norming","","","","","","",""
"1818.179999999702","","","post_reveal_questions","survey-likert","446","1448823","0.0-6.0-6.62","3039011","co38341","norming","","","{""aha"":6}","[0]","../img/tt/306tt.jpg","",""
"null","<div style=""font-size:60px;""> </div>","null","fixation","html-keyboard-response","447","1449030","0.0-6.0-0.63","3039011","co38341","norming","","","","","","",""
"null","../img/tt/1278tt.jpg","null","mooney1","image-keyboard-response","448","1452046","0.0-6.0-1.63","3039011","co38341","norming","","","","","","",""
"3509.385000000475","","","post_mooney1_questions","survey-likert","449","1455557","0.0-6.0-2.63","3039011","co38341","norming","","","{""curiosity"":6,""confidence"":0}","[0,1]","../img/tt/1278tt.jpg","",""
"802.7849999996834","","","recognition","survey-text","450","1456363","0.0-6.0-3.63","3039011","co38341","norming","","","{""guess"":""""}","","../img/tt/1278tt.jpg","",""
"null","../img/gs/1278gs.jpg","null","reveal","image-keyboard-response","451","1458376","0.0-6.0-4.63","3039011","co38341","norming","","","","","","",""
"null","../img/tt/1278tt.jpg","null","mooney2","image-keyboard-response","452","1460377","0.0-6.0-5.63","3039011","co38341","norming","","","","","","",""
"1960.8499999998603","","","post_reveal_questions","survey-likert","453","1462339","0.0-6.0-6.63","3039011","co38341","norming","","","{""aha"":0}","[0]","../img/tt/1278tt.jpg","",""
"null","<div style=""font-size:60px;""> </div>","null","fixation","html-keyboard-response","454","1462543","0.0-6.0-0.64","3039011","co38341","norming","","","","","","",""
"null","../img/tt/1226tt.jpg","null","mooney1","image-keyboard-response","455","1465545","0.0-6.0-1.64","3039011","co38341","norming","","","","","","",""
"3006.2750000001397","","","post_mooney1_questions","survey-likert","456","1468553","0.0-6.0-2.64","3039011","co38341","norming","","","{""curiosity"":5,""confidence"":1}","[0,1]","../img/tt/1226tt.jpg","",""
"2738.5200000000186","","","recognition","survey-text","457","1471294","0.0-6.0-3.64","3039011","co38341","norming","","","{""guess"":""kip""}","","../img/tt/1226tt.jpg","",""
"null","../img/gs/1226gs.jpg","null","reveal","image-keyboard-response","458","1473303","0.0-6.0-4.64","3039011","co38341","norming","","","","","","",""
"null","../img/tt/1226tt.jpg","null","mooney2","image-keyboard-response","459","1475306","0.0-6.0-5.64","3039011","co38341","norming","","","","","","",""
"2896.9699999997392","","","post_reveal_questions","survey-likert","460","1478204","0.0-6.0-6.64","3039011","co38341","norming","","","{""aha"":5}","[0]","../img/tt/1226tt.jpg","",""
"null","<div style=""font-size:60px;""> </div>","null","fixation","html-keyboard-response","461","1478416","0.0-6.0-0.65","3039011","co38341","norming","","","","","","",""
"null","../img/tt/019tt.jpg","null","mooney1","image-keyboard-response","462","1481427","0.0-6.0-1.65","3039011","co38341","norming","","","","","","",""
"4289.780000000028","","","post_mooney1_questions","survey-likert","463","1485719","0.0-6.0-2.65","3039011","co38341","norming","","","{""curiosity"":5,""confidence"":3}","[0,1]","../img/tt/019tt.jpg","",""
"1795.2600000002421","","","recognition","survey-text","464","1487517","0.0-6.0-3.65","3039011","co38341","norming","","","{""guess"":""tang""}","","../img/tt/019tt.jpg","",""
"null","../img/gs/019gs.jpg","null","reveal","image-keyboard-response","465","1489521","0.0-6.0-4.65","3039011","co38341","norming","","","","","","",""
"null","../img/tt/019tt.jpg","null","mooney2","image-keyboard-response","466","1491522","0.0-6.0-5.65","3039011","co38341","norming","","","","","","",""
"2131.840000000084","","","post_reveal_questions","survey-likert","467","1493656","0.0-6.0-6.65","3039011","co38341","norming","","","{""aha"":2}","[0]","../img/tt/019tt.jpg","",""
"null","<div style=""font-size:60px;""> </div>","null","fixation","html-keyboard-response","468","1493870","0.0-6.0-0.66","3039011","co38341","norming","","","","","","",""
"null","../img/tt/1151tt.jpg","null","mooney1","image-keyboard-response","469","1496880","0.0-6.0-1.66","3039011","co38341","norming","","","","","","",""
"11049.985000000102","","","post_mooney1_questions","survey-likert","470","1507931","0.0-6.0-2.66","3039011","co38341","norming","","","{""curiosity"":5,""confidence"":3}","[0,1]","../img/tt/1151tt.jpg","",""
"21208.76000000001","","","recognition","survey-text","471","1529143","0.0-6.0-3.66","3039011","co38341","norming","","","{""guess"":""vallende stenen""}","","../img/tt/1151tt.jpg","",""
"null","../img/gs/1151gs.jpg","null","reveal","image-keyboard-response","472","1531159","0.0-6.0-4.66","3039011","co38341","norming","","","","","","",""
"null","../img/tt/1151tt.jpg","null","mooney2","image-keyboard-response","473","1533159","0.0-6.0-5.66","3039011","co38341","norming","","","","","","",""
"2158.935000000056","","","post_reveal_questions","survey-likert","474","1535320","0.0-6.0-6.66","3039011","co38341","norming","","","{""aha"":5}","[0]","../img/tt/1151tt.jpg","",""
"null","<div style=""font-size:60px;""> </div>","null","fixation","html-keyboard-response","475","1535525","0.0-6.0-0.67","3039011","co38341","norming","","","","","","",""
"null","../img/tt/098tt.jpg","null","mooney1","image-keyboard-response","476","1538535","0.0-6.0-1.67","3039011","co38341","norming","","","","","","",""
"8270.290000000037","","","post_mooney1_questions","survey-likert","477","1546807","0.0-6.0-2.67","3039011","co38341","norming","","","{""curiosity"":6,""confidence"":0}","[0,1]","../img/tt/098tt.jpg","",""
"906.1500000001397","","","recognition","survey-text","478","1547715","0.0-6.0-3.67","3039011","co38341","norming","","","{""guess"":""""}","","../img/tt/098tt.jpg","",""
"null","../img/gs/098gs.jpg","null","reveal","image-keyboard-response","479","1549725","0.0-6.0-4.67","3039011","co38341","norming","","","","","","",""
"null","../img/tt/098tt.jpg","null","mooney2","image-keyboard-response","480","1551727","0.0-6.0-5.67","3039011","co38341","norming","","","","","","",""
"1603.225000000326","","","post_reveal_questions","survey-likert","481","1553331","0.0-6.0-6.67","3039011","co38341","norming","","","{""aha"":3}","[0]","../img/tt/098tt.jpg","",""
"null","<div style=""font-size:60px;""> </div>","null","fixation","html-keyboard-response","482","1553549","0.0-6.0-0.68","3039011","co38341","norming","","","","","","",""
"null","../img/tt/1250tt.jpg","null","mooney1","image-keyboard-response","483","1556562","0.0-6.0-1.68","3039011","co38341","norming","","","","","","",""
"4567.089999999851","","","post_mooney1_questions","survey-likert","484","1561130","0.0-6.0-2.68","3039011","co38341","norming","","","{""curiosity"":5,""confidence"":0}","[0,1]","../img/tt/1250tt.jpg","",""
"828.3350000001956","","","recognition","survey-text","485","1561961","0.0-6.0-3.68","3039011","co38341","norming","","","{""guess"":""""}","","../img/tt/1250tt.jpg","",""
"null","../img/gs/1250gs.jpg","null","reveal","image-keyboard-response","486","1563968","0.0-6.0-4.68","3039011","co38341","norming","","","","","","",""
"null","../img/tt/1250tt.jpg","null","mooney2","image-keyboard-response","487","1565969","0.0-6.0-5.68","3039011","co38341","norming","","","","","","",""
"1650.2099999999627","","","post_reveal_questions","survey-likert","488","1567621","0.0-6.0-6.68","3039011","co38341","norming","","","{""aha"":5}","[0]","../img/tt/1250tt.jpg","",""
"null","<div style=""font-size:60px;""> </div>","null","fixation","html-keyboard-response","489","1567834","0.0-6.0-0.69","3039011","co38341","norming","","","","","","",""
"null","../img/tt/1243tt.jpg","null","mooney1","image-keyboard-response","490","1570860","0.0-6.0-1.69","3039011","co38341","norming","","","","","","",""
"3078.9000000001397","","","post_mooney1_questions","survey-likert","491","1573940","0.0-6.0-2.69","3039011","co38341","norming","","","{""curiosity"":5,""confidence"":2}","[0,1]","../img/tt/1243tt.jpg","",""
"1817.994999999879","","","recognition","survey-text","492","1575761","0.0-6.0-3.69","3039011","co38341","norming","","","{""guess"":""aap""}","","../img/tt/1243tt.jpg","",""
"null","../img/gs/1243gs.jpg","null","reveal","image-keyboard-response","493","1577767","0.0-6.0-4.69","3039011","co38341","norming","","","","","","",""
"null","../img/tt/1243tt.jpg","null","mooney2","image-keyboard-response","494","1579769","0.0-6.0-5.69","3039011","co38341","norming","","","","","","",""
"1969.320000000298","","","post_reveal_questions","survey-likert","495","1581740","0.0-6.0-6.69","3039011","co38341","norming","","","{""aha"":6}","[0]","../img/tt/1243tt.jpg","",""
"null","<div style=""font-size:60px;""> </div>","null","fixation","html-keyboard-response","496","1581949","0.0-6.0-0.70","3039011","co38341","norming","","","","","","",""
"null","../img/tt/084tt.jpg","null","mooney1","image-keyboard-response","497","1584965","0.0-6.0-1.70","3039011","co38341","norming","","","","","","",""
"4942.235000000102","","","post_mooney1_questions","survey-likert","498","1589909","0.0-6.0-2.70","3039011","co38341","norming","","","{""curiosity"":4,""confidence"":3}","[0,1]","../img/tt/084tt.jpg","",""
"2009.594999999972","","","recognition","survey-text","499","1591921","0.0-6.0-3.70","3039011","co38341","norming","","","{""guess"":""kip""}","","../img/tt/084tt.jpg","",""
"null","../img/gs/084gs.jpg","null","reveal","image-keyboard-response","500","1593931","0.0-6.0-4.70","3039011","co38341","norming","","","","","","",""
"null","../img/tt/084tt.jpg","null","mooney2","image-keyboard-response","501","1595941","0.0-6.0-5.70","3039011","co38341","norming","","","","","","",""
"2067.820000000298","","","post_reveal_questions","survey-likert","502","1598010","0.0-6.0-6.70","3039011","co38341","norming","","","{""aha"":5}","[0]","../img/tt/084tt.jpg","",""
"null","<div style=""font-size:60px;""> </div>","null","fixation","html-keyboard-response","503","1598214","0.0-6.0-0.71","3039011","co38341","norming","","","","","","",""
"null","../img/tt/1307tt.jpg","null","mooney1","image-keyboard-response","504","1601216","0.0-6.0-1.71","3039011","co38341","norming","","","","","","",""
"5144.039999999804","","","post_mooney1_questions","survey-likert","505","1606362","0.0-6.0-2.71","3039011","co38341","norming","","","{""curiosity"":5,""confidence"":2}","[0,1]","../img/tt/1307tt.jpg","",""
"5802.909999999916","","","recognition","survey-text","506","1612167","0.0-6.0-3.71","3039011","co38341","norming","","","{""guess"":""Kalkoen/Pauw""}","","../img/tt/1307tt.jpg","",""
"null","../img/gs/1307gs.jpg","null","reveal","image-keyboard-response","507","1614169","0.0-6.0-4.71","3039011","co38341","norming","","","","","","",""
"null","../img/tt/1307tt.jpg","null","mooney2","image-keyboard-response","508","1616176","0.0-6.0-5.71","3039011","co38341","norming","","","","","","",""
"2099.0449999999255","","","post_reveal_questions","survey-likert","509","1618276","0.0-6.0-6.71","3039011","co38341","norming","","","{""aha"":4}","[0]","../img/tt/1307tt.jpg","",""
"null","<div style=""font-size:60px;""> </div>","null","fixation","html-keyboard-response","510","1618492","0.0-6.0-0.72","3039011","co38341","norming","","","","","","",""
"null","../img/tt/567tt.jpg","null","mooney1","image-keyboard-response","511","1621500","0.0-6.0-1.72","3039011","co38341","norming","","","","","","",""
"4377.245000000112","","","post_mooney1_questions","survey-likert","512","1625879","0.0-6.0-2.72","3039011","co38341","norming","","","{""curiosity"":2,""confidence"":5}","[0,1]","../img/tt/567tt.jpg","",""
"3398.7099999999627","","","recognition","survey-text","513","1629280","0.0-6.0-3.72","3039011","co38341","norming","","","{""guess"":""broodrooster""}","","../img/tt/567tt.jpg","",""
"null","../img/gs/567gs.jpg","null","reveal","image-keyboard-response","514","1631283","0.0-6.0-4.72","3039011","co38341","norming","","","","","","",""
"null","../img/tt/567tt.jpg","null","mooney2","image-keyboard-response","515","1633297","0.0-6.0-5.72","3039011","co38341","norming","","","","","","",""
"2246.1650000000373","","","post_reveal_questions","survey-likert","516","1635545","0.0-6.0-6.72","3039011","co38341","norming","","","{""aha"":0}","[0]","../img/tt/567tt.jpg","",""
"null","<div style=""font-size:60px;""> </div>","null","fixation","html-keyboard-response","517","1635747","0.0-6.0-0.73","3039011","co38341","norming","","","","","","",""
"null","../img/tt/1181tt.jpg","null","mooney1","image-keyboard-response","518","1638748","0.0-6.0-1.73","3039011","co38341","norming","","","","","","",""
"3954.3549999999814","","","post_mooney1_questions","survey-likert","519","1642705","0.0-6.0-2.73","3039011","co38341","norming","","","{""curiosity"":5,""confidence"":2}","[0,1]","../img/tt/1181tt.jpg","",""
"3784.4799999997485","","","recognition","survey-text","520","1646491","0.0-6.0-3.73","3039011","co38341","norming","","","{""guess"":""Man pet""}","","../img/tt/1181tt.jpg","",""
"null","../img/gs/1181gs.jpg","null","reveal","image-keyboard-response","521","1648500","0.0-6.0-4.73","3039011","co38341","norming","","","","","","",""
"null","../img/tt/1181tt.jpg","null","mooney2","image-keyboard-response","522","1650506","0.0-6.0-5.73","3039011","co38341","norming","","","","","","",""
"2833.060000000056","","","post_reveal_questions","survey-likert","523","1653341","0.0-6.0-6.73","3039011","co38341","norming","","","{""aha"":4}","[0]","../img/tt/1181tt.jpg","",""
"null","<div style=""font-size:60px;""> </div>","null","fixation","html-keyboard-response","524","1653552","0.0-6.0-0.74","3039011","co38341","norming","","","","","","",""
"null","../img/tt/1053tt.jpg","null","mooney1","image-keyboard-response","525","1656562","0.0-6.0-1.74","3039011","co38341","norming","","","","","","",""
"4315.625","","","post_mooney1_questions","survey-likert","526","1660880","0.0-6.0-2.74","3039011","co38341","norming","","","{""curiosity"":4,""confidence"":3}","[0,1]","../img/tt/1053tt.jpg","",""
"2472.1100000001024","","","recognition","survey-text","527","1663354","0.0-6.0-3.74","3039011","co38341","norming","","","{""guess"":""Koeien""}","","../img/tt/1053tt.jpg","",""
"null","../img/gs/1053gs.jpg","null","reveal","image-keyboard-response","528","1665359","0.0-6.0-4.74","3039011","co38341","norming","","","","","","",""
"null","../img/tt/1053tt.jpg","null","mooney2","image-keyboard-response","529","1667360","0.0-6.0-5.74","3039011","co38341","norming","","","","","","",""
"2324.6500000001397","","","post_reveal_questions","survey-likert","530","1669686","0.0-6.0-6.74","3039011","co38341","norming","","","{""aha"":4}","[0]","../img/tt/1053tt.jpg","",""
"null","<div style=""font-size:60px;""> </div>","null","fixation","html-keyboard-response","531","1669892","0.0-6.0-0.75","3039011","co38341","norming","","","","","","",""
"null","../img/tt/189tt.jpg","null","mooney1","image-keyboard-response","532","1672902","0.0-6.0-1.75","3039011","co38341","norming","","","","","","",""
"4225.565000000177","","","post_mooney1_questions","survey-likert","533","1677130","0.0-6.0-2.75","3039011","co38341","norming","","","{""curiosity"":5,""confidence"":1}","[0,1]","../img/tt/189tt.jpg","",""
"3182.8149999994785","","","recognition","survey-text","534","1680315","0.0-6.0-3.75","3039011","co38341","norming","","","{""guess"":""Vliegtuig""}","","../img/tt/189tt.jpg","",""
"null","../img/gs/189gs.jpg","null","reveal","image-keyboard-response","535","1682317","0.0-6.0-4.75","3039011","co38341","norming","","","","","","",""
"null","../img/tt/189tt.jpg","null","mooney2","image-keyboard-response","536","1684318","0.0-6.0-5.75","3039011","co38341","norming","","","","","","",""
"1893.2949999996927","","","post_reveal_questions","survey-likert","537","1686213","0.0-6.0-6.75","3039011","co38341","norming","","","{""aha"":4}","[0]","../img/tt/189tt.jpg","",""
"null","<div style=""font-size:60px;""> </div>","null","fixation","html-keyboard-response","538","1686424","0.0-6.0-0.76","3039011","co38341","norming","","","","","","",""
"null","../img/tt/1066tt.jpg","null","mooney1","image-keyboard-response","539","1689437","0.0-6.0-1.76","3039011","co38341","norming","","","","","","",""
"4411.0999999996275","","","post_mooney1_questions","survey-likert","540","1693849","0.0-6.0-2.76","3039011","co38341","norming","","","{""curiosity"":5,""confidence"":2}","[0,1]","../img/tt/1066tt.jpg","",""
"776.1049999999814","","","recognition","survey-text","541","1694628","0.0-6.0-3.76","3039011","co38341","norming","","","{""guess"":""""}","","../img/tt/1066tt.jpg","",""
"null","../img/gs/1066gs.jpg","null","reveal","image-keyboard-response","542","1696634","0.0-6.0-4.76","3039011","co38341","norming","","","","","","",""
"null","../img/tt/1066tt.jpg","null","mooney2","image-keyboard-response","543","1698635","0.0-6.0-5.76","3039011","co38341","norming","","","","","","",""
"4561.5800000000745","","","post_reveal_questions","survey-likert","544","1703198","0.0-6.0-6.76","3039011","co38341","norming","","","{""aha"":1}","[0]","../img/tt/1066tt.jpg","",""
"null","<div style=""font-size:60px;""> </div>","null","fixation","html-keyboard-response","545","1703404","0.0-6.0-0.77","3039011","co38341","norming","","","","","","",""
"null","../img/tt/1241tt.jpg","null","mooney1","image-keyboard-response","546","1706405","0.0-6.0-1.77","3039011","co38341","norming","","","","","","",""
"7032.815000000177","","","post_mooney1_questions","survey-likert","547","1713440","0.0-6.0-2.77","3039011","co38341","norming","","","{""curiosity"":5,""confidence"":2}","[0,1]","../img/tt/1241tt.jpg","",""
"2310.4900000004563","","","recognition","survey-text","548","1715753","0.0-6.0-3.77","3039011","co38341","norming","","","{""guess"":""wolf""}","","../img/tt/1241tt.jpg","",""
"null","../img/gs/1241gs.jpg","null","reveal","image-keyboard-response","549","1717766","0.0-6.0-4.77","3039011","co38341","norming","","","","","","",""
"null","../img/tt/1241tt.jpg","null","mooney2","image-keyboard-response","550","1719769","0.0-6.0-5.77","3039011","co38341","norming","","","","","","",""
"3525.1550000002608","","","post_reveal_questions","survey-likert","551","1723295","0.0-6.0-6.77","3039011","co38341","norming","","","{""aha"":6}","[0]","../img/tt/1241tt.jpg","",""
"null","<div style=""font-size:60px;""> </div>","null","fixation","html-keyboard-response","552","1723519","0.0-6.0-0.78","3039011","co38341","norming","","","","","","",""
