"rt","stimulus","key_press","test_part","trial_type","trial_index","time_elapsed","internal_node_id","totalTime","subject","experiment_name","button_pressed","success","responses","question_order","currentStim","old","correct"
"6775.884999951813","Welcome to the experiment. This is an online experiment so please don't close the tab/window until we say goodbye.  Press any key to begin.","32","instructions","html-keyboard-response","0","6821","0.0-0.0","3728847","co38647","norming","","","","","","",""
"52392.01499999035","<div style='word-wrap: break-word; width: 900px'><h3>Please consider this information carefully before deciding whether to participate in this research</h3><ul style='text-align: left; font-size: .8em;'><li><b>Purpose of the research</b>: To examine how people process images.</li><li><b>What you will do in this research</b>:  Stimuli (images) will be presented on the computer and you will be asked different questions about them.</li><li><b>Time required</b>: Participation will take between 45 and 60 minutes to complete.</li><li><b>Risks</b>:  There are no anticipated risks associated with participating in this study. The effects of participating should be comparable to those you would experience from viewing a computer monitor for 30 minutes and using a mouse or keyboard.</li><li><b>Benefits</b>:  This study provides no benefits to you individually except for the credit. The study provides important information about the nature of perception and learning.</li><li><b>Confidentiality</b>:  Your participation in this study will remain confidential. No personally identifiable information will be associated with your data. Your de-identified data may be shared with other researchers and used in future projects.</li><li><b>Participation and withdrawal</b>:  Your participation in this study is completely voluntary and you may refuse to participate or you may choose to withdraw at any time without penalty.</li><li><b>How to contact the researchers</b>: If you have questions or concerns about your participation or payment, or want to request a summary of research findings, please contact Sander Van de Cruys (KU Leuven), at sander.vandecruys@kuleuven.be.</li></ul><p>The nature and purpose of this research have been sufficiently explained and I agree to participate in this study.  I understand that I am free to withdraw at any time without incurring any penalty.</p><p>Please consent by clicking the button below to continue. Otherwise, please exit the study at this time.</p></div>","","instructions","html-button-response","1","59217","0.0-1.0","3728847","co38647","norming","0","","","","","",""
"","","","instructions","fullscreen","2","65013","0.0-2.0","3728847","co38647","norming","","true","","","","",""
"32583.984999975655","","","sona","survey-html-form","3","97602","0.0-3.0","3728847","co38647","norming","","","[{""name"":""sonaid"",""value"":""38647""},{""name"":""debrief"",""value"":""yes""},{""name"":""datajoin"",""value"":""yes""}]","","","",""
"95133.65999999223","<div style='word-wrap: break-word; width: 900px'><h3>Instructions</h3><p>This experiment will have 3 parts. In the first part you will see a series of distorted images like the one below on the left. As you can see in the righthand image, the distorted images are derived from actual photographs. In what follows, you will <strong>briefly</strong> be presented with <strong>only</strong> the distorted image.</p> <div style='float: left; margin-right: 20px;'><img src='../img/018tt.jpg' height='250' width='250'></img></div><div style='float: right; margin-left: 20px;'><img src='../img/018gs.jpg' height='250' width='250'></img></div><p>Subsequently you will be asked a few questions about the image: One question on how <strong>curious</strong> you are about the solution and one on how <strong>confident</strong> you are that you know the solution.</p>Next, we ask you to make a guess on what is in the image. Note that it is OK to name just the <strong>basic level category</strong>. For example when you see a parrot in the image, 'parrot' will obviously be a correct answer but also correct is 'bird'. However, 'animal' will <strong>not</strong> be counted as a correct response. For the example above, 'rose' would be correct or 'flower', but not 'plant'. When soccer players are depicted, 'soccer', 'football', 'soccer players' will be correct, but not 'humans', 'outdoors', or 'sports'. You do not need to describe the image in full, just name the main object in it <strong>in one or two words</strong>. All images depict objects from one of the following broad level categories: animals, inanimate objects, plants, sports, vehicles, and food. Recognizing means knowing <strong>more</strong> than these broad labels for a given image. But we always encourage you to <strong>make a guess</strong> if you can. Note that you are allowed to use <strong>Dutch and English</strong> in your answers, whatever comes easiest for you.</p><p>Press any key to continue.</p></div>","32","instructions","html-keyboard-response","4","192739","0.0-4.0","3728847","co38647","norming","","","","","","",""
"21317.670000018552","<div style='word-wrap: break-word; width: 900px'><h3>Instructions</h3> <p>Next, the solution image will be revealed to you and you'll be asked to indicate how strong your <strong>aha-experience</strong> was after seeing the solution. This describes the positive feeling of the 'click' you sometimes experience, when the pieces of the 'puzzle' fall together and you suddenly have 'insight' in the image.</p><img src='aha.jpg' height='188' width='250'></img><p>Note that there are no right or wrong answers. We are interested in what <strong>you</strong> see in the image and how <strong>you</strong> feel about it.</p><p>Press any key to start the experiment.</p></div>","32","instructions","html-keyboard-response","5","214059","0.0-5.0","3728847","co38647","norming","","","","","","",""
"null","<div style=""font-size:60px;""> </div>","null","fixation","html-keyboard-response","6","214263","0.0-6.0-0.0","3728847","co38647","norming","","","","","","",""
"null","../img/tt/497tt.jpg","null","mooney1","image-keyboard-response","7","217270","0.0-6.0-1.0","3728847","co38647","norming","","","","","","",""
"16799.129999999423","","","post_mooney1_questions","survey-likert","8","234074","0.0-6.0-2.0","3728847","co38647","norming","","","{""curiosity"":5,""confidence"":1}","[0,1]","../img/tt/497tt.jpg","",""
"9714.745000004768","","","recognition","survey-text","9","243793","0.0-6.0-3.0","3728847","co38647","norming","","","{""guess"":""instrument""}","","../img/tt/497tt.jpg","",""
"null","../img/gs/497gs.jpg","null","reveal","image-keyboard-response","10","245796","0.0-6.0-4.0","3728847","co38647","norming","","","","","","",""
"null","../img/tt/497tt.jpg","null","mooney2","image-keyboard-response","11","247808","0.0-6.0-5.0","3728847","co38647","norming","","","","","","",""
"5727.224999980535","","","post_reveal_questions","survey-likert","12","253537","0.0-6.0-6.0","3728847","co38647","norming","","","{""aha"":0}","[0]","../img/tt/497tt.jpg","",""
"null","<div style=""font-size:60px;""> </div>","null","fixation","html-keyboard-response","13","253744","0.0-6.0-0.1","3728847","co38647","norming","","","","","","",""
"null","../img/tt/105tt.jpg","null","mooney1","image-keyboard-response","14","256746","0.0-6.0-1.1","3728847","co38647","norming","","","","","","",""
"5180.249999975786","","","post_mooney1_questions","survey-likert","15","261929","0.0-6.0-2.1","3728847","co38647","norming","","","{""curiosity"":6,""confidence"":0}","[0,1]","../img/tt/105tt.jpg","",""
"8139.420000021346","","","recognition","survey-text","16","270073","0.0-6.0-3.1","3728847","co38647","norming","","","{""guess"":""""}","","../img/tt/105tt.jpg","",""
"null","../img/gs/105gs.jpg","null","reveal","image-keyboard-response","17","272075","0.0-6.0-4.1","3728847","co38647","norming","","","","","","",""
"null","../img/tt/105tt.jpg","null","mooney2","image-keyboard-response","18","274078","0.0-6.0-5.1","3728847","co38647","norming","","","","","","",""
"22657.21500001382","","","post_reveal_questions","survey-likert","19","296737","0.0-6.0-6.1","3728847","co38647","norming","","","{""aha"":5}","[0]","../img/tt/105tt.jpg","",""
"null","<div style=""font-size:60px;""> </div>","null","fixation","html-keyboard-response","20","296952","0.0-6.0-0.2","3728847","co38647","norming","","","","","","",""
"null","../img/tt/1190tt.jpg","null","mooney1","image-keyboard-response","21","299965","0.0-6.0-1.2","3728847","co38647","norming","","","","","","",""
"8192.849999992177","","","post_mooney1_questions","survey-likert","22","308161","0.0-6.0-2.2","3728847","co38647","norming","","","{""curiosity"":4,""confidence"":2}","[0,1]","../img/tt/1190tt.jpg","",""
"3067.879999987781","","","recognition","survey-text","23","311233","0.0-6.0-3.2","3728847","co38647","norming","","","{""guess"":""wasp""}","","../img/tt/1190tt.jpg","",""
"null","../img/gs/1190gs.jpg","null","reveal","image-keyboard-response","24","313235","0.0-6.0-4.2","3728847","co38647","norming","","","","","","",""
"null","../img/tt/1190tt.jpg","null","mooney2","image-keyboard-response","25","315237","0.0-6.0-5.2","3728847","co38647","norming","","","","","","",""
"8050.190000038128","","","post_reveal_questions","survey-likert","26","323289","0.0-6.0-6.2","3728847","co38647","norming","","","{""aha"":6}","[0]","../img/tt/1190tt.jpg","",""
"null","<div style=""font-size:60px;""> </div>","null","fixation","html-keyboard-response","27","323517","0.0-6.0-0.3","3728847","co38647","norming","","","","","","",""
"null","../img/tt/517tt.jpg","null","mooney1","image-keyboard-response","28","326521","0.0-6.0-1.3","3728847","co38647","norming","","","","","","",""
"7781.940000015311","","","post_mooney1_questions","survey-likert","29","334305","0.0-6.0-2.3","3728847","co38647","norming","","","{""curiosity"":4,""confidence"":3}","[0,1]","../img/tt/517tt.jpg","",""
"3251.959999965038","","","recognition","survey-text","30","337561","0.0-6.0-3.3","3728847","co38647","norming","","","{""guess"":""dog""}","","../img/tt/517tt.jpg","",""
"null","../img/gs/517gs.jpg","null","reveal","image-keyboard-response","31","339566","0.0-6.0-4.3","3728847","co38647","norming","","","","","","",""
"null","../img/tt/517tt.jpg","null","mooney2","image-keyboard-response","32","341568","0.0-6.0-5.3","3728847","co38647","norming","","","","","","",""
"4175.029999983963","","","post_reveal_questions","survey-likert","33","345745","0.0-6.0-6.3","3728847","co38647","norming","","","{""aha"":5}","[0]","../img/tt/517tt.jpg","",""
"null","<div style=""font-size:60px;""> </div>","null","fixation","html-keyboard-response","34","345952","0.0-6.0-0.4","3728847","co38647","norming","","","","","","",""
"null","../img/tt/1200tt.jpg","null","mooney1","image-keyboard-response","35","348956","0.0-6.0-1.4","3728847","co38647","norming","","","","","","",""
"5266.79000002332","","","post_mooney1_questions","survey-likert","36","354226","0.0-6.0-2.4","3728847","co38647","norming","","","{""curiosity"":2,""confidence"":5}","[0,1]","../img/tt/1200tt.jpg","",""
"4123.55999997817","","","recognition","survey-text","37","358353","0.0-6.0-3.4","3728847","co38647","norming","","","{""guess"":""kano""}","","../img/tt/1200tt.jpg","",""
"null","../img/gs/1200gs.jpg","null","reveal","image-keyboard-response","38","360357","0.0-6.0-4.4","3728847","co38647","norming","","","","","","",""
"null","../img/tt/1200tt.jpg","null","mooney2","image-keyboard-response","39","362363","0.0-6.0-5.4","3728847","co38647","norming","","","","","","",""
"3123.554999998305","","","post_reveal_questions","survey-likert","40","365489","0.0-6.0-6.4","3728847","co38647","norming","","","{""aha"":1}","[0]","../img/tt/1200tt.jpg","",""
"null","<div style=""font-size:60px;""> </div>","null","fixation","html-keyboard-response","41","365691","0.0-6.0-0.5","3728847","co38647","norming","","","","","","",""
"null","../img/tt/1006tt.jpg","null","mooney1","image-keyboard-response","42","368694","0.0-6.0-1.5","3728847","co38647","norming","","","","","","",""
"3728.4600000130013","","","post_mooney1_questions","survey-likert","43","372426","0.0-6.0-2.5","3728847","co38647","norming","","","{""curiosity"":2,""confidence"":5}","[0,1]","../img/tt/1006tt.jpg","",""
"3259.380000003148","","","recognition","survey-text","44","375689","0.0-6.0-3.5","3728847","co38647","norming","","","{""guess"":""sheep""}","","../img/tt/1006tt.jpg","",""
"null","../img/gs/1006gs.jpg","null","reveal","image-keyboard-response","45","377706","0.0-6.0-4.5","3728847","co38647","norming","","","","","","",""
"null","../img/tt/1006tt.jpg","null","mooney2","image-keyboard-response","46","379708","0.0-6.0-5.5","3728847","co38647","norming","","","","","","",""
"5027.250000042841","","","post_reveal_questions","survey-likert","47","384737","0.0-6.0-6.5","3728847","co38647","norming","","","{""aha"":0}","[0]","../img/tt/1006tt.jpg","",""
"null","<div style=""font-size:60px;""> </div>","null","fixation","html-keyboard-response","48","384939","0.0-6.0-0.6","3728847","co38647","norming","","","","","","",""
"null","../img/tt/1130tt.jpg","null","mooney1","image-keyboard-response","49","387942","0.0-6.0-1.6","3728847","co38647","norming","","","","","","",""
"10824.87500004936","","","post_mooney1_questions","survey-likert","50","398769","0.0-6.0-2.6","3728847","co38647","norming","","","{""curiosity"":2,""confidence"":4}","[0,1]","../img/tt/1130tt.jpg","",""
"10259.009999979753","","","recognition","survey-text","51","409033","0.0-6.0-3.6","3728847","co38647","norming","","","{""guess"":""cyclist""}","","../img/tt/1130tt.jpg","",""
"null","../img/gs/1130gs.jpg","null","reveal","image-keyboard-response","52","411038","0.0-6.0-4.6","3728847","co38647","norming","","","","","","",""
"null","../img/tt/1130tt.jpg","null","mooney2","image-keyboard-response","53","413053","0.0-6.0-5.6","3728847","co38647","norming","","","","","","",""
"4865.685000026133","","","post_reveal_questions","survey-likert","54","417921","0.0-6.0-6.6","3728847","co38647","norming","","","{""aha"":1}","[0]","../img/tt/1130tt.jpg","",""
"null","<div style=""font-size:60px;""> </div>","null","fixation","html-keyboard-response","55","418145","0.0-6.0-0.7","3728847","co38647","norming","","","","","","",""
"null","../img/tt/1116tt.jpg","null","mooney1","image-keyboard-response","56","421153","0.0-6.0-1.7","3728847","co38647","norming","","","","","","",""
"8981.644999992568","","","post_mooney1_questions","survey-likert","57","430138","0.0-6.0-2.7","3728847","co38647","norming","","","{""curiosity"":6,""confidence"":2}","[0,1]","../img/tt/1116tt.jpg","",""
"5732.004999998026","","","recognition","survey-text","58","435873","0.0-6.0-3.7","3728847","co38647","norming","","","{""guess"":""airplane""}","","../img/tt/1116tt.jpg","",""
"null","../img/gs/1116gs.jpg","null","reveal","image-keyboard-response","59","437888","0.0-6.0-4.7","3728847","co38647","norming","","","","","","",""
"null","../img/tt/1116tt.jpg","null","mooney2","image-keyboard-response","60","439896","0.0-6.0-5.7","3728847","co38647","norming","","","","","","",""
"4503.114999970421","","","post_reveal_questions","survey-likert","61","444401","0.0-6.0-6.7","3728847","co38647","norming","","","{""aha"":3}","[0]","../img/tt/1116tt.jpg","",""
"null","<div style=""font-size:60px;""> </div>","null","fixation","html-keyboard-response","62","444616","0.0-6.0-0.8","3728847","co38647","norming","","","","","","",""
"null","../img/tt/1262tt.jpg","null","mooney1","image-keyboard-response","63","447629","0.0-6.0-1.8","3728847","co38647","norming","","","","","","",""
"5249.134999990929","","","post_mooney1_questions","survey-likert","64","452881","0.0-6.0-2.8","3728847","co38647","norming","","","{""curiosity"":6,""confidence"":0}","[0,1]","../img/tt/1262tt.jpg","",""
"1452.1949999616481","","","recognition","survey-text","65","454337","0.0-6.0-3.8","3728847","co38647","norming","","","{""guess"":""""}","","../img/tt/1262tt.jpg","",""
"null","../img/gs/1262gs.jpg","null","reveal","image-keyboard-response","66","456339","0.0-6.0-4.8","3728847","co38647","norming","","","","","","",""
"null","../img/tt/1262tt.jpg","null","mooney2","image-keyboard-response","67","458342","0.0-6.0-5.8","3728847","co38647","norming","","","","","","",""
"2705.680000013672","","","post_reveal_questions","survey-likert","68","461049","0.0-6.0-6.8","3728847","co38647","norming","","","{""aha"":6}","[0]","../img/tt/1262tt.jpg","",""
"null","<div style=""font-size:60px;""> </div>","null","fixation","html-keyboard-response","69","461257","0.0-6.0-0.9","3728847","co38647","norming","","","","","","",""
"null","../img/tt/1366tt.jpg","null","mooney1","image-keyboard-response","70","464270","0.0-6.0-1.9","3728847","co38647","norming","","","","","","",""
"4656.89000004204","","","post_mooney1_questions","survey-likert","71","468930","0.0-6.0-2.9","3728847","co38647","norming","","","{""curiosity"":5,""confidence"":2}","[0,1]","../img/tt/1366tt.jpg","",""
"3163.880000007339","","","recognition","survey-text","72","472097","0.0-6.0-3.9","3728847","co38647","norming","","","{""guess"":""boat""}","","../img/tt/1366tt.jpg","",""
"null","../img/gs/1366gs.jpg","null","reveal","image-keyboard-response","73","474100","0.0-6.0-4.9","3728847","co38647","norming","","","","","","",""
"null","../img/tt/1366tt.jpg","null","mooney2","image-keyboard-response","74","476121","0.0-6.0-5.9","3728847","co38647","norming","","","","","","",""
"3022.319999989122","","","post_reveal_questions","survey-likert","75","479145","0.0-6.0-6.9","3728847","co38647","norming","","","{""aha"":6}","[0]","../img/tt/1366tt.jpg","",""
"null","<div style=""font-size:60px;""> </div>","null","fixation","html-keyboard-response","76","479358","0.0-6.0-0.10","3728847","co38647","norming","","","","","","",""
"null","../img/tt/522tt.jpg","null","mooney1","image-keyboard-response","77","482377","0.0-6.0-1.10","3728847","co38647","norming","","","","","","",""
"4022.12999999756","","","post_mooney1_questions","survey-likert","78","486402","0.0-6.0-2.10","3728847","co38647","norming","","","{""curiosity"":6,""confidence"":0}","[0,1]","../img/tt/522tt.jpg","",""
"899.9550000298768","","","recognition","survey-text","79","487305","0.0-6.0-3.10","3728847","co38647","norming","","","{""guess"":""""}","","../img/tt/522tt.jpg","",""
"null","../img/gs/522gs.jpg","null","reveal","image-keyboard-response","80","489307","0.0-6.0-4.10","3728847","co38647","norming","","","","","","",""
"null","../img/tt/522tt.jpg","null","mooney2","image-keyboard-response","81","491314","0.0-6.0-5.10","3728847","co38647","norming","","","","","","",""
"2973.4250000328757","","","post_reveal_questions","survey-likert","82","494289","0.0-6.0-6.10","3728847","co38647","norming","","","{""aha"":6}","[0]","../img/tt/522tt.jpg","",""
"null","<div style=""font-size:60px;""> </div>","null","fixation","html-keyboard-response","83","494498","0.0-6.0-0.11","3728847","co38647","norming","","","","","","",""
"null","../img/tt/318tt.jpg","null","mooney1","image-keyboard-response","84","497509","0.0-6.0-1.11","3728847","co38647","norming","","","","","","",""
"4545.749999990221","","","post_mooney1_questions","survey-likert","85","502058","0.0-6.0-2.11","3728847","co38647","norming","","","{""curiosity"":3,""confidence"":2}","[0,1]","../img/tt/318tt.jpg","",""
"7996.290000039153","","","recognition","survey-text","86","510058","0.0-6.0-3.11","3728847","co38647","norming","","","{""guess"":""steering wheel""}","","../img/tt/318tt.jpg","",""
"null","../img/gs/318gs.jpg","null","reveal","image-keyboard-response","87","512060","0.0-6.0-4.11","3728847","co38647","norming","","","","","","",""
"null","../img/tt/318tt.jpg","null","mooney2","image-keyboard-response","88","514075","0.0-6.0-5.11","3728847","co38647","norming","","","","","","",""
"4412.789999973029","","","post_reveal_questions","survey-likert","89","518490","0.0-6.0-6.11","3728847","co38647","norming","","","{""aha"":1}","[0]","../img/tt/318tt.jpg","",""
"null","<div style=""font-size:60px;""> </div>","null","fixation","html-keyboard-response","90","518708","0.0-6.0-0.12","3728847","co38647","norming","","","","","","",""
"null","../img/tt/1063tt.jpg","null","mooney1","image-keyboard-response","91","521712","0.0-6.0-1.12","3728847","co38647","norming","","","","","","",""
"6526.730000041425","","","post_mooney1_questions","survey-likert","92","528242","0.0-6.0-2.12","3728847","co38647","norming","","","{""curiosity"":4,""confidence"":2}","[0,1]","../img/tt/1063tt.jpg","",""
"7084.850000042934","","","recognition","survey-text","93","535329","0.0-6.0-3.12","3728847","co38647","norming","","","{""guess"":""horse""}","","../img/tt/1063tt.jpg","",""
"null","../img/gs/1063gs.jpg","null","reveal","image-keyboard-response","94","537331","0.0-6.0-4.12","3728847","co38647","norming","","","","","","",""
"null","../img/tt/1063tt.jpg","null","mooney2","image-keyboard-response","95","539334","0.0-6.0-5.12","3728847","co38647","norming","","","","","","",""
"2977.2599999560043","","","post_reveal_questions","survey-likert","96","542314","0.0-6.0-6.12","3728847","co38647","norming","","","{""aha"":5}","[0]","../img/tt/1063tt.jpg","",""
"null","<div style=""font-size:60px;""> </div>","null","fixation","html-keyboard-response","97","542532","0.0-6.0-0.13","3728847","co38647","norming","","","","","","",""
"null","../img/tt/534tt.jpg","null","mooney1","image-keyboard-response","98","545550","0.0-6.0-1.13","3728847","co38647","norming","","","","","","",""
"5001.214999996591","","","post_mooney1_questions","survey-likert","99","550554","0.0-6.0-2.13","3728847","co38647","norming","","","{""curiosity"":4,""confidence"":1}","[0,1]","../img/tt/534tt.jpg","",""
"3611.709999968298","","","recognition","survey-text","100","554169","0.0-6.0-3.13","3728847","co38647","norming","","","{""guess"":""cactus""}","","../img/tt/534tt.jpg","",""
"null","../img/gs/534gs.jpg","null","reveal","image-keyboard-response","101","556187","0.0-6.0-4.13","3728847","co38647","norming","","","","","","",""
"null","../img/tt/534tt.jpg","null","mooney2","image-keyboard-response","102","558190","0.0-6.0-5.13","3728847","co38647","norming","","","","","","",""
"2861.5499999723397","","","post_reveal_questions","survey-likert","103","561058","0.0-6.0-6.13","3728847","co38647","norming","","","{""aha"":5}","[0]","../img/tt/534tt.jpg","",""
"null","<div style=""font-size:60px;""> </div>","null","fixation","html-keyboard-response","104","561271","0.0-6.0-0.14","3728847","co38647","norming","","","","","","",""
"null","../img/tt/1254tt.jpg","null","mooney1","image-keyboard-response","105","564285","0.0-6.0-1.14","3728847","co38647","norming","","","","","","",""
"5290.574999991804","","","post_mooney1_questions","survey-likert","106","569578","0.0-6.0-2.14","3728847","co38647","norming","","","{""curiosity"":3,""confidence"":3}","[0,1]","../img/tt/1254tt.jpg","",""
"5316.519999993034","","","recognition","survey-text","107","574898","0.0-6.0-3.14","3728847","co38647","norming","","","{""guess"":""rabbit""}","","../img/tt/1254tt.jpg","",""
"null","../img/gs/1254gs.jpg","null","reveal","image-keyboard-response","108","576906","0.0-6.0-4.14","3728847","co38647","norming","","","","","","",""
"null","../img/tt/1254tt.jpg","null","mooney2","image-keyboard-response","109","578920","0.0-6.0-5.14","3728847","co38647","norming","","","","","","",""
"3631.1100000166334","","","post_reveal_questions","survey-likert","110","582554","0.0-6.0-6.14","3728847","co38647","norming","","","{""aha"":3}","[0]","../img/tt/1254tt.jpg","",""
"null","<div style=""font-size:60px;""> </div>","null","fixation","html-keyboard-response","111","582762","0.0-6.0-0.15","3728847","co38647","norming","","","","","","",""
"null","../img/tt/008tt.jpg","null","mooney1","image-keyboard-response","112","585786","0.0-6.0-1.15","3728847","co38647","norming","","","","","","",""
"4781.724999949802","","","post_mooney1_questions","survey-likert","113","590570","0.0-6.0-2.15","3728847","co38647","norming","","","{""curiosity"":6,""confidence"":0}","[0,1]","../img/tt/008tt.jpg","",""
"763.890000001993","","","recognition","survey-text","114","591338","0.0-6.0-3.15","3728847","co38647","norming","","","{""guess"":""""}","","../img/tt/008tt.jpg","",""
"null","../img/gs/008gs.jpg","null","reveal","image-keyboard-response","115","593361","0.0-6.0-4.15","3728847","co38647","norming","","","","","","",""
"null","../img/tt/008tt.jpg","null","mooney2","image-keyboard-response","116","595371","0.0-6.0-5.15","3728847","co38647","norming","","","","","","",""
"2484.4199999934062","","","post_reveal_questions","survey-likert","117","597858","0.0-6.0-6.15","3728847","co38647","norming","","","{""aha"":6}","[0]","../img/tt/008tt.jpg","",""
"null","<div style=""font-size:60px;""> </div>","null","fixation","html-keyboard-response","118","598060","0.0-6.0-0.16","3728847","co38647","norming","","","","","","",""
"null","../img/tt/1228tt.jpg","null","mooney1","image-keyboard-response","119","601075","0.0-6.0-1.16","3728847","co38647","norming","","","","","","",""
"6116.069999989122","","","post_mooney1_questions","survey-likert","120","607194","0.0-6.0-2.16","3728847","co38647","norming","","","{""curiosity"":2,""confidence"":4}","[0,1]","../img/tt/1228tt.jpg","",""
"3355.66999996081","","","recognition","survey-text","121","610554","0.0-6.0-3.16","3728847","co38647","norming","","","{""guess"":""bird""}","","../img/tt/1228tt.jpg","",""
"null","../img/gs/1228gs.jpg","null","reveal","image-keyboard-response","122","612564","0.0-6.0-4.16","3728847","co38647","norming","","","","","","",""
"null","../img/tt/1228tt.jpg","null","mooney2","image-keyboard-response","123","614569","0.0-6.0-5.16","3728847","co38647","norming","","","","","","",""
"4342.790000024252","","","post_reveal_questions","survey-likert","124","618913","0.0-6.0-6.16","3728847","co38647","norming","","","{""aha"":1}","[0]","../img/tt/1228tt.jpg","",""
"null","<div style=""font-size:60px;""> </div>","null","fixation","html-keyboard-response","125","619130","0.0-6.0-0.17","3728847","co38647","norming","","","","","","",""
"null","../img/tt/081tt.jpg","null","mooney1","image-keyboard-response","126","622153","0.0-6.0-1.17","3728847","co38647","norming","","","","","","",""
"7718.055000004824","","","post_mooney1_questions","survey-likert","127","629874","0.0-6.0-2.17","3728847","co38647","norming","","","{""curiosity"":2,""confidence"":6}","[0,1]","../img/tt/081tt.jpg","",""
"3163.9349999604747","","","recognition","survey-text","128","633041","0.0-6.0-3.17","3728847","co38647","norming","","","{""guess"":""frog""}","","../img/tt/081tt.jpg","",""
"null","../img/gs/081gs.jpg","null","reveal","image-keyboard-response","129","635043","0.0-6.0-4.17","3728847","co38647","norming","","","","","","",""
"null","../img/tt/081tt.jpg","null","mooney2","image-keyboard-response","130","637061","0.0-6.0-5.17","3728847","co38647","norming","","","","","","",""
"2298.59000002034","","","post_reveal_questions","survey-likert","131","639361","0.0-6.0-6.17","3728847","co38647","norming","","","{""aha"":0}","[0]","../img/tt/081tt.jpg","",""
"null","<div style=""font-size:60px;""> </div>","null","fixation","html-keyboard-response","132","639563","0.0-6.0-0.18","3728847","co38647","norming","","","","","","",""
"null","../img/tt/080tt.jpg","null","mooney1","image-keyboard-response","133","642566","0.0-6.0-1.18","3728847","co38647","norming","","","","","","",""
"8240.274999989197","","","post_mooney1_questions","survey-likert","134","650810","0.0-6.0-2.18","3728847","co38647","norming","","","{""curiosity"":5,""confidence"":1}","[0,1]","../img/tt/080tt.jpg","",""
"3683.984999952372","","","recognition","survey-text","135","654497","0.0-6.0-3.18","3728847","co38647","norming","","","{""guess"":""turtle""}","","../img/tt/080tt.jpg","",""
"null","../img/gs/080gs.jpg","null","reveal","image-keyboard-response","136","656499","0.0-6.0-4.18","3728847","co38647","norming","","","","","","",""
"null","../img/tt/080tt.jpg","null","mooney2","image-keyboard-response","137","658520","0.0-6.0-5.18","3728847","co38647","norming","","","","","","",""
"2935.055000009015","","","post_reveal_questions","survey-likert","138","661458","0.0-6.0-6.18","3728847","co38647","norming","","","{""aha"":5}","[0]","../img/tt/080tt.jpg","",""
"null","<div style=""font-size:60px;""> </div>","null","fixation","html-keyboard-response","139","661665","0.0-6.0-0.19","3728847","co38647","norming","","","","","","",""
"null","../img/tt/1199tt.jpg","null","mooney1","image-keyboard-response","140","664668","0.0-6.0-1.19","3728847","co38647","norming","","","","","","",""
"6322.8499999968335","","","post_mooney1_questions","survey-likert","141","670994","0.0-6.0-2.19","3728847","co38647","norming","","","{""curiosity"":6,""confidence"":1}","[0,1]","../img/tt/1199tt.jpg","",""
"5179.919999965932","","","recognition","survey-text","142","676177","0.0-6.0-3.19","3728847","co38647","norming","","","{""guess"":""gymnastics""}","","../img/tt/1199tt.jpg","",""
"null","../img/gs/1199gs.jpg","null","reveal","image-keyboard-response","143","678194","0.0-6.0-4.19","3728847","co38647","norming","","","","","","",""
"null","../img/tt/1199tt.jpg","null","mooney2","image-keyboard-response","144","680197","0.0-6.0-5.19","3728847","co38647","norming","","","","","","",""
"3851.075000013225","","","post_reveal_questions","survey-likert","145","684050","0.0-6.0-6.19","3728847","co38647","norming","","","{""aha"":1}","[0]","../img/tt/1199tt.jpg","",""
"null","<div style=""font-size:60px;""> </div>","null","fixation","html-keyboard-response","146","684261","0.0-6.0-0.20","3728847","co38647","norming","","","","","","",""
"null","../img/tt/079tt.jpg","null","mooney1","image-keyboard-response","147","687279","0.0-6.0-1.20","3728847","co38647","norming","","","","","","",""
"5703.955000033602","","","post_mooney1_questions","survey-likert","148","692986","0.0-6.0-2.20","3728847","co38647","norming","","","{""curiosity"":1,""confidence"":6}","[0,1]","../img/tt/079tt.jpg","",""
"3484.0449999901466","","","recognition","survey-text","149","696474","0.0-6.0-3.20","3728847","co38647","norming","","","{""guess"":""bear""}","","../img/tt/079tt.jpg","",""
"null","../img/gs/079gs.jpg","null","reveal","image-keyboard-response","150","698499","0.0-6.0-4.20","3728847","co38647","norming","","","","","","",""
"null","../img/tt/079tt.jpg","null","mooney2","image-keyboard-response","151","700501","0.0-6.0-5.20","3728847","co38647","norming","","","","","","",""
"3002.665000036359","","","post_reveal_questions","survey-likert","152","703506","0.0-6.0-6.20","3728847","co38647","norming","","","{""aha"":0}","[0]","../img/tt/079tt.jpg","",""
"null","<div style=""font-size:60px;""> </div>","null","fixation","html-keyboard-response","153","703707","0.0-6.0-0.21","3728847","co38647","norming","","","","","","",""
"null","../img/tt/1046tt.jpg","null","mooney1","image-keyboard-response","154","706711","0.0-6.0-1.21","3728847","co38647","norming","","","","","","",""
"5343.920000013895","","","post_mooney1_questions","survey-likert","155","712058","0.0-6.0-2.21","3728847","co38647","norming","","","{""curiosity"":5,""confidence"":2}","[0,1]","../img/tt/1046tt.jpg","",""
"3796.2949999491684","","","recognition","survey-text","156","715858","0.0-6.0-3.21","3728847","co38647","norming","","","{""guess"":""pancake""}","","../img/tt/1046tt.jpg","",""
"null","../img/gs/1046gs.jpg","null","reveal","image-keyboard-response","157","717862","0.0-6.0-4.21","3728847","co38647","norming","","","","","","",""
"null","../img/tt/1046tt.jpg","null","mooney2","image-keyboard-response","158","719867","0.0-6.0-5.21","3728847","co38647","norming","","","","","","",""
"4820.480000053067","","","post_reveal_questions","survey-likert","159","724690","0.0-6.0-6.21","3728847","co38647","norming","","","{""aha"":3}","[0]","../img/tt/1046tt.jpg","",""
"null","<div style=""font-size:60px;""> </div>","null","fixation","html-keyboard-response","160","724903","0.0-6.0-0.22","3728847","co38647","norming","","","","","","",""
"null","../img/tt/064tt.jpg","null","mooney1","image-keyboard-response","161","727907","0.0-6.0-1.22","3728847","co38647","norming","","","","","","",""
"5676.280000014231","","","post_mooney1_questions","survey-likert","162","733586","0.0-6.0-2.22","3728847","co38647","norming","","","{""curiosity"":2,""confidence"":4}","[0,1]","../img/tt/064tt.jpg","",""
"3907.9400000046007","","","recognition","survey-text","163","737498","0.0-6.0-3.22","3728847","co38647","norming","","","{""guess"":""pigeon""}","","../img/tt/064tt.jpg","",""
"null","../img/gs/064gs.jpg","null","reveal","image-keyboard-response","164","739500","0.0-6.0-4.22","3728847","co38647","norming","","","","","","",""
"null","../img/tt/064tt.jpg","null","mooney2","image-keyboard-response","165","741503","0.0-6.0-5.22","3728847","co38647","norming","","","","","","",""
"5440.430000016931","","","post_reveal_questions","survey-likert","166","746946","0.0-6.0-6.22","3728847","co38647","norming","","","{""aha"":6}","[0]","../img/tt/064tt.jpg","",""
"null","<div style=""font-size:60px;""> </div>","null","fixation","html-keyboard-response","167","747163","0.0-6.0-0.23","3728847","co38647","norming","","","","","","",""
"null","../img/tt/098tt.jpg","null","mooney1","image-keyboard-response","168","750181","0.0-6.0-1.23","3728847","co38647","norming","","","","","","",""
"6497.320000024047","","","post_mooney1_questions","survey-likert","169","756682","0.0-6.0-2.23","3728847","co38647","norming","","","{""curiosity"":5,""confidence"":1}","[0,1]","../img/tt/098tt.jpg","",""
"8155.085000034887","","","recognition","survey-text","170","764841","0.0-6.0-3.23","3728847","co38647","norming","","","{""guess"":""penguin""}","","../img/tt/098tt.jpg","",""
"null","../img/gs/098gs.jpg","null","reveal","image-keyboard-response","171","766849","0.0-6.0-4.23","3728847","co38647","norming","","","","","","",""
"null","../img/tt/098tt.jpg","null","mooney2","image-keyboard-response","172","768851","0.0-6.0-5.23","3728847","co38647","norming","","","","","","",""
"3300.1599999843165","","","post_reveal_questions","survey-likert","173","772154","0.0-6.0-6.23","3728847","co38647","norming","","","{""aha"":4}","[0]","../img/tt/098tt.jpg","",""
"null","<div style=""font-size:60px;""> </div>","null","fixation","html-keyboard-response","174","772371","0.0-6.0-0.24","3728847","co38647","norming","","","","","","",""
"null","../img/tt/1237tt.jpg","null","mooney1","image-keyboard-response","175","775385","0.0-6.0-1.24","3728847","co38647","norming","","","","","","",""
"4077.770000032615","","","post_mooney1_questions","survey-likert","176","779466","0.0-6.0-2.24","3728847","co38647","norming","","","{""curiosity"":2,""confidence"":5}","[0,1]","../img/tt/1237tt.jpg","",""
"4475.900000019465","","","recognition","survey-text","177","783946","0.0-6.0-3.24","3728847","co38647","norming","","","{""guess"":""duck""}","","../img/tt/1237tt.jpg","",""
"null","../img/gs/1237gs.jpg","null","reveal","image-keyboard-response","178","785948","0.0-6.0-4.24","3728847","co38647","norming","","","","","","",""
"null","../img/tt/1237tt.jpg","null","mooney2","image-keyboard-response","179","787954","0.0-6.0-5.24","3728847","co38647","norming","","","","","","",""
"2349.7649999917485","","","post_reveal_questions","survey-likert","180","790306","0.0-6.0-6.24","3728847","co38647","norming","","","{""aha"":0}","[0]","../img/tt/1237tt.jpg","",""
"null","<div style=""font-size:60px;""> </div>","null","fixation","html-keyboard-response","181","790509","0.0-6.0-0.25","3728847","co38647","norming","","","","","","",""
"null","../img/tt/1012tt.jpg","null","mooney1","image-keyboard-response","182","793513","0.0-6.0-1.25","3728847","co38647","norming","","","","","","",""
"5261.895000003278","","","post_mooney1_questions","survey-likert","183","798778","0.0-6.0-2.25","3728847","co38647","norming","","","{""curiosity"":3,""confidence"":2}","[0,1]","../img/tt/1012tt.jpg","",""
"4771.0450000013225","","","recognition","survey-text","184","803554","0.0-6.0-3.25","3728847","co38647","norming","","","{""guess"":""donkey""}","","../img/tt/1012tt.jpg","",""
"null","../img/gs/1012gs.jpg","null","reveal","image-keyboard-response","185","805564","0.0-6.0-4.25","3728847","co38647","norming","","","","","","",""
"null","../img/tt/1012tt.jpg","null","mooney2","image-keyboard-response","186","807569","0.0-6.0-5.25","3728847","co38647","norming","","","","","","",""
"2526.720000023488","","","post_reveal_questions","survey-likert","187","810098","0.0-6.0-6.25","3728847","co38647","norming","","","{""aha"":5}","[0]","../img/tt/1012tt.jpg","",""
"null","<div style=""font-size:60px;""> </div>","null","fixation","html-keyboard-response","188","810312","0.0-6.0-0.26","3728847","co38647","norming","","","","","","",""
"null","../img/tt/301tt.jpg","null","mooney1","image-keyboard-response","189","813326","0.0-6.0-1.26","3728847","co38647","norming","","","","","","",""
"5826.525000040419","","","post_mooney1_questions","survey-likert","190","819154","0.0-6.0-2.26","3728847","co38647","norming","","","{""curiosity"":6,""confidence"":0}","[0,1]","../img/tt/301tt.jpg","",""
"1139.4299999810755","","","recognition","survey-text","191","820298","0.0-6.0-3.26","3728847","co38647","norming","","","{""guess"":""""}","","../img/tt/301tt.jpg","",""
"null","../img/gs/301gs.jpg","null","reveal","image-keyboard-response","192","822303","0.0-6.0-4.26","3728847","co38647","norming","","","","","","",""
"null","../img/tt/301tt.jpg","null","mooney2","image-keyboard-response","193","824307","0.0-6.0-5.26","3728847","co38647","norming","","","","","","",""
"2852.5899999658577","","","post_reveal_questions","survey-likert","194","827162","0.0-6.0-6.26","3728847","co38647","norming","","","{""aha"":6}","[0]","../img/tt/301tt.jpg","",""
"null","<div style=""font-size:60px;""> </div>","null","fixation","html-keyboard-response","195","827367","0.0-6.0-0.27","3728847","co38647","norming","","","","","","",""
"null","../img/tt/406tt.jpg","null","mooney1","image-keyboard-response","196","830376","0.0-6.0-1.27","3728847","co38647","norming","","","","","","",""
"5254.949999973178","","","post_mooney1_questions","survey-likert","197","835634","0.0-6.0-2.27","3728847","co38647","norming","","","{""curiosity"":6,""confidence"":1}","[0,1]","../img/tt/406tt.jpg","",""
"2723.950000014156","","","recognition","survey-text","198","838362","0.0-6.0-3.27","3728847","co38647","norming","","","{""guess"":""bat""}","","../img/tt/406tt.jpg","",""
"null","../img/gs/406gs.jpg","null","reveal","image-keyboard-response","199","840373","0.0-6.0-4.27","3728847","co38647","norming","","","","","","",""
"null","../img/tt/406tt.jpg","null","mooney2","image-keyboard-response","200","842376","0.0-6.0-5.27","3728847","co38647","norming","","","","","","",""
"4583.395000023302","","","post_reveal_questions","survey-likert","201","846962","0.0-6.0-6.27","3728847","co38647","norming","","","{""aha"":5}","[0]","../img/tt/406tt.jpg","",""
"null","<div style=""font-size:60px;""> </div>","null","fixation","html-keyboard-response","202","847179","0.0-6.0-0.28","3728847","co38647","norming","","","","","","",""
"null","../img/tt/580tt.jpg","null","mooney1","image-keyboard-response","203","850190","0.0-6.0-1.28","3728847","co38647","norming","","","","","","",""
"6088.79499998875","","","post_mooney1_questions","survey-likert","204","856283","0.0-6.0-2.28","3728847","co38647","norming","","","{""curiosity"":5,""confidence"":3}","[0,1]","../img/tt/580tt.jpg","",""
"3443.4500000206754","","","recognition","survey-text","205","859730","0.0-6.0-3.28","3728847","co38647","norming","","","{""guess"":""raccoon""}","","../img/tt/580tt.jpg","",""
"null","../img/gs/580gs.jpg","null","reveal","image-keyboard-response","206","861737","0.0-6.0-4.28","3728847","co38647","norming","","","","","","",""
"null","../img/tt/580tt.jpg","null","mooney2","image-keyboard-response","207","863754","0.0-6.0-5.28","3728847","co38647","norming","","","","","","",""
"6669.3450000020675","","","post_reveal_questions","survey-likert","208","870426","0.0-6.0-6.28","3728847","co38647","norming","","","{""aha"":2}","[0]","../img/tt/580tt.jpg","",""
"null","<div style=""font-size:60px;""> </div>","null","fixation","html-keyboard-response","209","870634","0.0-6.0-0.29","3728847","co38647","norming","","","","","","",""
"null","../img/tt/1055tt.jpg","null","mooney1","image-keyboard-response","210","873638","0.0-6.0-1.29","3728847","co38647","norming","","","","","","",""
"11896.78000001004","","","post_mooney1_questions","survey-likert","211","885538","0.0-6.0-2.29","3728847","co38647","norming","","","{""curiosity"":4,""confidence"":1}","[0,1]","../img/tt/1055tt.jpg","",""
"3842.614999972284","","","recognition","survey-text","212","889386","0.0-6.0-3.29","3728847","co38647","norming","","","{""guess"":""water bug""}","","../img/tt/1055tt.jpg","",""
"null","../img/gs/1055gs.jpg","null","reveal","image-keyboard-response","213","891388","0.0-6.0-4.29","3728847","co38647","norming","","","","","","",""
"null","../img/tt/1055tt.jpg","null","mooney2","image-keyboard-response","214","893393","0.0-6.0-5.29","3728847","co38647","norming","","","","","","",""
"17653.914999973495","","","post_reveal_questions","survey-likert","215","911050","0.0-6.0-6.29","3728847","co38647","norming","","","{""aha"":4}","[0]","../img/tt/1055tt.jpg","",""
"null","<div style=""font-size:60px;""> </div>","null","fixation","html-keyboard-response","216","911266","0.0-6.0-0.30","3728847","co38647","norming","","","","","","",""
"null","../img/tt/496tt.jpg","null","mooney1","image-keyboard-response","217","914270","0.0-6.0-1.30","3728847","co38647","norming","","","","","","",""
"9673.744999978226","","","post_mooney1_questions","survey-likert","218","923946","0.0-6.0-2.30","3728847","co38647","norming","","","{""curiosity"":5,""confidence"":3}","[0,1]","../img/tt/496tt.jpg","",""
"3107.770000002347","","","recognition","survey-text","219","927058","0.0-6.0-3.30","3728847","co38647","norming","","","{""guess"":""dog""}","","../img/tt/496tt.jpg","",""
"null","../img/gs/496gs.jpg","null","reveal","image-keyboard-response","220","929070","0.0-6.0-4.30","3728847","co38647","norming","","","","","","",""
"null","../img/tt/496tt.jpg","null","mooney2","image-keyboard-response","221","931087","0.0-6.0-5.30","3728847","co38647","norming","","","","","","",""
"2655.655000009574","","","post_reveal_questions","survey-likert","222","933746","0.0-6.0-6.30","3728847","co38647","norming","","","{""aha"":5}","[0]","../img/tt/496tt.jpg","",""
"null","<div style=""font-size:60px;""> </div>","null","fixation","html-keyboard-response","223","933952","0.0-6.0-0.31","3728847","co38647","norming","","","","","","",""
"null","../img/tt/1278tt.jpg","null","mooney1","image-keyboard-response","224","936955","0.0-6.0-1.31","3728847","co38647","norming","","","","","","",""
"5810.980000009295","","","post_mooney1_questions","survey-likert","225","942770","0.0-6.0-2.31","3728847","co38647","norming","","","{""curiosity"":6,""confidence"":1}","[0,1]","../img/tt/1278tt.jpg","",""
"4044.6549999760464","","","recognition","survey-text","226","946818","0.0-6.0-3.31","3728847","co38647","norming","","","{""guess"":""hamster""}","","../img/tt/1278tt.jpg","",""
"null","../img/gs/1278gs.jpg","null","reveal","image-keyboard-response","227","948823","0.0-6.0-4.31","3728847","co38647","norming","","","","","","",""
"null","../img/tt/1278tt.jpg","null","mooney2","image-keyboard-response","228","950825","0.0-6.0-5.31","3728847","co38647","norming","","","","","","",""
"8589.755000022706","","","post_reveal_questions","survey-likert","229","959418","0.0-6.0-6.31","3728847","co38647","norming","","","{""aha"":6}","[0]","../img/tt/1278tt.jpg","",""
"null","<div style=""font-size:60px;""> </div>","null","fixation","html-keyboard-response","230","959630","0.0-6.0-0.32","3728847","co38647","norming","","","","","","",""
"null","../img/tt/1363tt.jpg","null","mooney1","image-keyboard-response","231","962645","0.0-6.0-1.32","3728847","co38647","norming","","","","","","",""
"4425.599999958649","","","post_mooney1_questions","survey-likert","232","967074","0.0-6.0-2.32","3728847","co38647","norming","","","{""curiosity"":6,""confidence"":1}","[0,1]","../img/tt/1363tt.jpg","",""
"2915.7649999833666","","","recognition","survey-text","233","969994","0.0-6.0-3.32","3728847","co38647","norming","","","{""guess"":""sauce""}","","../img/tt/1363tt.jpg","",""
"null","../img/gs/1363gs.jpg","null","reveal","image-keyboard-response","234","971995","0.0-6.0-4.32","3728847","co38647","norming","","","","","","",""
"null","../img/tt/1363tt.jpg","null","mooney2","image-keyboard-response","235","974001","0.0-6.0-5.32","3728847","co38647","norming","","","","","","",""
"2342.0049999840558","","","post_reveal_questions","survey-likert","236","976346","0.0-6.0-6.32","3728847","co38647","norming","","","{""aha"":0}","[0]","../img/tt/1363tt.jpg","",""
"null","<div style=""font-size:60px;""> </div>","null","fixation","html-keyboard-response","237","976551","0.0-6.0-0.33","3728847","co38647","norming","","","","","","",""
"null","../img/tt/1175tt.jpg","null","mooney1","image-keyboard-response","238","979555","0.0-6.0-1.33","3728847","co38647","norming","","","","","","",""
"7155.824999965262","","","post_mooney1_questions","survey-likert","239","986714","0.0-6.0-2.33","3728847","co38647","norming","","","{""curiosity"":3,""confidence"":3}","[0,1]","../img/tt/1175tt.jpg","",""
"3188.0849999724887","","","recognition","survey-text","240","989906","0.0-6.0-3.33","3728847","co38647","norming","","","{""guess"":""parade""}","","../img/tt/1175tt.jpg","",""
"null","../img/gs/1175gs.jpg","null","reveal","image-keyboard-response","241","991908","0.0-6.0-4.33","3728847","co38647","norming","","","","","","",""
"null","../img/tt/1175tt.jpg","null","mooney2","image-keyboard-response","242","993917","0.0-6.0-5.33","3728847","co38647","norming","","","","","","",""
"4074.075000011362","","","post_reveal_questions","survey-likert","243","997994","0.0-6.0-6.33","3728847","co38647","norming","","","{""aha"":6}","[0]","../img/tt/1175tt.jpg","",""
"null","<div style=""font-size:60px;""> </div>","null","fixation","html-keyboard-response","244","998198","0.0-6.0-0.34","3728847","co38647","norming","","","","","","",""
"null","../img/tt/140tt.jpg","null","mooney1","image-keyboard-response","245","1001202","0.0-6.0-1.34","3728847","co38647","norming","","","","","","",""
"5085.229999967851","","","post_mooney1_questions","survey-likert","246","1006290","0.0-6.0-2.34","3728847","co38647","norming","","","{""curiosity"":1,""confidence"":6}","[0,1]","../img/tt/140tt.jpg","",""
"3707.81499997247","","","recognition","survey-text","247","1010002","0.0-6.0-3.34","3728847","co38647","norming","","","{""guess"":""forks""}","","../img/tt/140tt.jpg","",""
"null","../img/gs/140gs.jpg","null","reveal","image-keyboard-response","248","1012013","0.0-6.0-4.34","3728847","co38647","norming","","","","","","",""
"null","../img/tt/140tt.jpg","null","mooney2","image-keyboard-response","249","1014015","0.0-6.0-5.34","3728847","co38647","norming","","","","","","",""
"4055.660000012722","","","post_reveal_questions","survey-likert","250","1018074","0.0-6.0-6.34","3728847","co38647","norming","","","{""aha"":0}","[0]","../img/tt/140tt.jpg","",""
"null","<div style=""font-size:60px;""> </div>","null","fixation","html-keyboard-response","251","1018279","0.0-6.0-0.35","3728847","co38647","norming","","","","","","",""
"null","../img/tt/1217tt.jpg","null","mooney1","image-keyboard-response","252","1021282","0.0-6.0-1.35","3728847","co38647","norming","","","","","","",""
"9316.294999967795","","","post_mooney1_questions","survey-likert","253","1030602","0.0-6.0-2.35","3728847","co38647","norming","","","{""curiosity"":1,""confidence"":5}","[0,1]","../img/tt/1217tt.jpg","",""
"4243.115000019316","","","recognition","survey-text","254","1034850","0.0-6.0-3.35","3728847","co38647","norming","","","{""guess"":""rugby""}","","../img/tt/1217tt.jpg","",""
"null","../img/gs/1217gs.jpg","null","reveal","image-keyboard-response","255","1036867","0.0-6.0-4.35","3728847","co38647","norming","","","","","","",""
"null","../img/tt/1217tt.jpg","null","mooney2","image-keyboard-response","256","1038869","0.0-6.0-5.35","3728847","co38647","norming","","","","","","",""
"3410.7099999673665","","","post_reveal_questions","survey-likert","257","1042282","0.0-6.0-6.35","3728847","co38647","norming","","","{""aha"":0}","[0]","../img/tt/1217tt.jpg","",""
"null","<div style=""font-size:60px;""> </div>","null","fixation","html-keyboard-response","258","1042490","0.0-6.0-0.36","3728847","co38647","norming","","","","","","",""
"null","../img/tt/056tt.jpg","null","mooney1","image-keyboard-response","259","1045494","0.0-6.0-1.36","3728847","co38647","norming","","","","","","",""
"5233.544999966398","","","post_mooney1_questions","survey-likert","260","1050730","0.0-6.0-2.36","3728847","co38647","norming","","","{""curiosity"":1,""confidence"":2}","[0,1]","../img/tt/056tt.jpg","",""
"3411.6700000013225","","","recognition","survey-text","261","1054146","0.0-6.0-3.36","3728847","co38647","norming","","","{""guess"":""goat""}","","../img/tt/056tt.jpg","",""
"null","../img/gs/056gs.jpg","null","reveal","image-keyboard-response","262","1056162","0.0-6.0-4.36","3728847","co38647","norming","","","","","","",""
"null","../img/tt/056tt.jpg","null","mooney2","image-keyboard-response","263","1058173","0.0-6.0-5.36","3728847","co38647","norming","","","","","","",""
"6538.369999965653","","","post_reveal_questions","survey-likert","264","1064714","0.0-6.0-6.36","3728847","co38647","norming","","","{""aha"":5}","[0]","../img/tt/056tt.jpg","",""
"null","<div style=""font-size:60px;""> </div>","null","fixation","html-keyboard-response","265","1064921","0.0-6.0-0.37","3728847","co38647","norming","","","","","","",""
"null","../img/tt/416tt.jpg","null","mooney1","image-keyboard-response","266","1067930","0.0-6.0-1.37","3728847","co38647","norming","","","","","","",""
"6876.805000007153","","","post_mooney1_questions","survey-likert","267","1074810","0.0-6.0-2.37","3728847","co38647","norming","","","{""curiosity"":1,""confidence"":4}","[0,1]","../img/tt/416tt.jpg","",""
"4275.594999955501","","","recognition","survey-text","268","1079090","0.0-6.0-3.37","3728847","co38647","norming","","","{""guess"":""ostridge""}","","../img/tt/416tt.jpg","",""
"null","../img/gs/416gs.jpg","null","reveal","image-keyboard-response","269","1081106","0.0-6.0-4.37","3728847","co38647","norming","","","","","","",""
"null","../img/tt/416tt.jpg","null","mooney2","image-keyboard-response","270","1083108","0.0-6.0-5.37","3728847","co38647","norming","","","","","","",""
"11291.73500003526","","","post_reveal_questions","survey-likert","271","1094402","0.0-6.0-6.37","3728847","co38647","norming","","","{""aha"":0}","[0]","../img/tt/416tt.jpg","",""
"null","<div style=""font-size:60px;""> </div>","null","fixation","html-keyboard-response","272","1094617","0.0-6.0-0.38","3728847","co38647","norming","","","","","","",""
"null","../img/tt/1027tt.jpg","null","mooney1","image-keyboard-response","273","1097621","0.0-6.0-1.38","3728847","co38647","norming","","","","","","",""
"5690.39000000339","","","post_mooney1_questions","survey-likert","274","1103314","0.0-6.0-2.38","3728847","co38647","norming","","","{""curiosity"":3,""confidence"":2}","[0,1]","../img/tt/1027tt.jpg","",""
"3051.8900000024587","","","recognition","survey-text","275","1106370","0.0-6.0-3.38","3728847","co38647","norming","","","{""guess"":""cow""}","","../img/tt/1027tt.jpg","",""
"null","../img/gs/1027gs.jpg","null","reveal","image-keyboard-response","276","1108372","0.0-6.0-4.38","3728847","co38647","norming","","","","","","",""
"null","../img/tt/1027tt.jpg","null","mooney2","image-keyboard-response","277","1110376","0.0-6.0-5.38","3728847","co38647","norming","","","","","","",""
"5086.6299999761395","","","post_reveal_questions","survey-likert","278","1115466","0.0-6.0-6.38","3728847","co38647","norming","","","{""aha"":2}","[0]","../img/tt/1027tt.jpg","",""
"null","<div style=""font-size:60px;""> </div>","null","fixation","html-keyboard-response","279","1115674","0.0-6.0-0.39","3728847","co38647","norming","","","","","","",""
"null","../img/tt/435tt.jpg","null","mooney1","image-keyboard-response","280","1118696","0.0-6.0-1.39","3728847","co38647","norming","","","","","","",""
"5334.739999962039","","","post_mooney1_questions","survey-likert","281","1124035","0.0-6.0-2.39","3728847","co38647","norming","","","{""curiosity"":6,""confidence"":0}","[0,1]","../img/tt/435tt.jpg","",""
"1331.7999999853782","","","recognition","survey-text","282","1125370","0.0-6.0-3.39","3728847","co38647","norming","","","{""guess"":""""}","","../img/tt/435tt.jpg","",""
"null","../img/gs/435gs.jpg","null","reveal","image-keyboard-response","283","1127386","0.0-6.0-4.39","3728847","co38647","norming","","","","","","",""
"null","../img/tt/435tt.jpg","null","mooney2","image-keyboard-response","284","1129391","0.0-6.0-5.39","3728847","co38647","norming","","","","","","",""
"3816.3000000058673","","","post_reveal_questions","survey-likert","285","1133211","0.0-6.0-6.39","3728847","co38647","norming","","","{""aha"":6}","[0]","../img/tt/435tt.jpg","",""
"null","<div style=""font-size:60px;""> </div>","null","fixation","html-keyboard-response","286","1133414","0.0-6.0-0.40","3728847","co38647","norming","","","","","","",""
"null","../img/tt/1283tt.jpg","null","mooney1","image-keyboard-response","287","1136420","0.0-6.0-1.40","3728847","co38647","norming","","","","","","",""
"10810.860000026878","","","post_mooney1_questions","survey-likert","288","1147235","0.0-6.0-2.40","3728847","co38647","norming","","","{""curiosity"":1,""confidence"":4}","[0,1]","../img/tt/1283tt.jpg","",""
"3339.734999986831","","","recognition","survey-text","289","1150578","0.0-6.0-3.40","3728847","co38647","norming","","","{""guess"":""fox""}","","../img/tt/1283tt.jpg","",""
"null","../img/gs/1283gs.jpg","null","reveal","image-keyboard-response","290","1152580","0.0-6.0-4.40","3728847","co38647","norming","","","","","","",""
"null","../img/tt/1283tt.jpg","null","mooney2","image-keyboard-response","291","1154582","0.0-6.0-5.40","3728847","co38647","norming","","","","","","",""
"3937.7000000094995","","","post_reveal_questions","survey-likert","292","1158522","0.0-6.0-6.40","3728847","co38647","norming","","","{""aha"":1}","[0]","../img/tt/1283tt.jpg","",""
"null","<div style=""font-size:60px;""> </div>","null","fixation","html-keyboard-response","293","1158729","0.0-6.0-0.41","3728847","co38647","norming","","","","","","",""
"null","../img/tt/1236tt.jpg","null","mooney1","image-keyboard-response","294","1161732","0.0-6.0-1.41","3728847","co38647","norming","","","","","","",""
"5867.580000020098","","","post_mooney1_questions","survey-likert","295","1167603","0.0-6.0-2.41","3728847","co38647","norming","","","{""curiosity"":5,""confidence"":1}","[0,1]","../img/tt/1236tt.jpg","",""
"3139.420000021346","","","recognition","survey-text","296","1170746","0.0-6.0-3.41","3728847","co38647","norming","","","{""guess"":""duck""}","","../img/tt/1236tt.jpg","",""
"null","../img/gs/1236gs.jpg","null","reveal","image-keyboard-response","297","1172748","0.0-6.0-4.41","3728847","co38647","norming","","","","","","",""
"null","../img/tt/1236tt.jpg","null","mooney2","image-keyboard-response","298","1174750","0.0-6.0-5.41","3728847","co38647","norming","","","","","","",""
"2417.780000017956","","","post_reveal_questions","survey-likert","299","1177170","0.0-6.0-6.41","3728847","co38647","norming","","","{""aha"":5}","[0]","../img/tt/1236tt.jpg","",""
"null","<div style=""font-size:60px;""> </div>","null","fixation","html-keyboard-response","300","1177391","0.0-6.0-0.42","3728847","co38647","norming","","","","","","",""
"null","../img/tt/001tt.jpg","null","mooney1","image-keyboard-response","301","1180408","0.0-6.0-1.42","3728847","co38647","norming","","","","","","",""
"5223.500000021886","","","post_mooney1_questions","survey-likert","302","1185635","0.0-6.0-2.42","3728847","co38647","norming","","","{""curiosity"":1,""confidence"":6}","[0,1]","../img/tt/001tt.jpg","",""
"2363.229999959003","","","recognition","survey-text","303","1188002","0.0-6.0-3.42","3728847","co38647","norming","","","{""guess"":""owl""}","","../img/tt/001tt.jpg","",""
"null","../img/gs/001gs.jpg","null","reveal","image-keyboard-response","304","1190005","0.0-6.0-4.42","3728847","co38647","norming","","","","","","",""
"null","../img/tt/001tt.jpg","null","mooney2","image-keyboard-response","305","1192006","0.0-6.0-5.42","3728847","co38647","norming","","","","","","",""
"2217.735000012908","","","post_reveal_questions","survey-likert","306","1194227","0.0-6.0-6.42","3728847","co38647","norming","","","{""aha"":0}","[0]","../img/tt/001tt.jpg","",""
"null","<div style=""font-size:60px;""> </div>","null","fixation","html-keyboard-response","307","1194432","0.0-6.0-0.43","3728847","co38647","norming","","","","","","",""
"null","../img/tt/1186tt.jpg","null","mooney1","image-keyboard-response","308","1197443","0.0-6.0-1.43","3728847","co38647","norming","","","","","","",""
"7052.625000011176","","","post_mooney1_questions","survey-likert","309","1204499","0.0-6.0-2.43","3728847","co38647","norming","","","{""curiosity"":3,""confidence"":1}","[0,1]","../img/tt/1186tt.jpg","",""
"8404.529999999795","","","recognition","survey-text","310","1212906","0.0-6.0-3.43","3728847","co38647","norming","","","{""guess"":""soccer""}","","../img/tt/1186tt.jpg","",""
"null","../img/gs/1186gs.jpg","null","reveal","image-keyboard-response","311","1214908","0.0-6.0-4.43","3728847","co38647","norming","","","","","","",""
"null","../img/tt/1186tt.jpg","null","mooney2","image-keyboard-response","312","1216911","0.0-6.0-5.43","3728847","co38647","norming","","","","","","",""
"8194.115000020247","","","post_reveal_questions","survey-likert","313","1225107","0.0-6.0-6.43","3728847","co38647","norming","","","{""aha"":5}","[0]","../img/tt/1186tt.jpg","",""
"null","<div style=""font-size:60px;""> </div>","null","fixation","html-keyboard-response","314","1225317","0.0-6.0-0.44","3728847","co38647","norming","","","","","","",""
"null","../img/tt/019tt.jpg","null","mooney1","image-keyboard-response","315","1228320","0.0-6.0-1.44","3728847","co38647","norming","","","","","","",""
"7814.900000055786","","","post_mooney1_questions","survey-likert","316","1236139","0.0-6.0-2.44","3728847","co38647","norming","","","{""curiosity"":6,""confidence"":0}","[0,1]","../img/tt/019tt.jpg","",""
"1955.7050000294112","","","recognition","survey-text","317","1238098","0.0-6.0-3.44","3728847","co38647","norming","","","{""guess"":""""}","","../img/tt/019tt.jpg","",""
"null","../img/gs/019gs.jpg","null","reveal","image-keyboard-response","318","1240110","0.0-6.0-4.44","3728847","co38647","norming","","","","","","",""
"null","../img/tt/019tt.jpg","null","mooney2","image-keyboard-response","319","1242112","0.0-6.0-5.44","3728847","co38647","norming","","","","","","",""
"3295.3749999869615","","","post_reveal_questions","survey-likert","320","1245411","0.0-6.0-6.44","3728847","co38647","norming","","","{""aha"":6}","[0]","../img/tt/019tt.jpg","",""
"null","<div style=""font-size:60px;""> </div>","null","fixation","html-keyboard-response","321","1245612","0.0-6.0-0.45","3728847","co38647","norming","","","","","","",""
"null","../img/tt/1148tt.jpg","null","mooney1","image-keyboard-response","322","1248629","0.0-6.0-1.45","3728847","co38647","norming","","","","","","",""
"4282.585000037216","","","post_mooney1_questions","survey-likert","323","1252915","0.0-6.0-2.45","3728847","co38647","norming","","","{""curiosity"":1,""confidence"":5}","[0,1]","../img/tt/1148tt.jpg","",""
"3547.8349999757484","","","recognition","survey-text","324","1256466","0.0-6.0-3.45","3728847","co38647","norming","","","{""guess"":""kayak""}","","../img/tt/1148tt.jpg","",""
"null","../img/gs/1148gs.jpg","null","reveal","image-keyboard-response","325","1258473","0.0-6.0-4.45","3728847","co38647","norming","","","","","","",""
"null","../img/tt/1148tt.jpg","null","mooney2","image-keyboard-response","326","1260491","0.0-6.0-5.45","3728847","co38647","norming","","","","","","",""
"4148.545000003651","","","post_reveal_questions","survey-likert","327","1264643","0.0-6.0-6.45","3728847","co38647","norming","","","{""aha"":6}","[0]","../img/tt/1148tt.jpg","",""
"null","<div style=""font-size:60px;""> </div>","null","fixation","html-keyboard-response","328","1264845","0.0-6.0-0.46","3728847","co38647","norming","","","","","","",""
"null","../img/tt/096tt.jpg","null","mooney1","image-keyboard-response","329","1267852","0.0-6.0-1.46","3728847","co38647","norming","","","","","","",""
"5564.04000002658","","","post_mooney1_questions","survey-likert","330","1273419","0.0-6.0-2.46","3728847","co38647","norming","","","{""curiosity"":1,""confidence"":5}","[0,1]","../img/tt/096tt.jpg","",""
"3651.754999998957","","","recognition","survey-text","331","1277075","0.0-6.0-3.46","3728847","co38647","norming","","","{""guess"":""piano""}","","../img/tt/096tt.jpg","",""
"null","../img/gs/096gs.jpg","null","reveal","image-keyboard-response","332","1279076","0.0-6.0-4.46","3728847","co38647","norming","","","","","","",""
"null","../img/tt/096tt.jpg","null","mooney2","image-keyboard-response","333","1281078","0.0-6.0-5.46","3728847","co38647","norming","","","","","","",""
"2201.7200000118464","","","post_reveal_questions","survey-likert","334","1283283","0.0-6.0-6.46","3728847","co38647","norming","","","{""aha"":1}","[0]","../img/tt/096tt.jpg","",""
"null","<div style=""font-size:60px;""> </div>","null","fixation","html-keyboard-response","335","1283500","0.0-6.0-0.47","3728847","co38647","norming","","","","","","",""
"null","../img/tt/1191tt.jpg","null","mooney1","image-keyboard-response","336","1286522","0.0-6.0-1.47","3728847","co38647","norming","","","","","","",""
"15558.115000021644","","","post_mooney1_questions","survey-likert","337","1302083","0.0-6.0-2.47","3728847","co38647","norming","","","{""curiosity"":5,""confidence"":1}","[0,1]","../img/tt/1191tt.jpg","",""
"6051.594999968074","","","recognition","survey-text","338","1308138","0.0-6.0-3.47","3728847","co38647","norming","","","{""guess"":""""}","","../img/tt/1191tt.jpg","",""
"null","../img/gs/1191gs.jpg","null","reveal","image-keyboard-response","339","1310149","0.0-6.0-4.47","3728847","co38647","norming","","","","","","",""
"null","../img/tt/1191tt.jpg","null","mooney2","image-keyboard-response","340","1312157","0.0-6.0-5.47","3728847","co38647","norming","","","","","","",""
"3554.134999983944","","","post_reveal_questions","survey-likert","341","1315714","0.0-6.0-6.47","3728847","co38647","norming","","","{""aha"":2}","[0]","../img/tt/1191tt.jpg","",""
"null","<div style=""font-size:60px;""> </div>","null","fixation","html-keyboard-response","342","1315922","0.0-6.0-0.48","3728847","co38647","norming","","","","","","",""
"null","../img/tt/1159tt.jpg","null","mooney1","image-keyboard-response","343","1318929","0.0-6.0-1.48","3728847","co38647","norming","","","","","","",""
"6437.954999972135","","","post_mooney1_questions","survey-likert","344","1325371","0.0-6.0-2.48","3728847","co38647","norming","","","{""curiosity"":4,""confidence"":2}","[0,1]","../img/tt/1159tt.jpg","",""
"4547.684999997728","","","recognition","survey-text","345","1329922","0.0-6.0-3.48","3728847","co38647","norming","","","{""guess"":""skater""}","","../img/tt/1159tt.jpg","",""
"null","../img/gs/1159gs.jpg","null","reveal","image-keyboard-response","346","1331927","0.0-6.0-4.48","3728847","co38647","norming","","","","","","",""
"null","../img/tt/1159tt.jpg","null","mooney2","image-keyboard-response","347","1333929","0.0-6.0-5.48","3728847","co38647","norming","","","","","","",""
"7725.949999992736","","","post_reveal_questions","survey-likert","348","1341658","0.0-6.0-6.48","3728847","co38647","norming","","","{""aha"":1}","[0]","../img/tt/1159tt.jpg","",""
"null","<div style=""font-size:60px;""> </div>","null","fixation","html-keyboard-response","349","1341877","0.0-6.0-0.49","3728847","co38647","norming","","","","","","",""
"null","../img/tt/1307tt.jpg","null","mooney1","image-keyboard-response","350","1344893","0.0-6.0-1.49","3728847","co38647","norming","","","","","","",""
"5594.259999983478","","","post_mooney1_questions","survey-likert","351","1350491","0.0-6.0-2.49","3728847","co38647","norming","","","{""curiosity"":6,""confidence"":4}","[0,1]","../img/tt/1307tt.jpg","",""
"4412.4099999899045","","","recognition","survey-text","352","1354906","0.0-6.0-3.49","3728847","co38647","norming","","","{""guess"":""parachute""}","","../img/tt/1307tt.jpg","",""
"null","../img/gs/1307gs.jpg","null","reveal","image-keyboard-response","353","1356923","0.0-6.0-4.49","3728847","co38647","norming","","","","","","",""
"null","../img/tt/1307tt.jpg","null","mooney2","image-keyboard-response","354","1358937","0.0-6.0-5.49","3728847","co38647","norming","","","","","","",""
"7639.064999995753","","","post_reveal_questions","survey-likert","355","1366579","0.0-6.0-6.49","3728847","co38647","norming","","","{""aha"":1}","[0]","../img/tt/1307tt.jpg","",""
"null","<div style=""font-size:60px;""> </div>","null","fixation","html-keyboard-response","356","1366787","0.0-6.0-0.50","3728847","co38647","norming","","","","","","",""
"null","../img/tt/1049tt.jpg","null","mooney1","image-keyboard-response","357","1369791","0.0-6.0-1.50","3728847","co38647","norming","","","","","","",""
"3159.0549999964423","","","post_mooney1_questions","survey-likert","358","1372955","0.0-6.0-2.50","3728847","co38647","norming","","","{""curiosity"":6,""confidence"":0}","[0,1]","../img/tt/1049tt.jpg","",""
"1043.779999949038","","","recognition","survey-text","359","1374002","0.0-6.0-3.50","3728847","co38647","norming","","","{""guess"":""""}","","../img/tt/1049tt.jpg","",""
"null","../img/gs/1049gs.jpg","null","reveal","image-keyboard-response","360","1376004","0.0-6.0-4.50","3728847","co38647","norming","","","","","","",""
"null","../img/tt/1049tt.jpg","null","mooney2","image-keyboard-response","361","1378011","0.0-6.0-5.50","3728847","co38647","norming","","","","","","",""
"2276.6300000366755","","","post_reveal_questions","survey-likert","362","1380291","0.0-6.0-6.50","3728847","co38647","norming","","","{""aha"":6}","[0]","../img/tt/1049tt.jpg","",""
"null","<div style=""font-size:60px;""> </div>","null","fixation","html-keyboard-response","363","1380493","0.0-6.0-0.51","3728847","co38647","norming","","","","","","",""
"null","../img/tt/1211tt.jpg","null","mooney1","image-keyboard-response","364","1383510","0.0-6.0-1.51","3728847","co38647","norming","","","","","","",""
"6097.524999990128","","","post_mooney1_questions","survey-likert","365","1389611","0.0-6.0-2.51","3728847","co38647","norming","","","{""curiosity"":6,""confidence"":0}","[0,1]","../img/tt/1211tt.jpg","",""
"3531.7449999856763","","","recognition","survey-text","366","1393147","0.0-6.0-3.51","3728847","co38647","norming","","","{""guess"":""nest""}","","../img/tt/1211tt.jpg","",""
"null","../img/gs/1211gs.jpg","null","reveal","image-keyboard-response","367","1395148","0.0-6.0-4.51","3728847","co38647","norming","","","","","","",""
"null","../img/tt/1211tt.jpg","null","mooney2","image-keyboard-response","368","1397165","0.0-6.0-5.51","3728847","co38647","norming","","","","","","",""
"2570.5699999816716","","","post_reveal_questions","survey-likert","369","1399739","0.0-6.0-6.51","3728847","co38647","norming","","","{""aha"":6}","[0]","../img/tt/1211tt.jpg","",""
"null","<div style=""font-size:60px;""> </div>","null","fixation","html-keyboard-response","370","1399952","0.0-6.0-0.52","3728847","co38647","norming","","","","","","",""
"null","../img/tt/1143tt.jpg","null","mooney1","image-keyboard-response","371","1402965","0.0-6.0-1.52","3728847","co38647","norming","","","","","","",""
"5666.895000031218","","","post_mooney1_questions","survey-likert","372","1408635","0.0-6.0-2.52","3728847","co38647","norming","","","{""curiosity"":2,""confidence"":5}","[0,1]","../img/tt/1143tt.jpg","",""
"5803.759999980684","","","recognition","survey-text","373","1414443","0.0-6.0-3.52","3728847","co38647","norming","","","{""guess"":""fitness cycling""}","","../img/tt/1143tt.jpg","",""
"null","../img/gs/1143gs.jpg","null","reveal","image-keyboard-response","374","1416454","0.0-6.0-4.52","3728847","co38647","norming","","","","","","",""
"null","../img/tt/1143tt.jpg","null","mooney2","image-keyboard-response","375","1418456","0.0-6.0-5.52","3728847","co38647","norming","","","","","","",""
"1951.0000000009313","","","post_reveal_questions","survey-likert","376","1420411","0.0-6.0-6.52","3728847","co38647","norming","","","{""aha"":0}","[0]","../img/tt/1143tt.jpg","",""
"null","<div style=""font-size:60px;""> </div>","null","fixation","html-keyboard-response","377","1420612","0.0-6.0-0.53","3728847","co38647","norming","","","","","","",""
"null","../img/tt/405tt.jpg","null","mooney1","image-keyboard-response","378","1423616","0.0-6.0-1.53","3728847","co38647","norming","","","","","","",""
"2815.6549999839626","","","post_mooney1_questions","survey-likert","379","1426435","0.0-6.0-2.53","3728847","co38647","norming","","","{""curiosity"":1,""confidence"":6}","[0,1]","../img/tt/405tt.jpg","",""
"2995.8199999528006","","","recognition","survey-text","380","1429435","0.0-6.0-3.53","3728847","co38647","norming","","","{""guess"":""koala""}","","../img/tt/405tt.jpg","",""
"null","../img/gs/405gs.jpg","null","reveal","image-keyboard-response","381","1431445","0.0-6.0-4.53","3728847","co38647","norming","","","","","","",""
"null","../img/tt/405tt.jpg","null","mooney2","image-keyboard-response","382","1433451","0.0-6.0-5.53","3728847","co38647","norming","","","","","","",""
"2900.7850000052713","","","post_reveal_questions","survey-likert","383","1436355","0.0-6.0-6.53","3728847","co38647","norming","","","{""aha"":0}","[0]","../img/tt/405tt.jpg","",""
"null","<div style=""font-size:60px;""> </div>","null","fixation","html-keyboard-response","384","1436561","0.0-6.0-0.54","3728847","co38647","norming","","","","","","",""
"null","../img/tt/1151tt.jpg","null","mooney1","image-keyboard-response","385","1439579","0.0-6.0-1.54","3728847","co38647","norming","","","","","","",""
"5715.900000010151","","","post_mooney1_questions","survey-likert","386","1445299","0.0-6.0-2.54","3728847","co38647","norming","","","{""curiosity"":5,""confidence"":1}","[0,1]","../img/tt/1151tt.jpg","",""
"4299.21500000637","","","recognition","survey-text","387","1449603","0.0-6.0-3.54","3728847","co38647","norming","","","{""guess"":""basketball""}","","../img/tt/1151tt.jpg","",""
"null","../img/gs/1151gs.jpg","null","reveal","image-keyboard-response","388","1451616","0.0-6.0-4.54","3728847","co38647","norming","","","","","","",""
"null","../img/tt/1151tt.jpg","null","mooney2","image-keyboard-response","389","1453628","0.0-6.0-5.54","3728847","co38647","norming","","","","","","",""
"2564.1900000046007","","","post_reveal_questions","survey-likert","390","1456195","0.0-6.0-6.54","3728847","co38647","norming","","","{""aha"":6}","[0]","../img/tt/1151tt.jpg","",""
"null","<div style=""font-size:60px;""> </div>","null","fixation","html-keyboard-response","391","1456402","0.0-6.0-0.55","3728847","co38647","norming","","","","","","",""
"null","../img/tt/118tt.jpg","null","mooney1","image-keyboard-response","392","1459406","0.0-6.0-1.55","3728847","co38647","norming","","","","","","",""
"4986.384999996517","","","post_mooney1_questions","survey-likert","393","1464395","0.0-6.0-2.55","3728847","co38647","norming","","","{""curiosity"":6,""confidence"":0}","[0,1]","../img/tt/118tt.jpg","",""
"940.1800000341609","","","recognition","survey-text","394","1465339","0.0-6.0-3.55","3728847","co38647","norming","","","{""guess"":""""}","","../img/tt/118tt.jpg","",""
"null","../img/gs/118gs.jpg","null","reveal","image-keyboard-response","395","1467347","0.0-6.0-4.55","3728847","co38647","norming","","","","","","",""
"null","../img/tt/118tt.jpg","null","mooney2","image-keyboard-response","396","1469350","0.0-6.0-5.55","3728847","co38647","norming","","","","","","",""
"4802.499999990687","","","post_reveal_questions","survey-likert","397","1474155","0.0-6.0-6.55","3728847","co38647","norming","","","{""aha"":0}","[0]","../img/tt/118tt.jpg","",""
"null","<div style=""font-size:60px;""> </div>","null","fixation","html-keyboard-response","398","1474366","0.0-6.0-0.56","3728847","co38647","norming","","","","","","",""
"null","../img/tt/357tt.jpg","null","mooney1","image-keyboard-response","399","1477384","0.0-6.0-1.56","3728847","co38647","norming","","","","","","",""
"4391.694999998435","","","post_mooney1_questions","survey-likert","400","1481780","0.0-6.0-2.56","3728847","co38647","norming","","","{""curiosity"":6,""confidence"":0}","[0,1]","../img/tt/357tt.jpg","",""
"1643.335000029765","","","recognition","survey-text","401","1483427","0.0-6.0-3.56","3728847","co38647","norming","","","{""guess"":""""}","","../img/tt/357tt.jpg","",""
"null","../img/gs/357gs.jpg","null","reveal","image-keyboard-response","402","1485444","0.0-6.0-4.56","3728847","co38647","norming","","","","","","",""
"null","../img/tt/357tt.jpg","null","mooney2","image-keyboard-response","403","1487447","0.0-6.0-5.56","3728847","co38647","norming","","","","","","",""
"1993.4699999867007","","","post_reveal_questions","survey-likert","404","1489443","0.0-6.0-6.56","3728847","co38647","norming","","","{""aha"":6}","[0]","../img/tt/357tt.jpg","",""
"null","<div style=""font-size:60px;""> </div>","null","fixation","html-keyboard-response","405","1489648","0.0-6.0-0.57","3728847","co38647","norming","","","","","","",""
"null","../img/tt/1290tt.jpg","null","mooney1","image-keyboard-response","406","1492652","0.0-6.0-1.57","3728847","co38647","norming","","","","","","",""
"3636.3600000040606","","","post_mooney1_questions","survey-likert","407","1496291","0.0-6.0-2.57","3728847","co38647","norming","","","{""curiosity"":1,""confidence"":6}","[0,1]","../img/tt/1290tt.jpg","",""
"3859.954999992624","","","recognition","survey-text","408","1500155","0.0-6.0-3.57","3728847","co38647","norming","","","{""guess"":""gondola""}","","../img/tt/1290tt.jpg","",""
"null","../img/gs/1290gs.jpg","null","reveal","image-keyboard-response","409","1502159","0.0-6.0-4.57","3728847","co38647","norming","","","","","","",""
"null","../img/tt/1290tt.jpg","null","mooney2","image-keyboard-response","410","1504173","0.0-6.0-5.57","3728847","co38647","norming","","","","","","",""
"6163.55499997735","","","post_reveal_questions","survey-likert","411","1510339","0.0-6.0-6.57","3728847","co38647","norming","","","{""aha"":0}","[0]","../img/tt/1290tt.jpg","",""
"null","<div style=""font-size:60px;""> </div>","null","fixation","html-keyboard-response","412","1510545","0.0-6.0-0.58","3728847","co38647","norming","","","","","","",""
"null","../img/tt/468tt.jpg","null","mooney1","image-keyboard-response","413","1513564","0.0-6.0-1.58","3728847","co38647","norming","","","","","","",""
"5220.094999996945","","","post_mooney1_questions","survey-likert","414","1518787","0.0-6.0-2.58","3728847","co38647","norming","","","{""curiosity"":1,""confidence"":6}","[0,1]","../img/tt/468tt.jpg","",""
"5610.879999992903","","","recognition","survey-text","415","1524403","0.0-6.0-3.58","3728847","co38647","norming","","","{""guess"":""violin""}","","../img/tt/468tt.jpg","",""
"null","../img/gs/468gs.jpg","null","reveal","image-keyboard-response","416","1526417","0.0-6.0-4.58","3728847","co38647","norming","","","","","","",""
"null","../img/tt/468tt.jpg","null","mooney2","image-keyboard-response","417","1528424","0.0-6.0-5.58","3728847","co38647","norming","","","","","","",""
"1784.670000022743","","","post_reveal_questions","survey-likert","418","1530211","0.0-6.0-6.58","3728847","co38647","norming","","","{""aha"":0}","[0]","../img/tt/468tt.jpg","",""
"null","<div style=""font-size:60px;""> </div>","null","fixation","html-keyboard-response","419","1530413","0.0-6.0-0.59","3728847","co38647","norming","","","","","","",""
"null","../img/tt/524tt.jpg","null","mooney1","image-keyboard-response","420","1533415","0.0-6.0-1.59","3728847","co38647","norming","","","","","","",""
"4704.655000008643","","","post_mooney1_questions","survey-likert","421","1538123","0.0-6.0-2.59","3728847","co38647","norming","","","{""curiosity"":5,""confidence"":3}","[0,1]","../img/tt/524tt.jpg","",""
"5019.650000031106","","","recognition","survey-text","422","1543147","0.0-6.0-3.59","3728847","co38647","norming","","","{""guess"":""elephant""}","","../img/tt/524tt.jpg","",""
"null","../img/gs/524gs.jpg","null","reveal","image-keyboard-response","423","1545152","0.0-6.0-4.59","3728847","co38647","norming","","","","","","",""
"null","../img/tt/524tt.jpg","null","mooney2","image-keyboard-response","424","1547162","0.0-6.0-5.59","3728847","co38647","norming","","","","","","",""
"4118.7649999628775","","","post_reveal_questions","survey-likert","425","1551283","0.0-6.0-6.59","3728847","co38647","norming","","","{""aha"":5}","[0]","../img/tt/524tt.jpg","",""
"null","<div style=""font-size:60px;""> </div>","null","fixation","html-keyboard-response","426","1551498","0.0-6.0-0.60","3728847","co38647","norming","","","","","","",""
"null","../img/tt/135tt.jpg","null","mooney1","image-keyboard-response","427","1554503","0.0-6.0-1.60","3728847","co38647","norming","","","","","","",""
"7081.494999991264","","","post_mooney1_questions","survey-likert","428","1561588","0.0-6.0-2.60","3728847","co38647","norming","","","{""curiosity"":0,""confidence"":6}","[0,1]","../img/tt/135tt.jpg","",""
"6947.175000037532","","","recognition","survey-text","429","1568539","0.0-6.0-3.60","3728847","co38647","norming","","","{""guess"":""toilet""}","","../img/tt/135tt.jpg","",""
"null","../img/gs/135gs.jpg","null","reveal","image-keyboard-response","430","1570553","0.0-6.0-4.60","3728847","co38647","norming","","","","","","",""
"null","../img/tt/135tt.jpg","null","mooney2","image-keyboard-response","431","1572565","0.0-6.0-5.60","3728847","co38647","norming","","","","","","",""
"1779.6249999664724","","","post_reveal_questions","survey-likert","432","1574347","0.0-6.0-6.60","3728847","co38647","norming","","","{""aha"":0}","[0]","../img/tt/135tt.jpg","",""
"null","<div style=""font-size:60px;""> </div>","null","fixation","html-keyboard-response","433","1574551","0.0-6.0-0.61","3728847","co38647","norming","","","","","","",""
"null","../img/tt/590tt.jpg","null","mooney1","image-keyboard-response","434","1577553","0.0-6.0-1.61","3728847","co38647","norming","","","","","","",""
"6799.04000001261","","","post_mooney1_questions","survey-likert","435","1584355","0.0-6.0-2.61","3728847","co38647","norming","","","{""curiosity"":6,""confidence"":0}","[0,1]","../img/tt/590tt.jpg","",""
"3683.705000032205","","","recognition","survey-text","436","1588043","0.0-6.0-3.61","3728847","co38647","norming","","","{""guess"":""dice""}","","../img/tt/590tt.jpg","",""
"null","../img/gs/590gs.jpg","null","reveal","image-keyboard-response","437","1590046","0.0-6.0-4.61","3728847","co38647","norming","","","","","","",""
"null","../img/tt/590tt.jpg","null","mooney2","image-keyboard-response","438","1592052","0.0-6.0-5.61","3728847","co38647","norming","","","","","","",""
"2667.584999988321","","","post_reveal_questions","survey-likert","439","1594723","0.0-6.0-6.61","3728847","co38647","norming","","","{""aha"":6}","[0]","../img/tt/590tt.jpg","",""
"null","<div style=""font-size:60px;""> </div>","null","fixation","html-keyboard-response","440","1594924","0.0-6.0-0.62","3728847","co38647","norming","","","","","","",""
"null","../img/tt/1279tt.jpg","null","mooney1","image-keyboard-response","441","1597934","0.0-6.0-1.62","3728847","co38647","norming","","","","","","",""
"12089.58500000881","","","post_mooney1_questions","survey-likert","442","1610027","0.0-6.0-2.62","3728847","co38647","norming","","","{""curiosity"":5,""confidence"":0}","[0,1]","../img/tt/1279tt.jpg","",""
"1091.7699999990873","","","recognition","survey-text","443","1611123","0.0-6.0-3.62","3728847","co38647","norming","","","{""guess"":""""}","","../img/tt/1279tt.jpg","",""
"null","../img/gs/1279gs.jpg","null","reveal","image-keyboard-response","444","1613137","0.0-6.0-4.62","3728847","co38647","norming","","","","","","",""
"null","../img/tt/1279tt.jpg","null","mooney2","image-keyboard-response","445","1615139","0.0-6.0-5.62","3728847","co38647","norming","","","","","","",""
"4605.58500001207","","","post_reveal_questions","survey-likert","446","1619747","0.0-6.0-6.62","3728847","co38647","norming","","","{""aha"":4}","[0]","../img/tt/1279tt.jpg","",""
"null","<div style=""font-size:60px;""> </div>","null","fixation","html-keyboard-response","447","1619955","0.0-6.0-0.63","3728847","co38647","norming","","","","","","",""
"null","../img/tt/189tt.jpg","null","mooney1","image-keyboard-response","448","1622965","0.0-6.0-1.63","3728847","co38647","norming","","","","","","",""
"8458.35500000976","","","post_mooney1_questions","survey-likert","449","1631427","0.0-6.0-2.63","3728847","co38647","norming","","","{""curiosity"":6,""confidence"":1}","[0,1]","../img/tt/189tt.jpg","",""
"4939.650000014808","","","recognition","survey-text","450","1636371","0.0-6.0-3.63","3728847","co38647","norming","","","{""guess"":""skiing""}","","../img/tt/189tt.jpg","",""
"null","../img/gs/189gs.jpg","null","reveal","image-keyboard-response","451","1638381","0.0-6.0-4.63","3728847","co38647","norming","","","","","","",""
"null","../img/tt/189tt.jpg","null","mooney2","image-keyboard-response","452","1640389","0.0-6.0-5.63","3728847","co38647","norming","","","","","","",""
"3939.089999999851","","","post_reveal_questions","survey-likert","453","1644331","0.0-6.0-6.63","3728847","co38647","norming","","","{""aha"":6}","[0]","../img/tt/189tt.jpg","",""
"null","<div style=""font-size:60px;""> </div>","null","fixation","html-keyboard-response","454","1644536","0.0-6.0-0.64","3728847","co38647","norming","","","","","","",""
"null","../img/tt/442tt.jpg","null","mooney1","image-keyboard-response","455","1647554","0.0-6.0-1.64","3728847","co38647","norming","","","","","","",""
"9429.505000007339","","","post_mooney1_questions","survey-likert","456","1656987","0.0-6.0-2.64","3728847","co38647","norming","","","{""curiosity"":3,""confidence"":2}","[0,1]","../img/tt/442tt.jpg","",""
"8499.684999987949","","","recognition","survey-text","457","1665491","0.0-6.0-3.64","3728847","co38647","norming","","","{""guess"":""plant""}","","../img/tt/442tt.jpg","",""
"null","../img/gs/442gs.jpg","null","reveal","image-keyboard-response","458","1667496","0.0-6.0-4.64","3728847","co38647","norming","","","","","","",""
"null","../img/tt/442tt.jpg","null","mooney2","image-keyboard-response","459","1669502","0.0-6.0-5.64","3728847","co38647","norming","","","","","","",""
"4977.805000031367","","","post_reveal_questions","survey-likert","460","1674483","0.0-6.0-6.64","3728847","co38647","norming","","","{""aha"":4}","[0]","../img/tt/442tt.jpg","",""
"null","<div style=""font-size:60px;""> </div>","null","fixation","html-keyboard-response","461","1674696","0.0-6.0-0.65","3728847","co38647","norming","","","","","","",""
"null","../img/tt/1224tt.jpg","null","mooney1","image-keyboard-response","462","1677713","0.0-6.0-1.65","3728847","co38647","norming","","","","","","",""
"10431.110000004992","","","post_mooney1_questions","survey-likert","463","1688148","0.0-6.0-2.65","3728847","co38647","norming","","","{""curiosity"":2,""confidence"":1}","[0,1]","../img/tt/1224tt.jpg","",""
"6163.6250000447035","","","recognition","survey-text","464","1694315","0.0-6.0-3.65","3728847","co38647","norming","","","{""guess"":""music player""}","","../img/tt/1224tt.jpg","",""
"null","../img/gs/1224gs.jpg","null","reveal","image-keyboard-response","465","1696327","0.0-6.0-4.65","3728847","co38647","norming","","","","","","",""
"null","../img/tt/1224tt.jpg","null","mooney2","image-keyboard-response","466","1698340","0.0-6.0-5.65","3728847","co38647","norming","","","","","","",""
"5308.33500000881","","","post_reveal_questions","survey-likert","467","1703651","0.0-6.0-6.65","3728847","co38647","norming","","","{""aha"":5}","[0]","../img/tt/1224tt.jpg","",""
"null","<div style=""font-size:60px;""> </div>","null","fixation","html-keyboard-response","468","1703855","0.0-6.0-0.66","3728847","co38647","norming","","","","","","",""
"null","../img/tt/1362tt.jpg","null","mooney1","image-keyboard-response","469","1706866","0.0-6.0-1.66","3728847","co38647","norming","","","","","","",""
"4764.0299999620765","","","post_mooney1_questions","survey-likert","470","1711636","0.0-6.0-2.66","3728847","co38647","norming","","","{""curiosity"":4,""confidence"":2}","[0,1]","../img/tt/1362tt.jpg","",""
"7147.775000019465","","","recognition","survey-text","471","1718787","0.0-6.0-3.66","3728847","co38647","norming","","","{""guess"":""grammophone""}","","../img/tt/1362tt.jpg","",""
"null","../img/gs/1362gs.jpg","null","reveal","image-keyboard-response","472","1720806","0.0-6.0-4.66","3728847","co38647","norming","","","","","","",""
"null","../img/tt/1362tt.jpg","null","mooney2","image-keyboard-response","473","1722820","0.0-6.0-5.66","3728847","co38647","norming","","","","","","",""
"5972.334999998566","","","post_reveal_questions","survey-likert","474","1728795","0.0-6.0-6.66","3728847","co38647","norming","","","{""aha"":6}","[0]","../img/tt/1362tt.jpg","",""
"null","<div style=""font-size:60px;""> </div>","null","fixation","html-keyboard-response","475","1729004","0.0-6.0-0.67","3728847","co38647","norming","","","","","","",""
"null","../img/tt/044tt.jpg","null","mooney1","image-keyboard-response","476","1732008","0.0-6.0-1.67","3728847","co38647","norming","","","","","","",""
"6711.924999952316","","","post_mooney1_questions","survey-likert","477","1738723","0.0-6.0-2.67","3728847","co38647","norming","","","{""curiosity"":5,""confidence"":0}","[0,1]","../img/tt/044tt.jpg","",""
"906.8850000039674","","","recognition","survey-text","478","1739635","0.0-6.0-3.67","3728847","co38647","norming","","","{""guess"":""""}","","../img/tt/044tt.jpg","",""
"null","../img/gs/044gs.jpg","null","reveal","image-keyboard-response","479","1741641","0.0-6.0-4.67","3728847","co38647","norming","","","","","","",""
"null","../img/tt/044tt.jpg","null","mooney2","image-keyboard-response","480","1743644","0.0-6.0-5.67","3728847","co38647","norming","","","","","","",""
"6027.8200000175275","","","post_reveal_questions","survey-likert","481","1749675","0.0-6.0-6.67","3728847","co38647","norming","","","{""aha"":6}","[0]","../img/tt/044tt.jpg","",""
"null","<div style=""font-size:60px;""> </div>","null","fixation","html-keyboard-response","482","1749892","0.0-6.0-0.68","3728847","co38647","norming","","","","","","",""
"null","../img/tt/1070tt.jpg","null","mooney1","image-keyboard-response","483","1752909","0.0-6.0-1.68","3728847","co38647","norming","","","","","","",""
"3826.6099999891594","","","post_mooney1_questions","survey-likert","484","1756739","0.0-6.0-2.68","3728847","co38647","norming","","","{""curiosity"":4,""confidence"":1}","[0,1]","../img/tt/1070tt.jpg","",""
"6675.800000026356","","","recognition","survey-text","485","1763419","0.0-6.0-3.68","3728847","co38647","norming","","","{""guess"":""food corn""}","","../img/tt/1070tt.jpg","",""
"null","../img/gs/1070gs.jpg","null","reveal","image-keyboard-response","486","1765431","0.0-6.0-4.68","3728847","co38647","norming","","","","","","",""
"null","../img/tt/1070tt.jpg","null","mooney2","image-keyboard-response","487","1767445","0.0-6.0-5.68","3728847","co38647","norming","","","","","","",""
"5619.234999991022","","","post_reveal_questions","survey-likert","488","1773067","0.0-6.0-6.68","3728847","co38647","norming","","","{""aha"":5}","[0]","../img/tt/1070tt.jpg","",""
"null","<div style=""font-size:60px;""> </div>","null","fixation","html-keyboard-response","489","1773282","0.0-6.0-0.69","3728847","co38647","norming","","","","","","",""
"null","../img/tt/279tt.jpg","null","mooney1","image-keyboard-response","490","1776296","0.0-6.0-1.69","3728847","co38647","norming","","","","","","",""
"6487.475000030827","","","post_mooney1_questions","survey-likert","491","1782787","0.0-6.0-2.69","3728847","co38647","norming","","","{""curiosity"":1,""confidence"":6}","[0,1]","../img/tt/279tt.jpg","",""
"2867.1000000322238","","","recognition","survey-text","492","1785659","0.0-6.0-3.69","3728847","co38647","norming","","","{""guess"":""koala""}","","../img/tt/279tt.jpg","",""
"null","../img/gs/279gs.jpg","null","reveal","image-keyboard-response","493","1787676","0.0-6.0-4.69","3728847","co38647","norming","","","","","","",""
"null","../img/tt/279tt.jpg","null","mooney2","image-keyboard-response","494","1789691","0.0-6.0-5.69","3728847","co38647","norming","","","","","","",""
"3100.9849999682046","","","post_reveal_questions","survey-likert","495","1792795","0.0-6.0-6.69","3728847","co38647","norming","","","{""aha"":0}","[0]","../img/tt/279tt.jpg","",""
"null","<div style=""font-size:60px;""> </div>","null","fixation","html-keyboard-response","496","1793008","0.0-6.0-0.70","3728847","co38647","norming","","","","","","",""
"null","../img/tt/319tt.jpg","null","mooney1","image-keyboard-response","497","1796026","0.0-6.0-1.70","3728847","co38647","norming","","","","","","",""
"7381.960000027902","","","post_mooney1_questions","survey-likert","498","1803411","0.0-6.0-2.70","3728847","co38647","norming","","","{""curiosity"":2,""confidence"":6}","[0,1]","../img/tt/319tt.jpg","",""
"4307.204999960959","","","recognition","survey-text","499","1807723","0.0-6.0-3.70","3728847","co38647","norming","","","{""guess"":""donkeys""}","","../img/tt/319tt.jpg","",""
"null","../img/gs/319gs.jpg","null","reveal","image-keyboard-response","500","1809725","0.0-6.0-4.70","3728847","co38647","norming","","","","","","",""
"null","../img/tt/319tt.jpg","null","mooney2","image-keyboard-response","501","1811727","0.0-6.0-5.70","3728847","co38647","norming","","","","","","",""
"1953.8249999750406","","","post_reveal_questions","survey-likert","502","1813683","0.0-6.0-6.70","3728847","co38647","norming","","","{""aha"":0}","[0]","../img/tt/319tt.jpg","",""
"null","<div style=""font-size:60px;""> </div>","null","fixation","html-keyboard-response","503","1813895","0.0-6.0-0.71","3728847","co38647","norming","","","","","","",""
"null","../img/tt/040tt.jpg","null","mooney1","image-keyboard-response","504","1816907","0.0-6.0-1.71","3728847","co38647","norming","","","","","","",""
"5500.929999980144","","","post_mooney1_questions","survey-likert","505","1822411","0.0-6.0-2.71","3728847","co38647","norming","","","{""curiosity"":6,""confidence"":1}","[0,1]","../img/tt/040tt.jpg","",""
"6019.669999950565","","","recognition","survey-text","506","1828435","0.0-6.0-3.71","3728847","co38647","norming","","","{""guess"":""""}","","../img/tt/040tt.jpg","",""
"null","../img/gs/040gs.jpg","null","reveal","image-keyboard-response","507","1830439","0.0-6.0-4.71","3728847","co38647","norming","","","","","","",""
"null","../img/tt/040tt.jpg","null","mooney2","image-keyboard-response","508","1832449","0.0-6.0-5.71","3728847","co38647","norming","","","","","","",""
"2223.150000034366","","","post_reveal_questions","survey-likert","509","1834675","0.0-6.0-6.71","3728847","co38647","norming","","","{""aha"":6}","[0]","../img/tt/040tt.jpg","",""
"null","<div style=""font-size:60px;""> </div>","null","fixation","html-keyboard-response","510","1834881","0.0-6.0-0.72","3728847","co38647","norming","","","","","","",""
"null","../img/tt/1353tt.jpg","null","mooney1","image-keyboard-response","511","1837884","0.0-6.0-1.72","3728847","co38647","norming","","","","","","",""
"3571.909999998752","","","post_mooney1_questions","survey-likert","512","1841459","0.0-6.0-2.72","3728847","co38647","norming","","","{""curiosity"":6,""confidence"":0}","[0,1]","../img/tt/1353tt.jpg","",""
"899.8450000071898","","","recognition","survey-text","513","1842363","0.0-6.0-3.72","3728847","co38647","norming","","","{""guess"":""""}","","../img/tt/1353tt.jpg","",""
"null","../img/gs/1353gs.jpg","null","reveal","image-keyboard-response","514","1844379","0.0-6.0-4.72","3728847","co38647","norming","","","","","","",""
"null","../img/tt/1353tt.jpg","null","mooney2","image-keyboard-response","515","1846381","0.0-6.0-5.72","3728847","co38647","norming","","","","","","",""
"3891.239999968093","","","post_reveal_questions","survey-likert","516","1850275","0.0-6.0-6.72","3728847","co38647","norming","","","{""aha"":6}","[0]","../img/tt/1353tt.jpg","",""
"null","<div style=""font-size:60px;""> </div>","null","fixation","html-keyboard-response","517","1850486","0.0-6.0-0.73","3728847","co38647","norming","","","","","","",""
"null","../img/tt/1002tt.jpg","null","mooney1","image-keyboard-response","518","1853489","0.0-6.0-1.73","3728847","co38647","norming","","","","","","",""
"7534.890000009909","","","post_mooney1_questions","survey-likert","519","1861028","0.0-6.0-2.73","3728847","co38647","norming","","","{""curiosity"":6,""confidence"":1}","[0,1]","../img/tt/1002tt.jpg","",""
"4250.8449999731965","","","recognition","survey-text","520","1865284","0.0-6.0-3.73","3728847","co38647","norming","","","{""guess"":""elephant""}","","../img/tt/1002tt.jpg","",""
"null","../img/gs/1002gs.jpg","null","reveal","image-keyboard-response","521","1867293","0.0-6.0-4.73","3728847","co38647","norming","","","","","","",""
"null","../img/tt/1002tt.jpg","null","mooney2","image-keyboard-response","522","1869306","0.0-6.0-5.73","3728847","co38647","norming","","","","","","",""
"3430.610000039451","","","post_reveal_questions","survey-likert","523","1872740","0.0-6.0-6.73","3728847","co38647","norming","","","{""aha"":5}","[0]","../img/tt/1002tt.jpg","",""
"null","<div style=""font-size:60px;""> </div>","null","fixation","html-keyboard-response","524","1872955","0.0-6.0-0.74","3728847","co38647","norming","","","","","","",""
"null","../img/tt/1048tt.jpg","null","mooney1","image-keyboard-response","525","1875959","0.0-6.0-1.74","3728847","co38647","norming","","","","","","",""
"4665.674999996554","","","post_mooney1_questions","survey-likert","526","1880628","0.0-6.0-2.74","3728847","co38647","norming","","","{""curiosity"":6,""confidence"":1}","[0,1]","../img/tt/1048tt.jpg","",""
"3202.85000000149","","","recognition","survey-text","527","1883836","0.0-6.0-3.74","3728847","co38647","norming","","","{""guess"":""lion""}","","../img/tt/1048tt.jpg","",""
"null","../img/gs/1048gs.jpg","null","reveal","image-keyboard-response","528","1885853","0.0-6.0-4.74","3728847","co38647","norming","","","","","","",""
"null","../img/tt/1048tt.jpg","null","mooney2","image-keyboard-response","529","1887856","0.0-6.0-5.74","3728847","co38647","norming","","","","","","",""
"9328.800000017509","","","post_reveal_questions","survey-likert","530","1897188","0.0-6.0-6.74","3728847","co38647","norming","","","{""aha"":5}","[0]","../img/tt/1048tt.jpg","",""
"null","<div style=""font-size:60px;""> </div>","null","fixation","html-keyboard-response","531","1897390","0.0-6.0-0.75","3728847","co38647","norming","","","","","","",""
"null","../img/tt/1243tt.jpg","null","mooney1","image-keyboard-response","532","1900403","0.0-6.0-1.75","3728847","co38647","norming","","","","","","",""
"5309.51999995159","","","post_mooney1_questions","survey-likert","533","1905716","0.0-6.0-2.75","3728847","co38647","norming","","","{""curiosity"":4,""confidence"":2}","[0,1]","../img/tt/1243tt.jpg","",""
"3979.540000029374","","","recognition","survey-text","534","1909700","0.0-6.0-3.75","3728847","co38647","norming","","","{""guess"":""soccer""}","","../img/tt/1243tt.jpg","",""
"null","../img/gs/1243gs.jpg","null","reveal","image-keyboard-response","535","1911708","0.0-6.0-4.75","3728847","co38647","norming","","","","","","",""
"null","../img/tt/1243tt.jpg","null","mooney2","image-keyboard-response","536","1913712","0.0-6.0-5.75","3728847","co38647","norming","","","","","","",""
"2280.0549999810755","","","post_reveal_questions","survey-likert","537","1915996","0.0-6.0-6.75","3728847","co38647","norming","","","{""aha"":6}","[0]","../img/tt/1243tt.jpg","",""
"null","<div style=""font-size:60px;""> </div>","null","fixation","html-keyboard-response","538","1916211","0.0-6.0-0.76","3728847","co38647","norming","","","","","","",""
"null","../img/tt/085tt.jpg","null","mooney1","image-keyboard-response","539","1919217","0.0-6.0-1.76","3728847","co38647","norming","","","","","","",""
"18991.91000004066","","","post_mooney1_questions","survey-likert","540","1938213","0.0-6.0-2.76","3728847","co38647","norming","","","{""curiosity"":4,""confidence"":1}","[0,1]","../img/tt/085tt.jpg","",""
"11803.955000010319","","","recognition","survey-text","541","1950020","0.0-6.0-3.76","3728847","co38647","norming","","","{""guess"":""grasshopper""}","","../img/tt/085tt.jpg","",""
"null","../img/gs/085gs.jpg","null","reveal","image-keyboard-response","542","1952023","0.0-6.0-4.76","3728847","co38647","norming","","","","","","",""
"null","../img/tt/085tt.jpg","null","mooney2","image-keyboard-response","543","1954044","0.0-6.0-5.76","3728847","co38647","norming","","","","","","",""
"7045.415000000503","","","post_reveal_questions","survey-likert","544","1961092","0.0-6.0-6.76","3728847","co38647","norming","","","{""aha"":0}","[0]","../img/tt/085tt.jpg","",""
"null","<div style=""font-size:60px;""> </div>","null","fixation","html-keyboard-response","545","1961296","0.0-6.0-0.77","3728847","co38647","norming","","","","","","",""
"null","../img/tt/1043tt.jpg","null","mooney1","image-keyboard-response","546","1964300","0.0-6.0-1.77","3728847","co38647","norming","","","","","","",""
"3549.1599999950267","","","post_mooney1_questions","survey-likert","547","1967853","0.0-6.0-2.77","3728847","co38647","norming","","","{""curiosity"":5,""confidence"":0}","[0,1]","../img/tt/1043tt.jpg","",""
"1219.5899999933317","","","recognition","survey-text","548","1969076","0.0-6.0-3.77","3728847","co38647","norming","","","{""guess"":""""}","","../img/tt/1043tt.jpg","",""
"null","../img/gs/1043gs.jpg","null","reveal","image-keyboard-response","549","1971081","0.0-6.0-4.77","3728847","co38647","norming","","","","","","",""
"null","../img/tt/1043tt.jpg","null","mooney2","image-keyboard-response","550","1973085","0.0-6.0-5.77","3728847","co38647","norming","","","","","","",""
"4972.424999985378","","","post_reveal_questions","survey-likert","551","1978060","0.0-6.0-6.77","3728847","co38647","norming","","","{""aha"":2}","[0]","../img/tt/1043tt.jpg","",""
"null","<div style=""font-size:60px;""> </div>","null","fixation","html-keyboard-response","552","1978265","0.0-6.0-0.78","3728847","co38647","norming","","","","","","",""
