"rt","stimulus","key_press","test_part","trial_type","trial_index","time_elapsed","internal_node_id","totalTime","subject","experiment_name","button_pressed","success","responses","question_order","currentStim","old","correct"
"6127.4000000000015","Welcome to the experiment. This is an online experiment so please don't close the tab/window until we say goodbye.  Press any key to begin.","32","instructions","html-keyboard-response","0","6131","0.0-0.0","3542263","co38155","norming","","","","","","",""
"69384.4","<div style='word-wrap: break-word; width: 900px'><h3>Please consider this information carefully before deciding whether to participate in this research</h3><ul style='text-align: left; font-size: .8em;'><li><b>Purpose of the research</b>: To examine how people process images.</li><li><b>What you will do in this research</b>:  Stimuli (images) will be presented on the computer and you will be asked different questions about them.</li><li><b>Time required</b>: Participation will take between 45 and 60 minutes to complete.</li><li><b>Risks</b>:  There are no anticipated risks associated with participating in this study. The effects of participating should be comparable to those you would experience from viewing a computer monitor for 30 minutes and using a mouse or keyboard.</li><li><b>Benefits</b>:  This study provides no benefits to you individually except for the credit. The study provides important information about the nature of perception and learning.</li><li><b>Confidentiality</b>:  Your participation in this study will remain confidential. No personally identifiable information will be associated with your data. Your de-identified data may be shared with other researchers and used in future projects.</li><li><b>Participation and withdrawal</b>:  Your participation in this study is completely voluntary and you may refuse to participate or you may choose to withdraw at any time without penalty.</li><li><b>How to contact the researchers</b>: If you have questions or concerns about your participation or payment, or want to request a summary of research findings, please contact Sander Van de Cruys (KU Leuven), at sander.vandecruys@kuleuven.be.</li></ul><p>The nature and purpose of this research have been sufficiently explained and I agree to participate in this study.  I understand that I am free to withdraw at any time without incurring any penalty.</p><p>Please consent by clicking the button below to continue. Otherwise, please exit the study at this time.</p></div>","","instructions","html-button-response","1","75518","0.0-1.0","3542263","co38155","norming","0","","","","","",""
"","","","instructions","fullscreen","2","80386","0.0-2.0","3542263","co38155","norming","","true","","","","",""
"43955.29999999999","","","sona","survey-html-form","3","124342","0.0-3.0","3542263","co38155","norming","","","[{""name"":""sonaid"",""value"":""38155""},{""name"":""debrief"",""value"":""yes""},{""name"":""datajoin"",""value"":""yes""}]","","","",""
"95587.4","<div style='word-wrap: break-word; width: 900px'><h3>Instructions</h3><p>This experiment will have 3 parts. In the first part you will see a series of distorted images like the one below on the left. As you can see in the righthand image, the distorted images are derived from actual photographs. In what follows, you will <strong>briefly</strong> be presented with <strong>only</strong> the distorted image.</p> <div style='float: left; margin-right: 20px;'><img src='../img/018tt.jpg' height='250' width='250'></img></div><div style='float: right; margin-left: 20px;'><img src='../img/018gs.jpg' height='250' width='250'></img></div><p>Subsequently you will be asked a few questions about the image: One question on how <strong>curious</strong> you are about the solution and one on how <strong>confident</strong> you are that you know the solution.</p>Next, we ask you to make a guess on what is in the image. Note that it is OK to name just the <strong>basic level category</strong>. For example when you see a parrot in the image, 'parrot' will obviously be a correct answer but also correct is 'bird'. However, 'animal' will <strong>not</strong> be counted as a correct response. For the example above, 'rose' would be correct or 'flower', but not 'plant'. When soccer players are depicted, 'soccer', 'football', 'soccer players' will be correct, but not 'humans', 'outdoors', or 'sports'. You do not need to describe the image in full, just name the main object in it <strong>in one or two words</strong>. All images depict objects from one of the following broad level categories: animals, inanimate objects, plants, sports, vehicles, and food. Recognizing means knowing <strong>more</strong> than these broad labels for a given image. But we always encourage you to <strong>make a guess</strong> if you can. Note that you are allowed to use <strong>Dutch and English</strong> in your answers, whatever comes easiest for you.</p><p>Press any key to continue.</p></div>","32","instructions","html-keyboard-response","4","219933","0.0-4.0","3542263","co38155","norming","","","","","","",""
"18776.5","<div style='word-wrap: break-word; width: 900px'><h3>Instructions</h3> <p>Next, the solution image will be revealed to you and you'll be asked to indicate how strong your <strong>aha-experience</strong> was after seeing the solution. This describes the positive feeling of the 'click' you sometimes experience, when the pieces of the 'puzzle' fall together and you suddenly have 'insight' in the image.</p><img src='aha.jpg' height='188' width='250'></img><p>Note that there are no right or wrong answers. We are interested in what <strong>you</strong> see in the image and how <strong>you</strong> feel about it.</p><p>Press any key to start the experiment.</p></div>","32","instructions","html-keyboard-response","5","238710","0.0-5.0","3542263","co38155","norming","","","","","","",""
"null","<div style=""font-size:60px;""> </div>","null","fixation","html-keyboard-response","6","238915","0.0-6.0-0.0","3542263","co38155","norming","","","","","","",""
"null","../img/tt/590tt.jpg","null","mooney1","image-keyboard-response","7","241932","0.0-6.0-1.0","3542263","co38155","norming","","","","","","",""
"11806.099999999976","","","post_mooney1_questions","survey-likert","8","253741","0.0-6.0-2.0","3542263","co38155","norming","","","{""curiosity"":1,""confidence"":0}","[0,1]","../img/tt/590tt.jpg","",""
"16412.5","","","recognition","survey-text","9","270158","0.0-6.0-3.0","3542263","co38155","norming","","","{""guess"":""voertuig""}","","../img/tt/590tt.jpg","",""
"null","../img/gs/590gs.jpg","null","reveal","image-keyboard-response","10","272168","0.0-6.0-4.0","3542263","co38155","norming","","","","","","",""
"null","../img/tt/590tt.jpg","null","mooney2","image-keyboard-response","11","274166","0.0-6.0-5.0","3542263","co38155","norming","","","","","","",""
"8452.599999999976","","","post_reveal_questions","survey-likert","12","282620","0.0-6.0-6.0","3542263","co38155","norming","","","{""aha"":2}","[0]","../img/tt/590tt.jpg","",""
"null","<div style=""font-size:60px;""> </div>","null","fixation","html-keyboard-response","13","282826","0.0-6.0-0.1","3542263","co38155","norming","","","","","","",""
"null","../img/tt/1353tt.jpg","null","mooney1","image-keyboard-response","14","285835","0.0-6.0-1.1","3542263","co38155","norming","","","","","","",""
"8777.399999999965","","","post_mooney1_questions","survey-likert","15","294614","0.0-6.0-2.1","3542263","co38155","norming","","","{""curiosity"":5,""confidence"":4}","[0,1]","../img/tt/1353tt.jpg","",""
"3314.2999999999883","","","recognition","survey-text","16","297934","0.0-6.0-3.1","3542263","co38155","norming","","","{""guess"":""bloem""}","","../img/tt/1353tt.jpg","",""
"null","../img/gs/1353gs.jpg","null","reveal","image-keyboard-response","17","299949","0.0-6.0-4.1","3542263","co38155","norming","","","","","","",""
"null","../img/tt/1353tt.jpg","null","mooney2","image-keyboard-response","18","301946","0.0-6.0-5.1","3542263","co38155","norming","","","","","","",""
"2399.399999999965","","","post_reveal_questions","survey-likert","19","304348","0.0-6.0-6.1","3542263","co38155","norming","","","{""aha"":2}","[0]","../img/tt/1353tt.jpg","",""
"null","<div style=""font-size:60px;""> </div>","null","fixation","html-keyboard-response","20","304557","0.0-6.0-0.2","3542263","co38155","norming","","","","","","",""
"null","../img/tt/296tt.jpg","null","mooney1","image-keyboard-response","21","307573","0.0-6.0-1.2","3542263","co38155","norming","","","","","","",""
"6883.5","","","post_mooney1_questions","survey-likert","22","314458","0.0-6.0-2.2","3542263","co38155","norming","","","{""curiosity"":1,""confidence"":5}","[0,1]","../img/tt/296tt.jpg","",""
"4950.700000000012","","","recognition","survey-text","23","319415","0.0-6.0-3.2","3542263","co38155","norming","","","{""guess"":""doodskist""}","","../img/tt/296tt.jpg","",""
"null","../img/gs/296gs.jpg","null","reveal","image-keyboard-response","24","321416","0.0-6.0-4.2","3542263","co38155","norming","","","","","","",""
"null","../img/tt/296tt.jpg","null","mooney2","image-keyboard-response","25","323430","0.0-6.0-5.2","3542263","co38155","norming","","","","","","",""
"3603.2999999999883","","","post_reveal_questions","survey-likert","26","327036","0.0-6.0-6.2","3542263","co38155","norming","","","{""aha"":4}","[0]","../img/tt/296tt.jpg","",""
"null","<div style=""font-size:60px;""> </div>","null","fixation","html-keyboard-response","27","327238","0.0-6.0-0.3","3542263","co38155","norming","","","","","","",""
"null","../img/tt/1080tt.jpg","null","mooney1","image-keyboard-response","28","330242","0.0-6.0-1.3","3542263","co38155","norming","","","","","","",""
"5518","","","post_mooney1_questions","survey-likert","29","335762","0.0-6.0-2.3","3542263","co38155","norming","","","{""curiosity"":5,""confidence"":3}","[0,1]","../img/tt/1080tt.jpg","",""
"3005.7999999999883","","","recognition","survey-text","30","338772","0.0-6.0-3.3","3542263","co38155","norming","","","{""guess"":""soldaat""}","","../img/tt/1080tt.jpg","",""
"null","../img/gs/1080gs.jpg","null","reveal","image-keyboard-response","31","340789","0.0-6.0-4.3","3542263","co38155","norming","","","","","","",""
"null","../img/tt/1080tt.jpg","null","mooney2","image-keyboard-response","32","342777","0.0-6.0-5.3","3542263","co38155","norming","","","","","","",""
"3031.8000000000465","","","post_reveal_questions","survey-likert","33","345810","0.0-6.0-6.3","3542263","co38155","norming","","","{""aha"":5}","[0]","../img/tt/1080tt.jpg","",""
"null","<div style=""font-size:60px;""> </div>","null","fixation","html-keyboard-response","34","346020","0.0-6.0-0.4","3542263","co38155","norming","","","","","","",""
"null","../img/tt/306tt.jpg","null","mooney1","image-keyboard-response","35","349023","0.0-6.0-1.4","3542263","co38155","norming","","","","","","",""
"5438.899999999965","","","post_mooney1_questions","survey-likert","36","354463","0.0-6.0-2.4","3542263","co38155","norming","","","{""curiosity"":5,""confidence"":0}","[0,1]","../img/tt/306tt.jpg","",""
"3501.5999999999767","","","recognition","survey-text","37","357971","0.0-6.0-3.4","3542263","co38155","norming","","","{""guess"":""konijn""}","","../img/tt/306tt.jpg","",""
"null","../img/gs/306gs.jpg","null","reveal","image-keyboard-response","38","359986","0.0-6.0-4.4","3542263","co38155","norming","","","","","","",""
"null","../img/tt/306tt.jpg","null","mooney2","image-keyboard-response","39","361974","0.0-6.0-5.4","3542263","co38155","norming","","","","","","",""
"4584.400000000023","","","post_reveal_questions","survey-likert","40","366559","0.0-6.0-6.4","3542263","co38155","norming","","","{""aha"":5}","[0]","../img/tt/306tt.jpg","",""
"null","<div style=""font-size:60px;""> </div>","null","fixation","html-keyboard-response","41","366762","0.0-6.0-0.5","3542263","co38155","norming","","","","","","",""
"null","../img/tt/1171tt.jpg","null","mooney1","image-keyboard-response","42","369772","0.0-6.0-1.5","3542263","co38155","norming","","","","","","",""
"6850.099999999977","","","post_mooney1_questions","survey-likert","43","376624","0.0-6.0-2.5","3542263","co38155","norming","","","{""curiosity"":5,""confidence"":1}","[0,1]","../img/tt/1171tt.jpg","",""
"5595.599999999977","","","recognition","survey-text","44","382226","0.0-6.0-3.5","3542263","co38155","norming","","","{""guess"":""kat""}","","../img/tt/1171tt.jpg","",""
"null","../img/gs/1171gs.jpg","null","reveal","image-keyboard-response","45","384240","0.0-6.0-4.5","3542263","co38155","norming","","","","","","",""
"null","../img/tt/1171tt.jpg","null","mooney2","image-keyboard-response","46","386238","0.0-6.0-5.5","3542263","co38155","norming","","","","","","",""
"4095.600000000035","","","post_reveal_questions","survey-likert","47","390335","0.0-6.0-6.5","3542263","co38155","norming","","","{""aha"":6}","[0]","../img/tt/1171tt.jpg","",""
"null","<div style=""font-size:60px;""> </div>","null","fixation","html-keyboard-response","48","390544","0.0-6.0-0.6","3542263","co38155","norming","","","","","","",""
"null","../img/tt/079tt.jpg","null","mooney1","image-keyboard-response","49","393547","0.0-6.0-1.6","3542263","co38155","norming","","","","","","",""
"8779.399999999965","","","post_mooney1_questions","survey-likert","50","402328","0.0-6.0-2.6","3542263","co38155","norming","","","{""curiosity"":1,""confidence"":6}","[0,1]","../img/tt/079tt.jpg","",""
"4512.899999999965","","","recognition","survey-text","51","406846","0.0-6.0-3.6","3542263","co38155","norming","","","{""guess"":""bruine beer""}","","../img/tt/079tt.jpg","",""
"null","../img/gs/079gs.jpg","null","reveal","image-keyboard-response","52","408862","0.0-6.0-4.6","3542263","co38155","norming","","","","","","",""
"null","../img/tt/079tt.jpg","null","mooney2","image-keyboard-response","53","410863","0.0-6.0-5.6","3542263","co38155","norming","","","","","","",""
"6185.099999999977","","","post_reveal_questions","survey-likert","54","417049","0.0-6.0-6.6","3542263","co38155","norming","","","{""aha"":0}","[0]","../img/tt/079tt.jpg","",""
"null","<div style=""font-size:60px;""> </div>","null","fixation","html-keyboard-response","55","417259","0.0-6.0-0.7","3542263","co38155","norming","","","","","","",""
"null","../img/tt/507tt.jpg","null","mooney1","image-keyboard-response","56","420261","0.0-6.0-1.7","3542263","co38155","norming","","","","","","",""
"5999.200000000012","","","post_mooney1_questions","survey-likert","57","426262","0.0-6.0-2.7","3542263","co38155","norming","","","{""curiosity"":5,""confidence"":1}","[0,1]","../img/tt/507tt.jpg","",""
"1790.7999999999883","","","recognition","survey-text","58","428058","0.0-6.0-3.7","3542263","co38155","norming","","","{""guess"":""kerk""}","","../img/tt/507tt.jpg","",""
"null","../img/gs/507gs.jpg","null","reveal","image-keyboard-response","59","430069","0.0-6.0-4.7","3542263","co38155","norming","","","","","","",""
"null","../img/tt/507tt.jpg","null","mooney2","image-keyboard-response","60","432070","0.0-6.0-5.7","3542263","co38155","norming","","","","","","",""
"3433.5","","","post_reveal_questions","survey-likert","61","435505","0.0-6.0-6.7","3542263","co38155","norming","","","{""aha"":5}","[0]","../img/tt/507tt.jpg","",""
"null","<div style=""font-size:60px;""> </div>","null","fixation","html-keyboard-response","62","435708","0.0-6.0-0.8","3542263","co38155","norming","","","","","","",""
"null","../img/tt/1156tt.jpg","null","mooney1","image-keyboard-response","63","438721","0.0-6.0-1.8","3542263","co38155","norming","","","","","","",""
"6505.699999999953","","","post_mooney1_questions","survey-likert","64","445227","0.0-6.0-2.8","3542263","co38155","norming","","","{""curiosity"":2,""confidence"":1}","[0,1]","../img/tt/1156tt.jpg","",""
"7596.100000000035","","","recognition","survey-text","65","452828","0.0-6.0-3.8","3542263","co38155","norming","","","{""guess"":""wolf""}","","../img/tt/1156tt.jpg","",""
"null","../img/gs/1156gs.jpg","null","reveal","image-keyboard-response","66","454843","0.0-6.0-4.8","3542263","co38155","norming","","","","","","",""
"null","../img/tt/1156tt.jpg","null","mooney2","image-keyboard-response","67","456845","0.0-6.0-5.8","3542263","co38155","norming","","","","","","",""
"4576.399999999965","","","post_reveal_questions","survey-likert","68","461424","0.0-6.0-6.8","3542263","co38155","norming","","","{""aha"":5}","[0]","../img/tt/1156tt.jpg","",""
"null","<div style=""font-size:60px;""> </div>","null","fixation","html-keyboard-response","69","461638","0.0-6.0-0.9","3542263","co38155","norming","","","","","","",""
"null","../img/tt/318tt.jpg","null","mooney1","image-keyboard-response","70","464647","0.0-6.0-1.9","3542263","co38155","norming","","","","","","",""
"6033.800000000047","","","post_mooney1_questions","survey-likert","71","470683","0.0-6.0-2.9","3542263","co38155","norming","","","{""curiosity"":1,""confidence"":1}","[0,1]","../img/tt/318tt.jpg","",""
"9000.599999999976","","","recognition","survey-text","72","479688","0.0-6.0-3.9","3542263","co38155","norming","","","{""guess"":""auto""}","","../img/tt/318tt.jpg","",""
"null","../img/gs/318gs.jpg","null","reveal","image-keyboard-response","73","481705","0.0-6.0-4.9","3542263","co38155","norming","","","","","","",""
"null","../img/tt/318tt.jpg","null","mooney2","image-keyboard-response","74","483689","0.0-6.0-5.9","3542263","co38155","norming","","","","","","",""
"2436.5","","","post_reveal_questions","survey-likert","75","486127","0.0-6.0-6.9","3542263","co38155","norming","","","{""aha"":0}","[0]","../img/tt/318tt.jpg","",""
"null","<div style=""font-size:60px;""> </div>","null","fixation","html-keyboard-response","76","486337","0.0-6.0-0.10","3542263","co38155","norming","","","","","","",""
"null","../img/tt/1239tt.jpg","null","mooney1","image-keyboard-response","77","489350","0.0-6.0-1.10","3542263","co38155","norming","","","","","","",""
"5199.299999999988","","","post_mooney1_questions","survey-likert","78","494551","0.0-6.0-2.10","3542263","co38155","norming","","","{""curiosity"":1,""confidence"":1}","[0,1]","../img/tt/1239tt.jpg","",""
"2829.100000000035","","","recognition","survey-text","79","497386","0.0-6.0-3.10","3542263","co38155","norming","","","{""guess"":""""}","","../img/tt/1239tt.jpg","",""
"null","../img/gs/1239gs.jpg","null","reveal","image-keyboard-response","80","499401","0.0-6.0-4.10","3542263","co38155","norming","","","","","","",""
"null","../img/tt/1239tt.jpg","null","mooney2","image-keyboard-response","81","501394","0.0-6.0-5.10","3542263","co38155","norming","","","","","","",""
"2691.5999999999767","","","post_reveal_questions","survey-likert","82","504087","0.0-6.0-6.10","3542263","co38155","norming","","","{""aha"":5}","[0]","../img/tt/1239tt.jpg","",""
"null","<div style=""font-size:60px;""> </div>","null","fixation","html-keyboard-response","83","504288","0.0-6.0-0.11","3542263","co38155","norming","","","","","","",""
"null","../img/tt/1046tt.jpg","null","mooney1","image-keyboard-response","84","507300","0.0-6.0-1.11","3542263","co38155","norming","","","","","","",""
"7711.400000000023","","","post_mooney1_questions","survey-likert","85","515014","0.0-6.0-2.11","3542263","co38155","norming","","","{""curiosity"":1,""confidence"":4}","[0,1]","../img/tt/1046tt.jpg","",""
"5067.5","","","recognition","survey-text","86","520088","0.0-6.0-3.11","3542263","co38155","norming","","","{""guess"":""bord eten""}","","../img/tt/1046tt.jpg","",""
"null","../img/gs/1046gs.jpg","null","reveal","image-keyboard-response","87","522102","0.0-6.0-4.11","3542263","co38155","norming","","","","","","",""
"null","../img/tt/1046tt.jpg","null","mooney2","image-keyboard-response","88","524103","0.0-6.0-5.11","3542263","co38155","norming","","","","","","",""
"3702.4000000000233","","","post_reveal_questions","survey-likert","89","527807","0.0-6.0-6.11","3542263","co38155","norming","","","{""aha"":1}","[0]","../img/tt/1046tt.jpg","",""
"null","<div style=""font-size:60px;""> </div>","null","fixation","html-keyboard-response","90","528017","0.0-6.0-0.12","3542263","co38155","norming","","","","","","",""
"null","../img/tt/497tt.jpg","null","mooney1","image-keyboard-response","91","531026","0.0-6.0-1.12","3542263","co38155","norming","","","","","","",""
"6571.900000000023","","","post_mooney1_questions","survey-likert","92","537600","0.0-6.0-2.12","3542263","co38155","norming","","","{""curiosity"":1,""confidence"":3}","[0,1]","../img/tt/497tt.jpg","",""
"3167.0999999999767","","","recognition","survey-text","93","540773","0.0-6.0-3.12","3542263","co38155","norming","","","{""guess"":""kaas""}","","../img/tt/497tt.jpg","",""
"null","../img/gs/497gs.jpg","null","reveal","image-keyboard-response","94","542787","0.0-6.0-4.12","3542263","co38155","norming","","","","","","",""
"null","../img/tt/497tt.jpg","null","mooney2","image-keyboard-response","95","544772","0.0-6.0-5.12","3542263","co38155","norming","","","","","","",""
"4719.400000000023","","","post_reveal_questions","survey-likert","96","549493","0.0-6.0-6.12","3542263","co38155","norming","","","{""aha"":1}","[0]","../img/tt/497tt.jpg","",""
"null","<div style=""font-size:60px;""> </div>","null","fixation","html-keyboard-response","97","549704","0.0-6.0-0.13","3542263","co38155","norming","","","","","","",""
"null","../img/tt/549tt.jpg","null","mooney1","image-keyboard-response","98","552710","0.0-6.0-1.13","3542263","co38155","norming","","","","","","",""
"5283.5","","","post_mooney1_questions","survey-likert","99","557996","0.0-6.0-2.13","3542263","co38155","norming","","","{""curiosity"":1,""confidence"":1}","[0,1]","../img/tt/549tt.jpg","",""
"2285.0999999999767","","","recognition","survey-text","100","560286","0.0-6.0-3.13","3542263","co38155","norming","","","{""guess"":""kikker""}","","../img/tt/549tt.jpg","",""
"null","../img/gs/549gs.jpg","null","reveal","image-keyboard-response","101","562301","0.0-6.0-4.13","3542263","co38155","norming","","","","","","",""
"null","../img/tt/549tt.jpg","null","mooney2","image-keyboard-response","102","564295","0.0-6.0-5.13","3542263","co38155","norming","","","","","","",""
"3088.1999999999534","","","post_reveal_questions","survey-likert","103","567385","0.0-6.0-6.13","3542263","co38155","norming","","","{""aha"":4}","[0]","../img/tt/549tt.jpg","",""
"null","<div style=""font-size:60px;""> </div>","null","fixation","html-keyboard-response","104","567596","0.0-6.0-0.14","3542263","co38155","norming","","","","","","",""
"null","../img/tt/1235tt.jpg","null","mooney1","image-keyboard-response","105","570604","0.0-6.0-1.14","3542263","co38155","norming","","","","","","",""
"4847.70000000007","","","post_mooney1_questions","survey-likert","106","575453","0.0-6.0-2.14","3542263","co38155","norming","","","{""curiosity"":1,""confidence"":6}","[0,1]","../img/tt/1235tt.jpg","",""
"3416.5","","","recognition","survey-text","107","578874","0.0-6.0-3.14","3542263","co38155","norming","","","{""guess"":""kippen""}","","../img/tt/1235tt.jpg","",""
"null","../img/gs/1235gs.jpg","null","reveal","image-keyboard-response","108","580887","0.0-6.0-4.14","3542263","co38155","norming","","","","","","",""
"null","../img/tt/1235tt.jpg","null","mooney2","image-keyboard-response","109","582875","0.0-6.0-5.14","3542263","co38155","norming","","","","","","",""
"4736.300000000047","","","post_reveal_questions","survey-likert","110","587612","0.0-6.0-6.14","3542263","co38155","norming","","","{""aha"":5}","[0]","../img/tt/1235tt.jpg","",""
"null","<div style=""font-size:60px;""> </div>","null","fixation","html-keyboard-response","111","587818","0.0-6.0-0.15","3542263","co38155","norming","","","","","","",""
"null","../img/tt/222tt.jpg","null","mooney1","image-keyboard-response","112","590825","0.0-6.0-1.15","3542263","co38155","norming","","","","","","",""
"7111.600000000093","","","post_mooney1_questions","survey-likert","113","597939","0.0-6.0-2.15","3542263","co38155","norming","","","{""curiosity"":4,""confidence"":2}","[0,1]","../img/tt/222tt.jpg","",""
"2786.8000000000465","","","recognition","survey-text","114","600731","0.0-6.0-3.15","3542263","co38155","norming","","","{""guess"":""boot""}","","../img/tt/222tt.jpg","",""
"null","../img/gs/222gs.jpg","null","reveal","image-keyboard-response","115","602745","0.0-6.0-4.15","3542263","co38155","norming","","","","","","",""
"null","../img/tt/222tt.jpg","null","mooney2","image-keyboard-response","116","604737","0.0-6.0-5.15","3542263","co38155","norming","","","","","","",""
"3252","","","post_reveal_questions","survey-likert","117","607991","0.0-6.0-6.15","3542263","co38155","norming","","","{""aha"":5}","[0]","../img/tt/222tt.jpg","",""
"null","<div style=""font-size:60px;""> </div>","null","fixation","html-keyboard-response","118","608194","0.0-6.0-0.16","3542263","co38155","norming","","","","","","",""
"null","../img/tt/098tt.jpg","null","mooney1","image-keyboard-response","119","611200","0.0-6.0-1.16","3542263","co38155","norming","","","","","","",""
"4393.800000000047","","","post_mooney1_questions","survey-likert","120","615596","0.0-6.0-2.16","3542263","co38155","norming","","","{""curiosity"":1,""confidence"":0}","[0,1]","../img/tt/098tt.jpg","",""
"898.0999999999767","","","recognition","survey-text","121","616499","0.0-6.0-3.16","3542263","co38155","norming","","","{""guess"":""""}","","../img/tt/098tt.jpg","",""
"null","../img/gs/098gs.jpg","null","reveal","image-keyboard-response","122","618504","0.0-6.0-4.16","3542263","co38155","norming","","","","","","",""
"null","../img/tt/098tt.jpg","null","mooney2","image-keyboard-response","123","620511","0.0-6.0-5.16","3542263","co38155","norming","","","","","","",""
"2062.0999999999767","","","post_reveal_questions","survey-likert","124","622575","0.0-6.0-6.16","3542263","co38155","norming","","","{""aha"":0}","[0]","../img/tt/098tt.jpg","",""
"null","<div style=""font-size:60px;""> </div>","null","fixation","html-keyboard-response","125","622786","0.0-6.0-0.17","3542263","co38155","norming","","","","","","",""
"null","../img/tt/163tt.jpg","null","mooney1","image-keyboard-response","126","625791","0.0-6.0-1.17","3542263","co38155","norming","","","","","","",""
"5298.400000000023","","","post_mooney1_questions","survey-likert","127","631091","0.0-6.0-2.17","3542263","co38155","norming","","","{""curiosity"":2,""confidence"":1}","[0,1]","../img/tt/163tt.jpg","",""
"8084.600000000093","","","recognition","survey-text","128","639181","0.0-6.0-3.17","3542263","co38155","norming","","","{""guess"":""knie""}","","../img/tt/163tt.jpg","",""
"null","../img/gs/163gs.jpg","null","reveal","image-keyboard-response","129","641196","0.0-6.0-4.17","3542263","co38155","norming","","","","","","",""
"null","../img/tt/163tt.jpg","null","mooney2","image-keyboard-response","130","643197","0.0-6.0-5.17","3542263","co38155","norming","","","","","","",""
"4604.599999999977","","","post_reveal_questions","survey-likert","131","647803","0.0-6.0-6.17","3542263","co38155","norming","","","{""aha"":5}","[0]","../img/tt/163tt.jpg","",""
"null","<div style=""font-size:60px;""> </div>","null","fixation","html-keyboard-response","132","648006","0.0-6.0-0.18","3542263","co38155","norming","","","","","","",""
"null","../img/tt/1211tt.jpg","null","mooney1","image-keyboard-response","133","651020","0.0-6.0-1.18","3542263","co38155","norming","","","","","","",""
"5848.099999999977","","","post_mooney1_questions","survey-likert","134","656869","0.0-6.0-2.18","3542263","co38155","norming","","","{""curiosity"":4,""confidence"":2}","[0,1]","../img/tt/1211tt.jpg","",""
"5974.600000000093","","","recognition","survey-text","135","662850","0.0-6.0-3.18","3542263","co38155","norming","","","{""guess"":""vijver""}","","../img/tt/1211tt.jpg","",""
"null","../img/gs/1211gs.jpg","null","reveal","image-keyboard-response","136","664862","0.0-6.0-4.18","3542263","co38155","norming","","","","","","",""
"null","../img/tt/1211tt.jpg","null","mooney2","image-keyboard-response","137","666855","0.0-6.0-5.18","3542263","co38155","norming","","","","","","",""
"2559.600000000093","","","post_reveal_questions","survey-likert","138","669415","0.0-6.0-6.18","3542263","co38155","norming","","","{""aha"":5}","[0]","../img/tt/1211tt.jpg","",""
"null","<div style=""font-size:60px;""> </div>","null","fixation","html-keyboard-response","139","669617","0.0-6.0-0.19","3542263","co38155","norming","","","","","","",""
"null","../img/tt/1012tt.jpg","null","mooney1","image-keyboard-response","140","672633","0.0-6.0-1.19","3542263","co38155","norming","","","","","","",""
"3902.8000000000465","","","post_mooney1_questions","survey-likert","141","676538","0.0-6.0-2.19","3542263","co38155","norming","","","{""curiosity"":3,""confidence"":1}","[0,1]","../img/tt/1012tt.jpg","",""
"5018.599999999977","","","recognition","survey-text","142","681561","0.0-6.0-3.19","3542263","co38155","norming","","","{""guess"":""auto""}","","../img/tt/1012tt.jpg","",""
"null","../img/gs/1012gs.jpg","null","reveal","image-keyboard-response","143","683573","0.0-6.0-4.19","3542263","co38155","norming","","","","","","",""
"null","../img/tt/1012tt.jpg","null","mooney2","image-keyboard-response","144","685573","0.0-6.0-5.19","3542263","co38155","norming","","","","","","",""
"1949.2999999999301","","","post_reveal_questions","survey-likert","145","687524","0.0-6.0-6.19","3542263","co38155","norming","","","{""aha"":5}","[0]","../img/tt/1012tt.jpg","",""
"null","<div style=""font-size:60px;""> </div>","null","fixation","html-keyboard-response","146","687728","0.0-6.0-0.20","3542263","co38155","norming","","","","","","",""
"null","../img/tt/1033tt.jpg","null","mooney1","image-keyboard-response","147","690757","0.0-6.0-1.20","3542263","co38155","norming","","","","","","",""
"9828","","","post_mooney1_questions","survey-likert","148","700587","0.0-6.0-2.20","3542263","co38155","norming","","","{""curiosity"":4,""confidence"":2}","[0,1]","../img/tt/1033tt.jpg","",""
"6607","","","recognition","survey-text","149","707199","0.0-6.0-3.20","3542263","co38155","norming","","","{""guess"":""paardrijder ""}","","../img/tt/1033tt.jpg","",""
"null","../img/gs/1033gs.jpg","null","reveal","image-keyboard-response","150","709199","0.0-6.0-4.20","3542263","co38155","norming","","","","","","",""
"null","../img/tt/1033tt.jpg","null","mooney2","image-keyboard-response","151","711203","0.0-6.0-5.20","3542263","co38155","norming","","","","","","",""
"2496","","","post_reveal_questions","survey-likert","152","713701","0.0-6.0-6.20","3542263","co38155","norming","","","{""aha"":5}","[0]","../img/tt/1033tt.jpg","",""
"null","<div style=""font-size:60px;""> </div>","null","fixation","html-keyboard-response","153","713918","0.0-6.0-0.21","3542263","co38155","norming","","","","","","",""
"null","../img/tt/1061tt.jpg","null","mooney1","image-keyboard-response","154","716928","0.0-6.0-1.21","3542263","co38155","norming","","","","","","",""
"14164.599999999976","","","post_mooney1_questions","survey-likert","155","731095","0.0-6.0-2.21","3542263","co38155","norming","","","{""curiosity"":2,""confidence"":4}","[0,1]","../img/tt/1061tt.jpg","",""
"9835.29999999993","","","recognition","survey-text","156","740934","0.0-6.0-3.21","3542263","co38155","norming","","","{""guess"":""sport in park""}","","../img/tt/1061tt.jpg","",""
"null","../img/gs/1061gs.jpg","null","reveal","image-keyboard-response","157","742950","0.0-6.0-4.21","3542263","co38155","norming","","","","","","",""
"null","../img/tt/1061tt.jpg","null","mooney2","image-keyboard-response","158","744949","0.0-6.0-5.21","3542263","co38155","norming","","","","","","",""
"4274.699999999953","","","post_reveal_questions","survey-likert","159","749225","0.0-6.0-6.21","3542263","co38155","norming","","","{""aha"":0}","[0]","../img/tt/1061tt.jpg","",""
"null","<div style=""font-size:60px;""> </div>","null","fixation","html-keyboard-response","160","749427","0.0-6.0-0.22","3542263","co38155","norming","","","","","","",""
"null","../img/tt/1116tt.jpg","null","mooney1","image-keyboard-response","161","752442","0.0-6.0-1.22","3542263","co38155","norming","","","","","","",""
"4605.099999999977","","","post_mooney1_questions","survey-likert","162","757049","0.0-6.0-2.22","3542263","co38155","norming","","","{""curiosity"":1,""confidence"":6}","[0,1]","../img/tt/1116tt.jpg","",""
"4202.400000000023","","","recognition","survey-text","163","761256","0.0-6.0-3.22","3542263","co38155","norming","","","{""guess"":""vliegtuig""}","","../img/tt/1116tt.jpg","",""
"null","../img/gs/1116gs.jpg","null","reveal","image-keyboard-response","164","763272","0.0-6.0-4.22","3542263","co38155","norming","","","","","","",""
"null","../img/tt/1116tt.jpg","null","mooney2","image-keyboard-response","165","765267","0.0-6.0-5.22","3542263","co38155","norming","","","","","","",""
"1980.3999999999068","","","post_reveal_questions","survey-likert","166","767249","0.0-6.0-6.22","3542263","co38155","norming","","","{""aha"":0}","[0]","../img/tt/1116tt.jpg","",""
"null","<div style=""font-size:60px;""> </div>","null","fixation","html-keyboard-response","167","767452","0.0-6.0-0.23","3542263","co38155","norming","","","","","","",""
"null","../img/tt/1234tt.jpg","null","mooney1","image-keyboard-response","168","770464","0.0-6.0-1.23","3542263","co38155","norming","","","","","","",""
"7257.099999999977","","","post_mooney1_questions","survey-likert","169","777723","0.0-6.0-2.23","3542263","co38155","norming","","","{""curiosity"":1,""confidence"":3}","[0,1]","../img/tt/1234tt.jpg","",""
"3053.6999999999534","","","recognition","survey-text","170","780783","0.0-6.0-3.23","3542263","co38155","norming","","","{""guess"":""rots""}","","../img/tt/1234tt.jpg","",""
"null","../img/gs/1234gs.jpg","null","reveal","image-keyboard-response","171","782796","0.0-6.0-4.23","3542263","co38155","norming","","","","","","",""
"null","../img/tt/1234tt.jpg","null","mooney2","image-keyboard-response","172","784795","0.0-6.0-5.23","3542263","co38155","norming","","","","","","",""
"2914.20000000007","","","post_reveal_questions","survey-likert","173","787711","0.0-6.0-6.23","3542263","co38155","norming","","","{""aha"":5}","[0]","../img/tt/1234tt.jpg","",""
"null","<div style=""font-size:60px;""> </div>","null","fixation","html-keyboard-response","174","787920","0.0-6.0-0.24","3542263","co38155","norming","","","","","","",""
"null","../img/tt/1173tt.jpg","null","mooney1","image-keyboard-response","175","790931","0.0-6.0-1.24","3542263","co38155","norming","","","","","","",""
"4006.8000000000465","","","post_mooney1_questions","survey-likert","176","794941","0.0-6.0-2.24","3542263","co38155","norming","","","{""curiosity"":1,""confidence"":6}","[0,1]","../img/tt/1173tt.jpg","",""
"4608.900000000023","","","recognition","survey-text","177","799555","0.0-6.0-3.24","3542263","co38155","norming","","","{""guess"":""hockey""}","","../img/tt/1173tt.jpg","",""
"null","../img/gs/1173gs.jpg","null","reveal","image-keyboard-response","178","801571","0.0-6.0-4.24","3542263","co38155","norming","","","","","","",""
"null","../img/tt/1173tt.jpg","null","mooney2","image-keyboard-response","179","803564","0.0-6.0-5.24","3542263","co38155","norming","","","","","","",""
"1974.6999999999534","","","post_reveal_questions","survey-likert","180","805540","0.0-6.0-6.24","3542263","co38155","norming","","","{""aha"":0}","[0]","../img/tt/1173tt.jpg","",""
"null","<div style=""font-size:60px;""> </div>","null","fixation","html-keyboard-response","181","805752","0.0-6.0-0.25","3542263","co38155","norming","","","","","","",""
"null","../img/tt/358tt.jpg","null","mooney1","image-keyboard-response","182","808766","0.0-6.0-1.25","3542263","co38155","norming","","","","","","",""
"6380.599999999977","","","post_mooney1_questions","survey-likert","183","815149","0.0-6.0-2.25","3542263","co38155","norming","","","{""curiosity"":5,""confidence"":1}","[0,1]","../img/tt/358tt.jpg","",""
"2264.5999999999767","","","recognition","survey-text","184","817418","0.0-6.0-3.25","3542263","co38155","norming","","","{""guess"":""eend""}","","../img/tt/358tt.jpg","",""
"null","../img/gs/358gs.jpg","null","reveal","image-keyboard-response","185","819433","0.0-6.0-4.25","3542263","co38155","norming","","","","","","",""
"null","../img/tt/358tt.jpg","null","mooney2","image-keyboard-response","186","821425","0.0-6.0-5.25","3542263","co38155","norming","","","","","","",""
"2095.3000000000465","","","post_reveal_questions","survey-likert","187","823523","0.0-6.0-6.25","3542263","co38155","norming","","","{""aha"":5}","[0]","../img/tt/358tt.jpg","",""
"null","<div style=""font-size:60px;""> </div>","null","fixation","html-keyboard-response","188","823725","0.0-6.0-0.26","3542263","co38155","norming","","","","","","",""
"null","../img/tt/055tt.jpg","null","mooney1","image-keyboard-response","189","826729","0.0-6.0-1.26","3542263","co38155","norming","","","","","","",""
"4237.400000000023","","","post_mooney1_questions","survey-likert","190","830968","0.0-6.0-2.26","3542263","co38155","norming","","","{""curiosity"":1,""confidence"":6}","[0,1]","../img/tt/055tt.jpg","",""
"10248","","","recognition","survey-text","191","841221","0.0-6.0-3.26","3542263","co38155","norming","","","{""guess"":""paardenzadel""}","","../img/tt/055tt.jpg","",""
"null","../img/gs/055gs.jpg","null","reveal","image-keyboard-response","192","843235","0.0-6.0-4.26","3542263","co38155","norming","","","","","","",""
"null","../img/tt/055tt.jpg","null","mooney2","image-keyboard-response","193","845228","0.0-6.0-5.26","3542263","co38155","norming","","","","","","",""
"4260.70000000007","","","post_reveal_questions","survey-likert","194","849490","0.0-6.0-6.26","3542263","co38155","norming","","","{""aha"":0}","[0]","../img/tt/055tt.jpg","",""
"null","<div style=""font-size:60px;""> </div>","null","fixation","html-keyboard-response","195","849693","0.0-6.0-0.27","3542263","co38155","norming","","","","","","",""
"null","../img/tt/1070tt.jpg","null","mooney1","image-keyboard-response","196","852694","0.0-6.0-1.27","3542263","co38155","norming","","","","","","",""
"4355.5","","","post_mooney1_questions","survey-likert","197","857051","0.0-6.0-2.27","3542263","co38155","norming","","","{""curiosity"":0,""confidence"":5}","[0,1]","../img/tt/1070tt.jpg","",""
"2299.1999999999534","","","recognition","survey-text","198","859355","0.0-6.0-3.27","3542263","co38155","norming","","","{""guess"":""taart""}","","../img/tt/1070tt.jpg","",""
"null","../img/gs/1070gs.jpg","null","reveal","image-keyboard-response","199","861370","0.0-6.0-4.27","3542263","co38155","norming","","","","","","",""
"null","../img/tt/1070tt.jpg","null","mooney2","image-keyboard-response","200","863370","0.0-6.0-5.27","3542263","co38155","norming","","","","","","",""
"2611.1999999999534","","","post_reveal_questions","survey-likert","201","865983","0.0-6.0-6.27","3542263","co38155","norming","","","{""aha"":0}","[0]","../img/tt/1070tt.jpg","",""
"null","<div style=""font-size:60px;""> </div>","null","fixation","html-keyboard-response","202","866199","0.0-6.0-0.28","3542263","co38155","norming","","","","","","",""
"null","../img/tt/007tt.jpg","null","mooney1","image-keyboard-response","203","869204","0.0-6.0-1.28","3542263","co38155","norming","","","","","","",""
"13173.20000000007","","","post_mooney1_questions","survey-likert","204","882379","0.0-6.0-2.28","3542263","co38155","norming","","","{""curiosity"":5,""confidence"":3}","[0,1]","../img/tt/007tt.jpg","",""
"2766.3000000000465","","","recognition","survey-text","205","885150","0.0-6.0-3.28","3542263","co38155","norming","","","{""guess"":""olifant""}","","../img/tt/007tt.jpg","",""
"null","../img/gs/007gs.jpg","null","reveal","image-keyboard-response","206","887165","0.0-6.0-4.28","3542263","co38155","norming","","","","","","",""
"null","../img/tt/007tt.jpg","null","mooney2","image-keyboard-response","207","889153","0.0-6.0-5.28","3542263","co38155","norming","","","","","","",""
"2580.3000000000465","","","post_reveal_questions","survey-likert","208","891735","0.0-6.0-6.28","3542263","co38155","norming","","","{""aha"":6}","[0]","../img/tt/007tt.jpg","",""
"null","<div style=""font-size:60px;""> </div>","null","fixation","html-keyboard-response","209","891945","0.0-6.0-0.29","3542263","co38155","norming","","","","","","",""
"null","../img/tt/1154tt.jpg","null","mooney1","image-keyboard-response","210","894947","0.0-6.0-1.29","3542263","co38155","norming","","","","","","",""
"4680.699999999953","","","post_mooney1_questions","survey-likert","211","899629","0.0-6.0-2.29","3542263","co38155","norming","","","{""curiosity"":1,""confidence"":5}","[0,1]","../img/tt/1154tt.jpg","",""
"21177.099999999976","","","recognition","survey-text","212","920811","0.0-6.0-3.29","3542263","co38155","norming","","","{""guess"":""kayakers""}","","../img/tt/1154tt.jpg","",""
"null","../img/gs/1154gs.jpg","null","reveal","image-keyboard-response","213","922821","0.0-6.0-4.29","3542263","co38155","norming","","","","","","",""
"null","../img/tt/1154tt.jpg","null","mooney2","image-keyboard-response","214","924820","0.0-6.0-5.29","3542263","co38155","norming","","","","","","",""
"1643.3000000000465","","","post_reveal_questions","survey-likert","215","926465","0.0-6.0-6.29","3542263","co38155","norming","","","{""aha"":0}","[0]","../img/tt/1154tt.jpg","",""
"null","<div style=""font-size:60px;""> </div>","null","fixation","html-keyboard-response","216","926682","0.0-6.0-0.30","3542263","co38155","norming","","","","","","",""
"null","../img/tt/1251tt.jpg","null","mooney1","image-keyboard-response","217","929687","0.0-6.0-1.30","3542263","co38155","norming","","","","","","",""
"4084.399999999907","","","post_mooney1_questions","survey-likert","218","933773","0.0-6.0-2.30","3542263","co38155","norming","","","{""curiosity"":1,""confidence"":5}","[0,1]","../img/tt/1251tt.jpg","",""
"2820","","","recognition","survey-text","219","936598","0.0-6.0-3.30","3542263","co38155","norming","","","{""guess"":""beer""}","","../img/tt/1251tt.jpg","",""
"null","../img/gs/1251gs.jpg","null","reveal","image-keyboard-response","220","938615","0.0-6.0-4.30","3542263","co38155","norming","","","","","","",""
"null","../img/tt/1251tt.jpg","null","mooney2","image-keyboard-response","221","940601","0.0-6.0-5.30","3542263","co38155","norming","","","","","","",""
"3642.79999999993","","","post_reveal_questions","survey-likert","222","944246","0.0-6.0-6.30","3542263","co38155","norming","","","{""aha"":1}","[0]","../img/tt/1251tt.jpg","",""
"null","<div style=""font-size:60px;""> </div>","null","fixation","html-keyboard-response","223","944451","0.0-6.0-0.31","3542263","co38155","norming","","","","","","",""
"null","../img/tt/1118tt.jpg","null","mooney1","image-keyboard-response","224","947462","0.0-6.0-1.31","3542263","co38155","norming","","","","","","",""
"5154","","","post_mooney1_questions","survey-likert","225","952619","0.0-6.0-2.31","3542263","co38155","norming","","","{""curiosity"":4,""confidence"":2}","[0,1]","../img/tt/1118tt.jpg","",""
"2193.5","","","recognition","survey-text","226","954818","0.0-6.0-3.31","3542263","co38155","norming","","","{""guess"":""geit""}","","../img/tt/1118tt.jpg","",""
"null","../img/gs/1118gs.jpg","null","reveal","image-keyboard-response","227","956827","0.0-6.0-4.31","3542263","co38155","norming","","","","","","",""
"null","../img/tt/1118tt.jpg","null","mooney2","image-keyboard-response","228","958827","0.0-6.0-5.31","3542263","co38155","norming","","","","","","",""
"4256.20000000007","","","post_reveal_questions","survey-likert","229","963084","0.0-6.0-6.31","3542263","co38155","norming","","","{""aha"":3}","[0]","../img/tt/1118tt.jpg","",""
"null","<div style=""font-size:60px;""> </div>","null","fixation","html-keyboard-response","230","963291","0.0-6.0-0.32","3542263","co38155","norming","","","","","","",""
"null","../img/tt/036tt.jpg","null","mooney1","image-keyboard-response","231","966291","0.0-6.0-1.32","3542263","co38155","norming","","","","","","",""
"12890.5","","","post_mooney1_questions","survey-likert","232","979182","0.0-6.0-2.32","3542263","co38155","norming","","","{""curiosity"":6,""confidence"":1}","[0,1]","../img/tt/036tt.jpg","",""
"2893.4000000000233","","","recognition","survey-text","233","982081","0.0-6.0-3.32","3542263","co38155","norming","","","{""guess"":""bladeren""}","","../img/tt/036tt.jpg","",""
"null","../img/gs/036gs.jpg","null","reveal","image-keyboard-response","234","984096","0.0-6.0-4.32","3542263","co38155","norming","","","","","","",""
"null","../img/tt/036tt.jpg","null","mooney2","image-keyboard-response","235","986085","0.0-6.0-5.32","3542263","co38155","norming","","","","","","",""
"3302","","","post_reveal_questions","survey-likert","236","989388","0.0-6.0-6.32","3542263","co38155","norming","","","{""aha"":6}","[0]","../img/tt/036tt.jpg","",""
"null","<div style=""font-size:60px;""> </div>","null","fixation","html-keyboard-response","237","989590","0.0-6.0-0.33","3542263","co38155","norming","","","","","","",""
"null","../img/tt/1254tt.jpg","null","mooney1","image-keyboard-response","238","992604","0.0-6.0-1.33","3542263","co38155","norming","","","","","","",""
"3643.0999999999767","","","post_mooney1_questions","survey-likert","239","996248","0.0-6.0-2.33","3542263","co38155","norming","","","{""curiosity"":1,""confidence"":6}","[0,1]","../img/tt/1254tt.jpg","",""
"3067","","","recognition","survey-text","240","999321","0.0-6.0-3.33","3542263","co38155","norming","","","{""guess"":""konijn""}","","../img/tt/1254tt.jpg","",""
"null","../img/gs/1254gs.jpg","null","reveal","image-keyboard-response","241","1001336","0.0-6.0-4.33","3542263","co38155","norming","","","","","","",""
"null","../img/tt/1254tt.jpg","null","mooney2","image-keyboard-response","242","1003336","0.0-6.0-5.33","3542263","co38155","norming","","","","","","",""
"3305","","","post_reveal_questions","survey-likert","243","1006642","0.0-6.0-6.33","3542263","co38155","norming","","","{""aha"":0}","[0]","../img/tt/1254tt.jpg","",""
"null","<div style=""font-size:60px;""> </div>","null","fixation","html-keyboard-response","244","1006852","0.0-6.0-0.34","3542263","co38155","norming","","","","","","",""
"null","../img/tt/1089tt.jpg","null","mooney1","image-keyboard-response","245","1009852","0.0-6.0-1.34","3542263","co38155","norming","","","","","","",""
"5291.70000000007","","","post_mooney1_questions","survey-likert","246","1015147","0.0-6.0-2.34","3542263","co38155","norming","","","{""curiosity"":0,""confidence"":6}","[0,1]","../img/tt/1089tt.jpg","",""
"3765","","","recognition","survey-text","247","1018917","0.0-6.0-3.34","3542263","co38155","norming","","","{""guess"":""olifanten""}","","../img/tt/1089tt.jpg","",""
"null","../img/gs/1089gs.jpg","null","reveal","image-keyboard-response","248","1020931","0.0-6.0-4.34","3542263","co38155","norming","","","","","","",""
"null","../img/tt/1089tt.jpg","null","mooney2","image-keyboard-response","249","1022928","0.0-6.0-5.34","3542263","co38155","norming","","","","","","",""
"2862.4000000000233","","","post_reveal_questions","survey-likert","250","1025793","0.0-6.0-6.34","3542263","co38155","norming","","","{""aha"":0}","[0]","../img/tt/1089tt.jpg","",""
"null","<div style=""font-size:60px;""> </div>","null","fixation","html-keyboard-response","251","1025995","0.0-6.0-0.35","3542263","co38155","norming","","","","","","",""
"null","../img/tt/080tt.jpg","null","mooney1","image-keyboard-response","252","1029007","0.0-6.0-1.35","3542263","co38155","norming","","","","","","",""
"8397.800000000046","","","post_mooney1_questions","survey-likert","253","1037406","0.0-6.0-2.35","3542263","co38155","norming","","","{""curiosity"":4,""confidence"":1}","[0,1]","../img/tt/080tt.jpg","",""
"4307","","","recognition","survey-text","254","1041718","0.0-6.0-3.35","3542263","co38155","norming","","","{""guess"":""gras""}","","../img/tt/080tt.jpg","",""
"null","../img/gs/080gs.jpg","null","reveal","image-keyboard-response","255","1043734","0.0-6.0-4.35","3542263","co38155","norming","","","","","","",""
"null","../img/tt/080tt.jpg","null","mooney2","image-keyboard-response","256","1045733","0.0-6.0-5.35","3542263","co38155","norming","","","","","","",""
"3954.9000000001397","","","post_reveal_questions","survey-likert","257","1049690","0.0-6.0-6.35","3542263","co38155","norming","","","{""aha"":2}","[0]","../img/tt/080tt.jpg","",""
"null","<div style=""font-size:60px;""> </div>","null","fixation","html-keyboard-response","258","1049907","0.0-6.0-0.36","3542263","co38155","norming","","","","","","",""
"null","../img/tt/270tt.jpg","null","mooney1","image-keyboard-response","259","1052918","0.0-6.0-1.36","3542263","co38155","norming","","","","","","",""
"10461.899999999906","","","post_mooney1_questions","survey-likert","260","1063381","0.0-6.0-2.36","3542263","co38155","norming","","","{""curiosity"":5,""confidence"":0}","[0,1]","../img/tt/270tt.jpg","",""
"3359.100000000093","","","recognition","survey-text","261","1066745","0.0-6.0-3.36","3542263","co38155","norming","","","{""guess"":""beelden""}","","../img/tt/270tt.jpg","",""
"null","../img/gs/270gs.jpg","null","reveal","image-keyboard-response","262","1068762","0.0-6.0-4.36","3542263","co38155","norming","","","","","","",""
"null","../img/tt/270tt.jpg","null","mooney2","image-keyboard-response","263","1070750","0.0-6.0-5.36","3542263","co38155","norming","","","","","","",""
"1977","","","post_reveal_questions","survey-likert","264","1072728","0.0-6.0-6.36","3542263","co38155","norming","","","{""aha"":3}","[0]","../img/tt/270tt.jpg","",""
"null","<div style=""font-size:60px;""> </div>","null","fixation","html-keyboard-response","265","1072940","0.0-6.0-0.37","3542263","co38155","norming","","","","","","",""
"null","../img/tt/477tt.jpg","null","mooney1","image-keyboard-response","266","1075948","0.0-6.0-1.37","3542263","co38155","norming","","","","","","",""
"5102.799999999814","","","post_mooney1_questions","survey-likert","267","1081052","0.0-6.0-2.37","3542263","co38155","norming","","","{""curiosity"":1,""confidence"":6}","[0,1]","../img/tt/477tt.jpg","",""
"10444.300000000046","","","recognition","survey-text","268","1091503","0.0-6.0-3.37","3542263","co38155","norming","","","{""guess"":""goudvis in kom""}","","../img/tt/477tt.jpg","",""
"null","../img/gs/477gs.jpg","null","reveal","image-keyboard-response","269","1093511","0.0-6.0-4.37","3542263","co38155","norming","","","","","","",""
"null","../img/tt/477tt.jpg","null","mooney2","image-keyboard-response","270","1095506","0.0-6.0-5.37","3542263","co38155","norming","","","","","","",""
"5060.899999999907","","","post_reveal_questions","survey-likert","271","1100568","0.0-6.0-6.37","3542263","co38155","norming","","","{""aha"":0}","[0]","../img/tt/477tt.jpg","",""
"null","<div style=""font-size:60px;""> </div>","null","fixation","html-keyboard-response","272","1100772","0.0-6.0-0.38","3542263","co38155","norming","","","","","","",""
"null","../img/tt/1202tt.jpg","null","mooney1","image-keyboard-response","273","1103775","0.0-6.0-1.38","3542263","co38155","norming","","","","","","",""
"6288","","","post_mooney1_questions","survey-likert","274","1110064","0.0-6.0-2.38","3542263","co38155","norming","","","{""curiosity"":3,""confidence"":3}","[0,1]","../img/tt/1202tt.jpg","",""
"2363.6999999999534","","","recognition","survey-text","275","1112433","0.0-6.0-3.38","3542263","co38155","norming","","","{""guess"":""tafel""}","","../img/tt/1202tt.jpg","",""
"null","../img/gs/1202gs.jpg","null","reveal","image-keyboard-response","276","1114446","0.0-6.0-4.38","3542263","co38155","norming","","","","","","",""
"null","../img/tt/1202tt.jpg","null","mooney2","image-keyboard-response","277","1116440","0.0-6.0-5.38","3542263","co38155","norming","","","","","","",""
"2104.5","","","post_reveal_questions","survey-likert","278","1118546","0.0-6.0-6.38","3542263","co38155","norming","","","{""aha"":5}","[0]","../img/tt/1202tt.jpg","",""
"null","<div style=""font-size:60px;""> </div>","null","fixation","html-keyboard-response","279","1118756","0.0-6.0-0.39","3542263","co38155","norming","","","","","","",""
"null","../img/tt/468tt.jpg","null","mooney1","image-keyboard-response","280","1121771","0.0-6.0-1.39","3542263","co38155","norming","","","","","","",""
"5826.800000000047","","","post_mooney1_questions","survey-likert","281","1127600","0.0-6.0-2.39","3542263","co38155","norming","","","{""curiosity"":5,""confidence"":1}","[0,1]","../img/tt/468tt.jpg","",""
"2502.100000000093","","","recognition","survey-text","282","1130107","0.0-6.0-3.39","3542263","co38155","norming","","","{""guess"":""hoed""}","","../img/tt/468tt.jpg","",""
"null","../img/gs/468gs.jpg","null","reveal","image-keyboard-response","283","1132122","0.0-6.0-4.39","3542263","co38155","norming","","","","","","",""
"null","../img/tt/468tt.jpg","null","mooney2","image-keyboard-response","284","1134115","0.0-6.0-5.39","3542263","co38155","norming","","","","","","",""
"1973.8000000000465","","","post_reveal_questions","survey-likert","285","1136090","0.0-6.0-6.39","3542263","co38155","norming","","","{""aha"":4}","[0]","../img/tt/468tt.jpg","",""
"null","<div style=""font-size:60px;""> </div>","null","fixation","html-keyboard-response","286","1136299","0.0-6.0-0.40","3542263","co38155","norming","","","","","","",""
"null","../img/tt/1279tt.jpg","null","mooney1","image-keyboard-response","287","1139305","0.0-6.0-1.40","3542263","co38155","norming","","","","","","",""
"4839.5","","","post_mooney1_questions","survey-likert","288","1144146","0.0-6.0-2.40","3542263","co38155","norming","","","{""curiosity"":2,""confidence"":3}","[0,1]","../img/tt/1279tt.jpg","",""
"2751.3000000000465","","","recognition","survey-text","289","1146903","0.0-6.0-3.40","3542263","co38155","norming","","","{""guess"":""geitjes""}","","../img/tt/1279tt.jpg","",""
"null","../img/gs/1279gs.jpg","null","reveal","image-keyboard-response","290","1148903","0.0-6.0-4.40","3542263","co38155","norming","","","","","","",""
"null","../img/tt/1279tt.jpg","null","mooney2","image-keyboard-response","291","1150902","0.0-6.0-5.40","3542263","co38155","norming","","","","","","",""
"26964.100000000093","","","post_reveal_questions","survey-likert","292","1177868","0.0-6.0-6.40","3542263","co38155","norming","","","{""aha"":1}","[0]","../img/tt/1279tt.jpg","",""
"null","<div style=""font-size:60px;""> </div>","null","fixation","html-keyboard-response","293","1178074","0.0-6.0-0.41","3542263","co38155","norming","","","","","","",""
"null","../img/tt/1276tt.jpg","null","mooney1","image-keyboard-response","294","1181088","0.0-6.0-1.41","3542263","co38155","norming","","","","","","",""
"12848.5","","","post_mooney1_questions","survey-likert","295","1193938","0.0-6.0-2.41","3542263","co38155","norming","","","{""curiosity"":3,""confidence"":2}","[0,1]","../img/tt/1276tt.jpg","",""
"3114","","","recognition","survey-text","296","1197059","0.0-6.0-3.41","3542263","co38155","norming","","","{""guess"":""kippen""}","","../img/tt/1276tt.jpg","",""
"null","../img/gs/1276gs.jpg","null","reveal","image-keyboard-response","297","1199067","0.0-6.0-4.41","3542263","co38155","norming","","","","","","",""
"null","../img/tt/1276tt.jpg","null","mooney2","image-keyboard-response","298","1201067","0.0-6.0-5.41","3542263","co38155","norming","","","","","","",""
"4692.800000000047","","","post_reveal_questions","survey-likert","299","1205761","0.0-6.0-6.41","3542263","co38155","norming","","","{""aha"":5}","[0]","../img/tt/1276tt.jpg","",""
"null","<div style=""font-size:60px;""> </div>","null","fixation","html-keyboard-response","300","1205965","0.0-6.0-0.42","3542263","co38155","norming","","","","","","",""
"null","../img/tt/053tt.jpg","null","mooney1","image-keyboard-response","301","1208969","0.0-6.0-1.42","3542263","co38155","norming","","","","","","",""
"9016.40000000014","","","post_mooney1_questions","survey-likert","302","1217988","0.0-6.0-2.42","3542263","co38155","norming","","","{""curiosity"":5,""confidence"":3}","[0,1]","../img/tt/053tt.jpg","",""
"5630.899999999907","","","recognition","survey-text","303","1223623","0.0-6.0-3.42","3542263","co38155","norming","","","{""guess"":""olifanten""}","","../img/tt/053tt.jpg","",""
"null","../img/gs/053gs.jpg","null","reveal","image-keyboard-response","304","1225638","0.0-6.0-4.42","3542263","co38155","norming","","","","","","",""
"null","../img/tt/053tt.jpg","null","mooney2","image-keyboard-response","305","1227634","0.0-6.0-5.42","3542263","co38155","norming","","","","","","",""
"2520.399999999907","","","post_reveal_questions","survey-likert","306","1230156","0.0-6.0-6.42","3542263","co38155","norming","","","{""aha"":5}","[0]","../img/tt/053tt.jpg","",""
"null","<div style=""font-size:60px;""> </div>","null","fixation","html-keyboard-response","307","1230365","0.0-6.0-0.43","3542263","co38155","norming","","","","","","",""
"null","../img/tt/405tt.jpg","null","mooney1","image-keyboard-response","308","1233377","0.0-6.0-1.43","3542263","co38155","norming","","","","","","",""
"7304.600000000093","","","post_mooney1_questions","survey-likert","309","1240683","0.0-6.0-2.43","3542263","co38155","norming","","","{""curiosity"":1,""confidence"":1}","[0,1]","../img/tt/405tt.jpg","",""
"3546","","","recognition","survey-text","310","1244236","0.0-6.0-3.43","3542263","co38155","norming","","","{""guess"":""voedsel""}","","../img/tt/405tt.jpg","",""
"null","../img/gs/405gs.jpg","null","reveal","image-keyboard-response","311","1246252","0.0-6.0-4.43","3542263","co38155","norming","","","","","","",""
"null","../img/tt/405tt.jpg","null","mooney2","image-keyboard-response","312","1248247","0.0-6.0-5.43","3542263","co38155","norming","","","","","","",""
"2037.2000000001862","","","post_reveal_questions","survey-likert","313","1250286","0.0-6.0-6.43","3542263","co38155","norming","","","{""aha"":5}","[0]","../img/tt/405tt.jpg","",""
"null","<div style=""font-size:60px;""> </div>","null","fixation","html-keyboard-response","314","1250488","0.0-6.0-0.44","3542263","co38155","norming","","","","","","",""
"null","../img/tt/118tt.jpg","null","mooney1","image-keyboard-response","315","1253490","0.0-6.0-1.44","3542263","co38155","norming","","","","","","",""
"8239.800000000046","","","post_mooney1_questions","survey-likert","316","1261732","0.0-6.0-2.44","3542263","co38155","norming","","","{""curiosity"":1,""confidence"":0}","[0,1]","../img/tt/118tt.jpg","",""
"2179.0999999998603","","","recognition","survey-text","317","1263916","0.0-6.0-3.44","3542263","co38155","norming","","","{""guess"":""trap""}","","../img/tt/118tt.jpg","",""
"null","../img/gs/118gs.jpg","null","reveal","image-keyboard-response","318","1265932","0.0-6.0-4.44","3542263","co38155","norming","","","","","","",""
"null","../img/tt/118tt.jpg","null","mooney2","image-keyboard-response","319","1267929","0.0-6.0-5.44","3542263","co38155","norming","","","","","","",""
"2485.600000000093","","","post_reveal_questions","survey-likert","320","1270416","0.0-6.0-6.44","3542263","co38155","norming","","","{""aha"":1}","[0]","../img/tt/118tt.jpg","",""
"null","<div style=""font-size:60px;""> </div>","null","fixation","html-keyboard-response","321","1270627","0.0-6.0-0.45","3542263","co38155","norming","","","","","","",""
"null","../img/tt/1227tt.jpg","null","mooney1","image-keyboard-response","322","1273637","0.0-6.0-1.45","3542263","co38155","norming","","","","","","",""
"9684.5","","","post_mooney1_questions","survey-likert","323","1283324","0.0-6.0-2.45","3542263","co38155","norming","","","{""curiosity"":1,""confidence"":4}","[0,1]","../img/tt/1227tt.jpg","",""
"5441.300000000047","","","recognition","survey-text","324","1288771","0.0-6.0-3.45","3542263","co38155","norming","","","{""guess"":""welpjes""}","","../img/tt/1227tt.jpg","",""
"null","../img/gs/1227gs.jpg","null","reveal","image-keyboard-response","325","1290788","0.0-6.0-4.45","3542263","co38155","norming","","","","","","",""
"null","../img/tt/1227tt.jpg","null","mooney2","image-keyboard-response","326","1292777","0.0-6.0-5.45","3542263","co38155","norming","","","","","","",""
"3438.9000000001397","","","post_reveal_questions","survey-likert","327","1296218","0.0-6.0-6.45","3542263","co38155","norming","","","{""aha"":3}","[0]","../img/tt/1227tt.jpg","",""
"null","<div style=""font-size:60px;""> </div>","null","fixation","html-keyboard-response","328","1296420","0.0-6.0-0.46","3542263","co38155","norming","","","","","","",""
"null","../img/tt/1309tt.jpg","null","mooney1","image-keyboard-response","329","1299434","0.0-6.0-1.46","3542263","co38155","norming","","","","","","",""
"6377.700000000186","","","post_mooney1_questions","survey-likert","330","1305814","0.0-6.0-2.46","3542263","co38155","norming","","","{""curiosity"":1,""confidence"":6}","[0,1]","../img/tt/1309tt.jpg","",""
"3584.8000000000465","","","recognition","survey-text","331","1309405","0.0-6.0-3.46","3542263","co38155","norming","","","{""guess"":""auto in bos""}","","../img/tt/1309tt.jpg","",""
"null","../img/gs/1309gs.jpg","null","reveal","image-keyboard-response","332","1311413","0.0-6.0-4.46","3542263","co38155","norming","","","","","","",""
"null","../img/tt/1309tt.jpg","null","mooney2","image-keyboard-response","333","1313409","0.0-6.0-5.46","3542263","co38155","norming","","","","","","",""
"12222","","","post_reveal_questions","survey-likert","334","1325634","0.0-6.0-6.46","3542263","co38155","norming","","","{""aha"":0}","[0]","../img/tt/1309tt.jpg","",""
"null","<div style=""font-size:60px;""> </div>","null","fixation","html-keyboard-response","335","1325848","0.0-6.0-0.47","3542263","co38155","norming","","","","","","",""
"null","../img/tt/378tt.jpg","null","mooney1","image-keyboard-response","336","1328858","0.0-6.0-1.47","3542263","co38155","norming","","","","","","",""
"6930.59999999986","","","post_mooney1_questions","survey-likert","337","1335791","0.0-6.0-2.47","3542263","co38155","norming","","","{""curiosity"":1,""confidence"":6}","[0,1]","../img/tt/378tt.jpg","",""
"6111.40000000014","","","recognition","survey-text","338","1341907","0.0-6.0-3.47","3542263","co38155","norming","","","{""guess"":""vogelbekdier""}","","../img/tt/378tt.jpg","",""
"null","../img/gs/378gs.jpg","null","reveal","image-keyboard-response","339","1343917","0.0-6.0-4.47","3542263","co38155","norming","","","","","","",""
"null","../img/tt/378tt.jpg","null","mooney2","image-keyboard-response","340","1345906","0.0-6.0-5.47","3542263","co38155","norming","","","","","","",""
"6777.899999999907","","","post_reveal_questions","survey-likert","341","1352686","0.0-6.0-6.47","3542263","co38155","norming","","","{""aha"":4}","[0]","../img/tt/378tt.jpg","",""
"null","<div style=""font-size:60px;""> </div>","null","fixation","html-keyboard-response","342","1352898","0.0-6.0-0.48","3542263","co38155","norming","","","","","","",""
"null","../img/tt/1224tt.jpg","null","mooney1","image-keyboard-response","343","1355902","0.0-6.0-1.48","3542263","co38155","norming","","","","","","",""
"4529.799999999814","","","post_mooney1_questions","survey-likert","344","1360433","0.0-6.0-2.48","3542263","co38155","norming","","","{""curiosity"":1,""confidence"":6}","[0,1]","../img/tt/1224tt.jpg","",""
"2330.0999999998603","","","recognition","survey-text","345","1362769","0.0-6.0-3.48","3542263","co38155","norming","","","{""guess"":""bokser""}","","../img/tt/1224tt.jpg","",""
"null","../img/gs/1224gs.jpg","null","reveal","image-keyboard-response","346","1364783","0.0-6.0-4.48","3542263","co38155","norming","","","","","","",""
"null","../img/tt/1224tt.jpg","null","mooney2","image-keyboard-response","347","1366797","0.0-6.0-5.48","3542263","co38155","norming","","","","","","",""
"6268.199999999953","","","post_reveal_questions","survey-likert","348","1373068","0.0-6.0-6.48","3542263","co38155","norming","","","{""aha"":2}","[0]","../img/tt/1224tt.jpg","",""
"null","<div style=""font-size:60px;""> </div>","null","fixation","html-keyboard-response","349","1373278","0.0-6.0-0.49","3542263","co38155","norming","","","","","","",""
"null","../img/tt/1127tt.jpg","null","mooney1","image-keyboard-response","350","1376285","0.0-6.0-1.49","3542263","co38155","norming","","","","","","",""
"6880.5","","","post_mooney1_questions","survey-likert","351","1383168","0.0-6.0-2.49","3542263","co38155","norming","","","{""curiosity"":1,""confidence"":3}","[0,1]","../img/tt/1127tt.jpg","",""
"3955.0999999998603","","","recognition","survey-text","352","1387128","0.0-6.0-3.49","3542263","co38155","norming","","","{""guess"":""klaslokaal""}","","../img/tt/1127tt.jpg","",""
"null","../img/gs/1127gs.jpg","null","reveal","image-keyboard-response","353","1389139","0.0-6.0-4.49","3542263","co38155","norming","","","","","","",""
"null","../img/tt/1127tt.jpg","null","mooney2","image-keyboard-response","354","1391136","0.0-6.0-5.49","3542263","co38155","norming","","","","","","",""
"4551.399999999907","","","post_reveal_questions","survey-likert","355","1395689","0.0-6.0-6.49","3542263","co38155","norming","","","{""aha"":1}","[0]","../img/tt/1127tt.jpg","",""
"null","<div style=""font-size:60px;""> </div>","null","fixation","html-keyboard-response","356","1395909","0.0-6.0-0.50","3542263","co38155","norming","","","","","","",""
"null","../img/tt/1040tt.jpg","null","mooney1","image-keyboard-response","357","1398924","0.0-6.0-1.50","3542263","co38155","norming","","","","","","",""
"11089.699999999953","","","post_mooney1_questions","survey-likert","358","1410016","0.0-6.0-2.50","3542263","co38155","norming","","","{""curiosity"":4,""confidence"":1}","[0,1]","../img/tt/1040tt.jpg","",""
"3406.5","","","recognition","survey-text","359","1413428","0.0-6.0-3.50","3542263","co38155","norming","","","{""guess"":""krokodil""}","","../img/tt/1040tt.jpg","",""
"null","../img/gs/1040gs.jpg","null","reveal","image-keyboard-response","360","1415437","0.0-6.0-4.50","3542263","co38155","norming","","","","","","",""
"null","../img/tt/1040tt.jpg","null","mooney2","image-keyboard-response","361","1417430","0.0-6.0-5.50","3542263","co38155","norming","","","","","","",""
"3909.6999999999534","","","post_reveal_questions","survey-likert","362","1421341","0.0-6.0-6.50","3542263","co38155","norming","","","{""aha"":5}","[0]","../img/tt/1040tt.jpg","",""
"null","<div style=""font-size:60px;""> </div>","null","fixation","html-keyboard-response","363","1421544","0.0-6.0-0.51","3542263","co38155","norming","","","","","","",""
"null","../img/tt/094tt.jpg","null","mooney1","image-keyboard-response","364","1424557","0.0-6.0-1.51","3542263","co38155","norming","","","","","","",""
"6763.40000000014","","","post_mooney1_questions","survey-likert","365","1431322","0.0-6.0-2.51","3542263","co38155","norming","","","{""curiosity"":3,""confidence"":1}","[0,1]","../img/tt/094tt.jpg","",""
"3266.6999999999534","","","recognition","survey-text","366","1434593","0.0-6.0-3.51","3542263","co38155","norming","","","{""guess"":""kikker""}","","../img/tt/094tt.jpg","",""
"null","../img/gs/094gs.jpg","null","reveal","image-keyboard-response","367","1436600","0.0-6.0-4.51","3542263","co38155","norming","","","","","","",""
"null","../img/tt/094tt.jpg","null","mooney2","image-keyboard-response","368","1438607","0.0-6.0-5.51","3542263","co38155","norming","","","","","","",""
"4615.09999999986","","","post_reveal_questions","survey-likert","369","1443223","0.0-6.0-6.51","3542263","co38155","norming","","","{""aha"":1}","[0]","../img/tt/094tt.jpg","",""
"null","<div style=""font-size:60px;""> </div>","null","fixation","html-keyboard-response","370","1443425","0.0-6.0-0.52","3542263","co38155","norming","","","","","","",""
"null","../img/tt/552tt.jpg","null","mooney1","image-keyboard-response","371","1446427","0.0-6.0-1.52","3542263","co38155","norming","","","","","","",""
"9732.59999999986","","","post_mooney1_questions","survey-likert","372","1456162","0.0-6.0-2.52","3542263","co38155","norming","","","{""curiosity"":4,""confidence"":4}","[0,1]","../img/tt/552tt.jpg","",""
"2379.6999999999534","","","recognition","survey-text","373","1458546","0.0-6.0-3.52","3542263","co38155","norming","","","{""guess"":""haas""}","","../img/tt/552tt.jpg","",""
"null","../img/gs/552gs.jpg","null","reveal","image-keyboard-response","374","1460560","0.0-6.0-4.52","3542263","co38155","norming","","","","","","",""
"null","../img/tt/552tt.jpg","null","mooney2","image-keyboard-response","375","1462560","0.0-6.0-5.52","3542263","co38155","norming","","","","","","",""
"7019.600000000093","","","post_reveal_questions","survey-likert","376","1469581","0.0-6.0-6.52","3542263","co38155","norming","","","{""aha"":5}","[0]","../img/tt/552tt.jpg","",""
"null","<div style=""font-size:60px;""> </div>","null","fixation","html-keyboard-response","377","1469786","0.0-6.0-0.53","3542263","co38155","norming","","","","","","",""
"null","../img/tt/1037tt.jpg","null","mooney1","image-keyboard-response","378","1472790","0.0-6.0-1.53","3542263","co38155","norming","","","","","","",""
"6927.600000000093","","","post_mooney1_questions","survey-likert","379","1479719","0.0-6.0-2.53","3542263","co38155","norming","","","{""curiosity"":2,""confidence"":4}","[0,1]","../img/tt/1037tt.jpg","",""
"2416","","","recognition","survey-text","380","1482140","0.0-6.0-3.53","3542263","co38155","norming","","","{""guess"":""hond""}","","../img/tt/1037tt.jpg","",""
"null","../img/gs/1037gs.jpg","null","reveal","image-keyboard-response","381","1484154","0.0-6.0-4.53","3542263","co38155","norming","","","","","","",""
"null","../img/tt/1037tt.jpg","null","mooney2","image-keyboard-response","382","1486155","0.0-6.0-5.53","3542263","co38155","norming","","","","","","",""
"2906.899999999907","","","post_reveal_questions","survey-likert","383","1489064","0.0-6.0-6.53","3542263","co38155","norming","","","{""aha"":0}","[0]","../img/tt/1037tt.jpg","",""
"null","<div style=""font-size:60px;""> </div>","null","fixation","html-keyboard-response","384","1489276","0.0-6.0-0.54","3542263","co38155","norming","","","","","","",""
"null","../img/tt/440tt.jpg","null","mooney1","image-keyboard-response","385","1492282","0.0-6.0-1.54","3542263","co38155","norming","","","","","","",""
"8971.199999999953","","","post_mooney1_questions","survey-likert","386","1501255","0.0-6.0-2.54","3542263","co38155","norming","","","{""curiosity"":1,""confidence"":1}","[0,1]","../img/tt/440tt.jpg","",""
"4475.399999999907","","","recognition","survey-text","387","1505736","0.0-6.0-3.54","3542263","co38155","norming","","","{""guess"":""kalf""}","","../img/tt/440tt.jpg","",""
"null","../img/gs/440gs.jpg","null","reveal","image-keyboard-response","388","1507744","0.0-6.0-4.54","3542263","co38155","norming","","","","","","",""
"null","../img/tt/440tt.jpg","null","mooney2","image-keyboard-response","389","1509740","0.0-6.0-5.54","3542263","co38155","norming","","","","","","",""
"2721.399999999907","","","post_reveal_questions","survey-likert","390","1512463","0.0-6.0-6.54","3542263","co38155","norming","","","{""aha"":3}","[0]","../img/tt/440tt.jpg","",""
"null","<div style=""font-size:60px;""> </div>","null","fixation","html-keyboard-response","391","1512680","0.0-6.0-0.55","3542263","co38155","norming","","","","","","",""
"null","../img/tt/078tt.jpg","null","mooney1","image-keyboard-response","392","1515691","0.0-6.0-1.55","3542263","co38155","norming","","","","","","",""
"4188.300000000047","","","post_mooney1_questions","survey-likert","393","1519881","0.0-6.0-2.55","3542263","co38155","norming","","","{""curiosity"":1,""confidence"":5}","[0,1]","../img/tt/078tt.jpg","",""
"2453.3000000000465","","","recognition","survey-text","394","1522340","0.0-6.0-3.55","3542263","co38155","norming","","","{""guess"":""druiven""}","","../img/tt/078tt.jpg","",""
"null","../img/gs/078gs.jpg","null","reveal","image-keyboard-response","395","1524348","0.0-6.0-4.55","3542263","co38155","norming","","","","","","",""
"null","../img/tt/078tt.jpg","null","mooney2","image-keyboard-response","396","1526349","0.0-6.0-5.55","3542263","co38155","norming","","","","","","",""
"15334","","","post_reveal_questions","survey-likert","397","1541685","0.0-6.0-6.55","3542263","co38155","norming","","","{""aha"":2}","[0]","../img/tt/078tt.jpg","",""
"null","<div style=""font-size:60px;""> </div>","null","fixation","html-keyboard-response","398","1541886","0.0-6.0-0.56","3542263","co38155","norming","","","","","","",""
"null","../img/tt/1191tt.jpg","null","mooney1","image-keyboard-response","399","1544899","0.0-6.0-1.56","3542263","co38155","norming","","","","","","",""
"5146.899999999907","","","post_mooney1_questions","survey-likert","400","1550048","0.0-6.0-2.56","3542263","co38155","norming","","","{""curiosity"":2,""confidence"":4}","[0,1]","../img/tt/1191tt.jpg","",""
"5862","","","recognition","survey-text","401","1555915","0.0-6.0-3.56","3542263","co38155","norming","","","{""guess"":""kameelberijders""}","","../img/tt/1191tt.jpg","",""
"null","../img/gs/1191gs.jpg","null","reveal","image-keyboard-response","402","1557931","0.0-6.0-4.56","3542263","co38155","norming","","","","","","",""
"null","../img/tt/1191tt.jpg","null","mooney2","image-keyboard-response","403","1559915","0.0-6.0-5.56","3542263","co38155","norming","","","","","","",""
"17369.800000000046","","","post_reveal_questions","survey-likert","404","1577287","0.0-6.0-6.56","3542263","co38155","norming","","","{""aha"":6}","[0]","../img/tt/1191tt.jpg","",""
"null","<div style=""font-size:60px;""> </div>","null","fixation","html-keyboard-response","405","1577493","0.0-6.0-0.57","3542263","co38155","norming","","","","","","",""
"null","../img/tt/1006tt.jpg","null","mooney1","image-keyboard-response","406","1580505","0.0-6.0-1.57","3542263","co38155","norming","","","","","","",""
"4755.09999999986","","","post_mooney1_questions","survey-likert","407","1585262","0.0-6.0-2.57","3542263","co38155","norming","","","{""curiosity"":3,""confidence"":5}","[0,1]","../img/tt/1006tt.jpg","",""
"5189.699999999953","","","recognition","survey-text","408","1590456","0.0-6.0-3.57","3542263","co38155","norming","","","{""guess"":""berggeit""}","","../img/tt/1006tt.jpg","",""
"null","../img/gs/1006gs.jpg","null","reveal","image-keyboard-response","409","1592457","0.0-6.0-4.57","3542263","co38155","norming","","","","","","",""
"null","../img/tt/1006tt.jpg","null","mooney2","image-keyboard-response","410","1594461","0.0-6.0-5.57","3542263","co38155","norming","","","","","","",""
"3345.1999999999534","","","post_reveal_questions","survey-likert","411","1597807","0.0-6.0-6.57","3542263","co38155","norming","","","{""aha"":1}","[0]","../img/tt/1006tt.jpg","",""
"null","<div style=""font-size:60px;""> </div>","null","fixation","html-keyboard-response","412","1598015","0.0-6.0-0.58","3542263","co38155","norming","","","","","","",""
"null","../img/tt/273tt.jpg","null","mooney1","image-keyboard-response","413","1601017","0.0-6.0-1.58","3542263","co38155","norming","","","","","","",""
"6170.800000000047","","","post_mooney1_questions","survey-likert","414","1607191","0.0-6.0-2.58","3542263","co38155","norming","","","{""curiosity"":1,""confidence"":6}","[0,1]","../img/tt/273tt.jpg","",""
"5485.90000000014","","","recognition","survey-text","415","1612682","0.0-6.0-3.58","3542263","co38155","norming","","","{""guess"":""tanden met blokjes""}","","../img/tt/273tt.jpg","",""
"null","../img/gs/273gs.jpg","null","reveal","image-keyboard-response","416","1614698","0.0-6.0-4.58","3542263","co38155","norming","","","","","","",""
"null","../img/tt/273tt.jpg","null","mooney2","image-keyboard-response","417","1616688","0.0-6.0-5.58","3542263","co38155","norming","","","","","","",""
"4524.300000000047","","","post_reveal_questions","survey-likert","418","1621215","0.0-6.0-6.58","3542263","co38155","norming","","","{""aha"":0}","[0]","../img/tt/273tt.jpg","",""
"null","<div style=""font-size:60px;""> </div>","null","fixation","html-keyboard-response","419","1621423","0.0-6.0-0.59","3542263","co38155","norming","","","","","","",""
"null","../img/tt/1262tt.jpg","null","mooney1","image-keyboard-response","420","1624435","0.0-6.0-1.59","3542263","co38155","norming","","","","","","",""
"8987","","","post_mooney1_questions","survey-likert","421","1633423","0.0-6.0-2.59","3542263","co38155","norming","","","{""curiosity"":4,""confidence"":3}","[0,1]","../img/tt/1262tt.jpg","",""
"3200.7999999998137","","","recognition","survey-text","422","1636629","0.0-6.0-3.59","3542263","co38155","norming","","","{""guess"":""kat""}","","../img/tt/1262tt.jpg","",""
"null","../img/gs/1262gs.jpg","null","reveal","image-keyboard-response","423","1638634","0.0-6.0-4.59","3542263","co38155","norming","","","","","","",""
"null","../img/tt/1262tt.jpg","null","mooney2","image-keyboard-response","424","1640644","0.0-6.0-5.59","3542263","co38155","norming","","","","","","",""
"3387.3000000000465","","","post_reveal_questions","survey-likert","425","1644033","0.0-6.0-6.59","3542263","co38155","norming","","","{""aha"":3}","[0]","../img/tt/1262tt.jpg","",""
"null","<div style=""font-size:60px;""> </div>","null","fixation","html-keyboard-response","426","1644239","0.0-6.0-0.60","3542263","co38155","norming","","","","","","",""
"null","../img/tt/121tt.jpg","null","mooney1","image-keyboard-response","427","1647254","0.0-6.0-1.60","3542263","co38155","norming","","","","","","",""
"4415.09999999986","","","post_mooney1_questions","survey-likert","428","1651671","0.0-6.0-2.60","3542263","co38155","norming","","","{""curiosity"":3,""confidence"":5}","[0,1]","../img/tt/121tt.jpg","",""
"6890.199999999953","","","recognition","survey-text","429","1658566","0.0-6.0-3.60","3542263","co38155","norming","","","{""guess"":""kangoeroe""}","","../img/tt/121tt.jpg","",""
"null","../img/gs/121gs.jpg","null","reveal","image-keyboard-response","430","1660580","0.0-6.0-4.60","3542263","co38155","norming","","","","","","",""
"null","../img/tt/121tt.jpg","null","mooney2","image-keyboard-response","431","1662565","0.0-6.0-5.60","3542263","co38155","norming","","","","","","",""
"2216","","","post_reveal_questions","survey-likert","432","1664784","0.0-6.0-6.60","3542263","co38155","norming","","","{""aha"":0}","[0]","../img/tt/121tt.jpg","",""
"null","<div style=""font-size:60px;""> </div>","null","fixation","html-keyboard-response","433","1665000","0.0-6.0-0.61","3542263","co38155","norming","","","","","","",""
"null","../img/tt/112tt.jpg","null","mooney1","image-keyboard-response","434","1668010","0.0-6.0-1.61","3542263","co38155","norming","","","","","","",""
"6397.09999999986","","","post_mooney1_questions","survey-likert","435","1674410","0.0-6.0-2.61","3542263","co38155","norming","","","{""curiosity"":5,""confidence"":4}","[0,1]","../img/tt/112tt.jpg","",""
"6890.100000000093","","","recognition","survey-text","436","1681304","0.0-6.0-3.61","3542263","co38155","norming","","","{""guess"":""notenkraker""}","","../img/tt/112tt.jpg","",""
"null","../img/gs/112gs.jpg","null","reveal","image-keyboard-response","437","1683319","0.0-6.0-4.61","3542263","co38155","norming","","","","","","",""
"null","../img/tt/112tt.jpg","null","mooney2","image-keyboard-response","438","1685322","0.0-6.0-5.61","3542263","co38155","norming","","","","","","",""
"5984.90000000014","","","post_reveal_questions","survey-likert","439","1691309","0.0-6.0-6.61","3542263","co38155","norming","","","{""aha"":5}","[0]","../img/tt/112tt.jpg","",""
"null","<div style=""font-size:60px;""> </div>","null","fixation","html-keyboard-response","440","1691525","0.0-6.0-0.62","3542263","co38155","norming","","","","","","",""
"null","../img/tt/1096tt.jpg","null","mooney1","image-keyboard-response","441","1694539","0.0-6.0-1.62","3542263","co38155","norming","","","","","","",""
"7904","","","post_mooney1_questions","survey-likert","442","1702445","0.0-6.0-2.62","3542263","co38155","norming","","","{""curiosity"":4,""confidence"":3}","[0,1]","../img/tt/1096tt.jpg","",""
"7469.200000000186","","","recognition","survey-text","443","1709919","0.0-6.0-3.62","3542263","co38155","norming","","","{""guess"":""paardenkar""}","","../img/tt/1096tt.jpg","",""
"null","../img/gs/1096gs.jpg","null","reveal","image-keyboard-response","444","1711935","0.0-6.0-4.62","3542263","co38155","norming","","","","","","",""
"null","../img/tt/1096tt.jpg","null","mooney2","image-keyboard-response","445","1713931","0.0-6.0-5.62","3542263","co38155","norming","","","","","","",""
"4853.100000000093","","","post_reveal_questions","survey-likert","446","1718786","0.0-6.0-6.62","3542263","co38155","norming","","","{""aha"":4}","[0]","../img/tt/1096tt.jpg","",""
"null","<div style=""font-size:60px;""> </div>","null","fixation","html-keyboard-response","447","1718993","0.0-6.0-0.63","3542263","co38155","norming","","","","","","",""
"null","../img/tt/1242tt.jpg","null","mooney1","image-keyboard-response","448","1721996","0.0-6.0-1.63","3542263","co38155","norming","","","","","","",""
"8847.699999999953","","","post_mooney1_questions","survey-likert","449","1730846","0.0-6.0-2.63","3542263","co38155","norming","","","{""curiosity"":3,""confidence"":4}","[0,1]","../img/tt/1242tt.jpg","",""
"3542.0999999998603","","","recognition","survey-text","450","1734393","0.0-6.0-3.63","3542263","co38155","norming","","","{""guess"":""wolf""}","","../img/tt/1242tt.jpg","",""
"null","../img/gs/1242gs.jpg","null","reveal","image-keyboard-response","451","1736404","0.0-6.0-4.63","3542263","co38155","norming","","","","","","",""
"null","../img/tt/1242tt.jpg","null","mooney2","image-keyboard-response","452","1738396","0.0-6.0-5.63","3542263","co38155","norming","","","","","","",""
"4842.199999999953","","","post_reveal_questions","survey-likert","453","1743240","0.0-6.0-6.63","3542263","co38155","norming","","","{""aha"":2}","[0]","../img/tt/1242tt.jpg","",""
"null","<div style=""font-size:60px;""> </div>","null","fixation","html-keyboard-response","454","1743459","0.0-6.0-0.64","3542263","co38155","norming","","","","","","",""
"null","../img/tt/435tt.jpg","null","mooney1","image-keyboard-response","455","1746464","0.0-6.0-1.64","3542263","co38155","norming","","","","","","",""
"4515.300000000047","","","post_mooney1_questions","survey-likert","456","1750981","0.0-6.0-2.64","3542263","co38155","norming","","","{""curiosity"":2,""confidence"":6}","[0,1]","../img/tt/435tt.jpg","",""
"5889.899999999907","","","recognition","survey-text","457","1756876","0.0-6.0-3.64","3542263","co38155","norming","","","{""guess"":""pooltafel""}","","../img/tt/435tt.jpg","",""
"null","../img/gs/435gs.jpg","null","reveal","image-keyboard-response","458","1758891","0.0-6.0-4.64","3542263","co38155","norming","","","","","","",""
"null","../img/tt/435tt.jpg","null","mooney2","image-keyboard-response","459","1760876","0.0-6.0-5.64","3542263","co38155","norming","","","","","","",""
"3705.1999999999534","","","post_reveal_questions","survey-likert","460","1764583","0.0-6.0-6.64","3542263","co38155","norming","","","{""aha"":1}","[0]","../img/tt/435tt.jpg","",""
"null","<div style=""font-size:60px;""> </div>","null","fixation","html-keyboard-response","461","1764800","0.0-6.0-0.65","3542263","co38155","norming","","","","","","",""
"null","../img/tt/096tt.jpg","null","mooney1","image-keyboard-response","462","1767806","0.0-6.0-1.65","3542263","co38155","norming","","","","","","",""
"6920.899999999907","","","post_mooney1_questions","survey-likert","463","1774729","0.0-6.0-2.65","3542263","co38155","norming","","","{""curiosity"":1,""confidence"":5}","[0,1]","../img/tt/096tt.jpg","",""
"4220.90000000014","","","recognition","survey-text","464","1778955","0.0-6.0-3.65","3542263","co38155","norming","","","{""guess"":""piano""}","","../img/tt/096tt.jpg","",""
"null","../img/gs/096gs.jpg","null","reveal","image-keyboard-response","465","1780966","0.0-6.0-4.65","3542263","co38155","norming","","","","","","",""
"null","../img/tt/096tt.jpg","null","mooney2","image-keyboard-response","466","1782963","0.0-6.0-5.65","3542263","co38155","norming","","","","","","",""
"2566.3000000000465","","","post_reveal_questions","survey-likert","467","1785531","0.0-6.0-6.65","3542263","co38155","norming","","","{""aha"":0}","[0]","../img/tt/096tt.jpg","",""
"null","<div style=""font-size:60px;""> </div>","null","fixation","html-keyboard-response","468","1785743","0.0-6.0-0.66","3542263","co38155","norming","","","","","","",""
"null","../img/tt/010tt.jpg","null","mooney1","image-keyboard-response","469","1788754","0.0-6.0-1.66","3542263","co38155","norming","","","","","","",""
"5255.100000000093","","","post_mooney1_questions","survey-likert","470","1794010","0.0-6.0-2.66","3542263","co38155","norming","","","{""curiosity"":4,""confidence"":0}","[0,1]","../img/tt/010tt.jpg","",""
"2905.3000000000465","","","recognition","survey-text","471","1796921","0.0-6.0-3.66","3542263","co38155","norming","","","{""guess"":""""}","","../img/tt/010tt.jpg","",""
"null","../img/gs/010gs.jpg","null","reveal","image-keyboard-response","472","1798932","0.0-6.0-4.66","3542263","co38155","norming","","","","","","",""
"null","../img/tt/010tt.jpg","null","mooney2","image-keyboard-response","473","1800923","0.0-6.0-5.66","3542263","co38155","norming","","","","","","",""
"3021.8000000000465","","","post_reveal_questions","survey-likert","474","1803946","0.0-6.0-6.66","3542263","co38155","norming","","","{""aha"":5}","[0]","../img/tt/010tt.jpg","",""
"null","<div style=""font-size:60px;""> </div>","null","fixation","html-keyboard-response","475","1804155","0.0-6.0-0.67","3542263","co38155","norming","","","","","","",""
"null","../img/tt/1283tt.jpg","null","mooney1","image-keyboard-response","476","1807162","0.0-6.0-1.67","3542263","co38155","norming","","","","","","",""
"6370.600000000093","","","post_mooney1_questions","survey-likert","477","1813535","0.0-6.0-2.67","3542263","co38155","norming","","","{""curiosity"":4,""confidence"":3}","[0,1]","../img/tt/1283tt.jpg","",""
"3265.5","","","recognition","survey-text","478","1816806","0.0-6.0-3.67","3542263","co38155","norming","","","{""guess"":""kat""}","","../img/tt/1283tt.jpg","",""
"null","../img/gs/1283gs.jpg","null","reveal","image-keyboard-response","479","1818820","0.0-6.0-4.67","3542263","co38155","norming","","","","","","",""
"null","../img/tt/1283tt.jpg","null","mooney2","image-keyboard-response","480","1820821","0.0-6.0-5.67","3542263","co38155","norming","","","","","","",""
"3781.6999999999534","","","post_reveal_questions","survey-likert","481","1824605","0.0-6.0-6.67","3542263","co38155","norming","","","{""aha"":4}","[0]","../img/tt/1283tt.jpg","",""
"null","<div style=""font-size:60px;""> </div>","null","fixation","html-keyboard-response","482","1824832","0.0-6.0-0.68","3542263","co38155","norming","","","","","","",""
"null","../img/tt/1123tt.jpg","null","mooney1","image-keyboard-response","483","1827837","0.0-6.0-1.68","3542263","co38155","norming","","","","","","",""
"7865.199999999953","","","post_mooney1_questions","survey-likert","484","1835705","0.0-6.0-2.68","3542263","co38155","norming","","","{""curiosity"":2,""confidence"":4}","[0,1]","../img/tt/1123tt.jpg","",""
"3281","","","recognition","survey-text","485","1838990","0.0-6.0-3.68","3542263","co38155","norming","","","{""guess"":""basketbal""}","","../img/tt/1123tt.jpg","",""
"null","../img/gs/1123gs.jpg","null","reveal","image-keyboard-response","486","1840995","0.0-6.0-4.68","3542263","co38155","norming","","","","","","",""
"null","../img/tt/1123tt.jpg","null","mooney2","image-keyboard-response","487","1842997","0.0-6.0-5.68","3542263","co38155","norming","","","","","","",""
"2759.5","","","post_reveal_questions","survey-likert","488","1845759","0.0-6.0-6.68","3542263","co38155","norming","","","{""aha"":4}","[0]","../img/tt/1123tt.jpg","",""
"null","<div style=""font-size:60px;""> </div>","null","fixation","html-keyboard-response","489","1845977","0.0-6.0-0.69","3542263","co38155","norming","","","","","","",""
"null","../img/tt/001tt.jpg","null","mooney1","image-keyboard-response","490","1848997","0.0-6.0-1.69","3542263","co38155","norming","","","","","","",""
"6001.800000000047","","","post_mooney1_questions","survey-likert","491","1855001","0.0-6.0-2.69","3542263","co38155","norming","","","{""curiosity"":5,""confidence"":2}","[0,1]","../img/tt/001tt.jpg","",""
"2916.1999999999534","","","recognition","survey-text","492","1857922","0.0-6.0-3.69","3542263","co38155","norming","","","{""guess"":""stier""}","","../img/tt/001tt.jpg","",""
"null","../img/gs/001gs.jpg","null","reveal","image-keyboard-response","493","1859931","0.0-6.0-4.69","3542263","co38155","norming","","","","","","",""
"null","../img/tt/001tt.jpg","null","mooney2","image-keyboard-response","494","1861943","0.0-6.0-5.69","3542263","co38155","norming","","","","","","",""
"2731.0999999998603","","","post_reveal_questions","survey-likert","495","1864677","0.0-6.0-6.69","3542263","co38155","norming","","","{""aha"":4}","[0]","../img/tt/001tt.jpg","",""
"null","<div style=""font-size:60px;""> </div>","null","fixation","html-keyboard-response","496","1864888","0.0-6.0-0.70","3542263","co38155","norming","","","","","","",""
"null","../img/tt/124tt.jpg","null","mooney1","image-keyboard-response","497","1867902","0.0-6.0-1.70","3542263","co38155","norming","","","","","","",""
"9570.800000000046","","","post_mooney1_questions","survey-likert","498","1877475","0.0-6.0-2.70","3542263","co38155","norming","","","{""curiosity"":5,""confidence"":3}","[0,1]","../img/tt/124tt.jpg","",""
"2694.7999999998137","","","recognition","survey-text","499","1880177","0.0-6.0-3.70","3542263","co38155","norming","","","{""guess"":""bever""}","","../img/tt/124tt.jpg","",""
"null","../img/gs/124gs.jpg","null","reveal","image-keyboard-response","500","1882193","0.0-6.0-4.70","3542263","co38155","norming","","","","","","",""
"null","../img/tt/124tt.jpg","null","mooney2","image-keyboard-response","501","1884183","0.0-6.0-5.70","3542263","co38155","norming","","","","","","",""
"2573.6999999999534","","","post_reveal_questions","survey-likert","502","1886758","0.0-6.0-6.70","3542263","co38155","norming","","","{""aha"":4}","[0]","../img/tt/124tt.jpg","",""
"null","<div style=""font-size:60px;""> </div>","null","fixation","html-keyboard-response","503","1886969","0.0-6.0-0.71","3542263","co38155","norming","","","","","","",""
"null","../img/tt/135tt.jpg","null","mooney1","image-keyboard-response","504","1889981","0.0-6.0-1.71","3542263","co38155","norming","","","","","","",""
"5080.299999999814","","","post_mooney1_questions","survey-likert","505","1895065","0.0-6.0-2.71","3542263","co38155","norming","","","{""curiosity"":0,""confidence"":6}","[0,1]","../img/tt/135tt.jpg","",""
"4485.700000000186","","","recognition","survey-text","506","1899556","0.0-6.0-3.71","3542263","co38155","norming","","","{""guess"":""wc bril""}","","../img/tt/135tt.jpg","",""
"null","../img/gs/135gs.jpg","null","reveal","image-keyboard-response","507","1901570","0.0-6.0-4.71","3542263","co38155","norming","","","","","","",""
"null","../img/tt/135tt.jpg","null","mooney2","image-keyboard-response","508","1903559","0.0-6.0-5.71","3542263","co38155","norming","","","","","","",""
"6623.700000000186","","","post_reveal_questions","survey-likert","509","1910185","0.0-6.0-6.71","3542263","co38155","norming","","","{""aha"":0}","[0]","../img/tt/135tt.jpg","",""
"null","<div style=""font-size:60px;""> </div>","null","fixation","html-keyboard-response","510","1910395","0.0-6.0-0.72","3542263","co38155","norming","","","","","","",""
"null","../img/tt/1290tt.jpg","null","mooney1","image-keyboard-response","511","1913399","0.0-6.0-1.72","3542263","co38155","norming","","","","","","",""
"4106.300000000047","","","post_mooney1_questions","survey-likert","512","1917506","0.0-6.0-2.72","3542263","co38155","norming","","","{""curiosity"":1,""confidence"":6}","[0,1]","../img/tt/1290tt.jpg","",""
"7166.100000000093","","","recognition","survey-text","513","1924677","0.0-6.0-3.72","3542263","co38155","norming","","","{""guess"":""skilift""}","","../img/tt/1290tt.jpg","",""
"null","../img/gs/1290gs.jpg","null","reveal","image-keyboard-response","514","1926694","0.0-6.0-4.72","3542263","co38155","norming","","","","","","",""
"null","../img/tt/1290tt.jpg","null","mooney2","image-keyboard-response","515","1928695","0.0-6.0-5.72","3542263","co38155","norming","","","","","","",""
"2395.5","","","post_reveal_questions","survey-likert","516","1931092","0.0-6.0-6.72","3542263","co38155","norming","","","{""aha"":0}","[0]","../img/tt/1290tt.jpg","",""
"null","<div style=""font-size:60px;""> </div>","null","fixation","html-keyboard-response","517","1931296","0.0-6.0-0.73","3542263","co38155","norming","","","","","","",""
"null","../img/tt/1027tt.jpg","null","mooney1","image-keyboard-response","518","1934309","0.0-6.0-1.73","3542263","co38155","norming","","","","","","",""
"4798","","","post_mooney1_questions","survey-likert","519","1939109","0.0-6.0-2.73","3542263","co38155","norming","","","{""curiosity"":4,""confidence"":4}","[0,1]","../img/tt/1027tt.jpg","",""
"3290.1999999999534","","","recognition","survey-text","520","1942408","0.0-6.0-3.73","3542263","co38155","norming","","","{""guess"":""paarden""}","","../img/tt/1027tt.jpg","",""
"null","../img/gs/1027gs.jpg","null","reveal","image-keyboard-response","521","1944412","0.0-6.0-4.73","3542263","co38155","norming","","","","","","",""
"null","../img/tt/1027tt.jpg","null","mooney2","image-keyboard-response","522","1946416","0.0-6.0-5.73","3542263","co38155","norming","","","","","","",""
"3939.5999999998603","","","post_reveal_questions","survey-likert","523","1950358","0.0-6.0-6.73","3542263","co38155","norming","","","{""aha"":2}","[0]","../img/tt/1027tt.jpg","",""
"null","<div style=""font-size:60px;""> </div>","null","fixation","html-keyboard-response","524","1950563","0.0-6.0-0.74","3542263","co38155","norming","","","","","","",""
"null","../img/tt/1270tt.jpg","null","mooney1","image-keyboard-response","525","1953565","0.0-6.0-1.74","3542263","co38155","norming","","","","","","",""
"4462.100000000093","","","post_mooney1_questions","survey-likert","526","1958029","0.0-6.0-2.74","3542263","co38155","norming","","","{""curiosity"":5,""confidence"":0}","[0,1]","../img/tt/1270tt.jpg","",""
"908.8000000000466","","","recognition","survey-text","527","1958943","0.0-6.0-3.74","3542263","co38155","norming","","","{""guess"":""""}","","../img/tt/1270tt.jpg","",""
"null","../img/gs/1270gs.jpg","null","reveal","image-keyboard-response","528","1960947","0.0-6.0-4.74","3542263","co38155","norming","","","","","","",""
"null","../img/tt/1270tt.jpg","null","mooney2","image-keyboard-response","529","1962952","0.0-6.0-5.74","3542263","co38155","norming","","","","","","",""
"3885","","","post_reveal_questions","survey-likert","530","1966838","0.0-6.0-6.74","3542263","co38155","norming","","","{""aha"":5}","[0]","../img/tt/1270tt.jpg","",""
"null","<div style=""font-size:60px;""> </div>","null","fixation","html-keyboard-response","531","1967053","0.0-6.0-0.75","3542263","co38155","norming","","","","","","",""
"null","../img/tt/1243tt.jpg","null","mooney1","image-keyboard-response","532","1970069","0.0-6.0-1.75","3542263","co38155","norming","","","","","","",""
"5580.100000000093","","","post_mooney1_questions","survey-likert","533","1975651","0.0-6.0-2.75","3542263","co38155","norming","","","{""curiosity"":4,""confidence"":4}","[0,1]","../img/tt/1243tt.jpg","",""
"3489.899999999907","","","recognition","survey-text","534","1979146","0.0-6.0-3.75","3542263","co38155","norming","","","{""guess"":""honden""}","","../img/tt/1243tt.jpg","",""
"null","../img/gs/1243gs.jpg","null","reveal","image-keyboard-response","535","1981161","0.0-6.0-4.75","3542263","co38155","norming","","","","","","",""
"null","../img/tt/1243tt.jpg","null","mooney2","image-keyboard-response","536","1983159","0.0-6.0-5.75","3542263","co38155","norming","","","","","","",""
"3456.8000000000465","","","post_reveal_questions","survey-likert","537","1986618","0.0-6.0-6.75","3542263","co38155","norming","","","{""aha"":5}","[0]","../img/tt/1243tt.jpg","",""
"null","<div style=""font-size:60px;""> </div>","null","fixation","html-keyboard-response","538","1986836","0.0-6.0-0.76","3542263","co38155","norming","","","","","","",""
"null","../img/tt/1186tt.jpg","null","mooney1","image-keyboard-response","539","1989848","0.0-6.0-1.76","3542263","co38155","norming","","","","","","",""
"7184.600000000093","","","post_mooney1_questions","survey-likert","540","1997035","0.0-6.0-2.76","3542263","co38155","norming","","","{""curiosity"":5,""confidence"":2}","[0,1]","../img/tt/1186tt.jpg","",""
"3531.899999999907","","","recognition","survey-text","541","2000572","0.0-6.0-3.76","3542263","co38155","norming","","","{""guess"":""sport""}","","../img/tt/1186tt.jpg","",""
"null","../img/gs/1186gs.jpg","null","reveal","image-keyboard-response","542","2002584","0.0-6.0-4.76","3542263","co38155","norming","","","","","","",""
"null","../img/tt/1186tt.jpg","null","mooney2","image-keyboard-response","543","2004585","0.0-6.0-5.76","3542263","co38155","norming","","","","","","",""
"3731.5999999998603","","","post_reveal_questions","survey-likert","544","2008318","0.0-6.0-6.76","3542263","co38155","norming","","","{""aha"":2}","[0]","../img/tt/1186tt.jpg","",""
"null","<div style=""font-size:60px;""> </div>","null","fixation","html-keyboard-response","545","2008535","0.0-6.0-0.77","3542263","co38155","norming","","","","","","",""
"null","../img/tt/1255tt.jpg","null","mooney1","image-keyboard-response","546","2011538","0.0-6.0-1.77","3542263","co38155","norming","","","","","","",""
"5283","","","post_mooney1_questions","survey-likert","547","2016823","0.0-6.0-2.77","3542263","co38155","norming","","","{""curiosity"":3,""confidence"":4}","[0,1]","../img/tt/1255tt.jpg","",""
"2984.5999999998603","","","recognition","survey-text","548","2019813","0.0-6.0-3.77","3542263","co38155","norming","","","{""guess"":""konijn""}","","../img/tt/1255tt.jpg","",""
"null","../img/gs/1255gs.jpg","null","reveal","image-keyboard-response","549","2021828","0.0-6.0-4.77","3542263","co38155","norming","","","","","","",""
"null","../img/tt/1255tt.jpg","null","mooney2","image-keyboard-response","550","2023829","0.0-6.0-5.77","3542263","co38155","norming","","","","","","",""
"11181.699999999953","","","post_reveal_questions","survey-likert","551","2035012","0.0-6.0-6.77","3542263","co38155","norming","","","{""aha"":0}","[0]","../img/tt/1255tt.jpg","",""
"null","<div style=""font-size:60px;""> </div>","null","fixation","html-keyboard-response","552","2035229","0.0-6.0-0.78","3542263","co38155","norming","","","","","","",""
"null","../img/tt/1126tt.jpg","null","mooney1","image-keyboard-response","553","2038247","0.0-6.0-1.78","3542263","co38155","norming","","","","","","",""
"6032.699999999953","","","post_mooney1_questions","survey-likert","554","2044281","0.0-6.0-2.78","3542263","co38155","norming","","","{""curiosity"":4,""confidence"":3}","[0,1]","../img/tt/1126tt.jpg","",""
