"rt","stimulus","key_press","test_part","trial_type","trial_index","time_elapsed","internal_node_id","totalTime","subject","experiment_name","button_pressed","success","responses","question_order","currentStim","old","correct"
"14551.519999999982","Welcome to the experiment. This is an online experiment so please don't close the tab/window until we say goodbye.  Press any key to begin.","32","instructions","html-keyboard-response","0","14570","0.0-0.0","5475684","co38089","norming","","","","","","",""
"42702.920000000006","<div style='word-wrap: break-word; width: 900px'><h3>Please consider this information carefully before deciding whether to participate in this research</h3><ul style='text-align: left; font-size: .8em;'><li><b>Purpose of the research</b>: To examine how people process images.</li><li><b>What you will do in this research</b>:  Stimuli (images) will be presented on the computer and you will be asked different questions about them.</li><li><b>Time required</b>: Participation will take between 45 and 60 minutes to complete.</li><li><b>Risks</b>:  There are no anticipated risks associated with participating in this study. The effects of participating should be comparable to those you would experience from viewing a computer monitor for 30 minutes and using a mouse or keyboard.</li><li><b>Benefits</b>:  This study provides no benefits to you individually except for the credit. The study provides important information about the nature of perception and learning.</li><li><b>Confidentiality</b>:  Your participation in this study will remain confidential. No personally identifiable information will be associated with your data. Your de-identified data may be shared with other researchers and used in future projects.</li><li><b>Participation and withdrawal</b>:  Your participation in this study is completely voluntary and you may refuse to participate or you may choose to withdraw at any time without penalty.</li><li><b>How to contact the researchers</b>: If you have questions or concerns about your participation or payment, or want to request a summary of research findings, please contact Sander Van de Cruys (KU Leuven), at sander.vandecruys@kuleuven.be.</li></ul><p>The nature and purpose of this research have been sufficiently explained and I agree to participate in this study.  I understand that I am free to withdraw at any time without incurring any penalty.</p><p>Please consent by clicking the button below to continue. Otherwise, please exit the study at this time.</p></div>","","instructions","html-button-response","1","57278","0.0-1.0","5475684","co38089","norming","0","","","","","",""
"","","","instructions","fullscreen","2","63199","0.0-2.0","5475684","co38089","norming","","true","","","","",""
"58745.93499999998","","","sona","survey-html-form","3","121950","0.0-3.0","5475684","co38089","norming","","","[{""name"":""sonaid"",""value"":""38089""},{""name"":""debrief"",""value"":""yes""},{""name"":""datajoin"",""value"":""yes""}]","","","",""
"153711.72500000003","<div style='word-wrap: break-word; width: 900px'><h3>Instructions</h3><p>This experiment will have 3 parts. In the first part you will see a series of distorted images like the one below on the left. As you can see in the righthand image, the distorted images are derived from actual photographs. In what follows, you will <strong>briefly</strong> be presented with <strong>only</strong> the distorted image.</p> <div style='float: left; margin-right: 20px;'><img src='../img/018tt.jpg' height='250' width='250'></img></div><div style='float: right; margin-left: 20px;'><img src='../img/018gs.jpg' height='250' width='250'></img></div><p>Subsequently you will be asked a few questions about the image: One question on how <strong>curious</strong> you are about the solution and one on how <strong>confident</strong> you are that you know the solution.</p>Next, we ask you to make a guess on what is in the image. Note that it is OK to name just the <strong>basic level category</strong>. For example when you see a parrot in the image, 'parrot' will obviously be a correct answer but also correct is 'bird'. However, 'animal' will <strong>not</strong> be counted as a correct response. For the example above, 'rose' would be correct or 'flower', but not 'plant'. When soccer players are depicted, 'soccer', 'football', 'soccer players' will be correct, but not 'humans', 'outdoors', or 'sports'. You do not need to describe the image in full, just name the main object in it <strong>in one or two words</strong>. All images depict objects from one of the following broad level categories: animals, inanimate objects, plants, sports, vehicles, and food. Recognizing means knowing <strong>more</strong> than these broad labels for a given image. But we always encourage you to <strong>make a guess</strong> if you can. Note that you are allowed to use <strong>Dutch and English</strong> in your answers, whatever comes easiest for you.</p><p>Press any key to continue.</p></div>","78","instructions","html-keyboard-response","4","275663","0.0-4.0","5475684","co38089","norming","","","","","","",""
"35315.600000000035","<div style='word-wrap: break-word; width: 900px'><h3>Instructions</h3> <p>Next, the solution image will be revealed to you and you'll be asked to indicate how strong your <strong>aha-experience</strong> was after seeing the solution. This describes the positive feeling of the 'click' you sometimes experience, when the pieces of the 'puzzle' fall together and you suddenly have 'insight' in the image.</p><img src='aha.jpg' height='188' width='250'></img><p>Note that there are no right or wrong answers. We are interested in what <strong>you</strong> see in the image and how <strong>you</strong> feel about it.</p><p>Press any key to start the experiment.</p></div>","32","instructions","html-keyboard-response","5","310981","0.0-5.0","5475684","co38089","norming","","","","","","",""
"null","<div style=""font-size:60px;""> </div>","null","fixation","html-keyboard-response","6","311196","0.0-6.0-0.0","5475684","co38089","norming","","","","","","",""
"null","../img/tt/1363tt.jpg","null","mooney1","image-keyboard-response","7","314210","0.0-6.0-1.0","5475684","co38089","norming","","","","","","",""
"23138.839999999967","","","post_mooney1_questions","survey-likert","8","337351","0.0-6.0-2.0","5475684","co38089","norming","","","{""curiosity"":4,""confidence"":1}","[0,1]","../img/tt/1363tt.jpg","",""
"6507.380000000005","","","recognition","survey-text","9","343862","0.0-6.0-3.0","5475684","co38089","norming","","","{""guess"":""schep""}","","../img/tt/1363tt.jpg","",""
"null","../img/gs/1363gs.jpg","null","reveal","image-keyboard-response","10","345877","0.0-6.0-4.0","5475684","co38089","norming","","","","","","",""
"null","../img/tt/1363tt.jpg","null","mooney2","image-keyboard-response","11","347890","0.0-6.0-5.0","5475684","co38089","norming","","","","","","",""
"6658.715000000026","","","post_reveal_questions","survey-likert","12","354550","0.0-6.0-6.0","5475684","co38089","norming","","","{""aha"":4}","[0]","../img/tt/1363tt.jpg","",""
"null","<div style=""font-size:60px;""> </div>","null","fixation","html-keyboard-response","13","354766","0.0-6.0-0.1","5475684","co38089","norming","","","","","","",""
"null","../img/tt/1122tt.jpg","null","mooney1","image-keyboard-response","14","357779","0.0-6.0-1.1","5475684","co38089","norming","","","","","","",""
"7505.039999999979","","","post_mooney1_questions","survey-likert","15","365286","0.0-6.0-2.1","5475684","co38089","norming","","","{""curiosity"":3,""confidence"":3}","[0,1]","../img/tt/1122tt.jpg","",""
"2869.5100000001257","","","recognition","survey-text","16","368157","0.0-6.0-3.1","5475684","co38089","norming","","","{""guess"":""bus""}","","../img/tt/1122tt.jpg","",""
"null","../img/gs/1122gs.jpg","null","reveal","image-keyboard-response","17","370173","0.0-6.0-4.1","5475684","co38089","norming","","","","","","",""
"null","../img/tt/1122tt.jpg","null","mooney2","image-keyboard-response","18","372189","0.0-6.0-5.1","5475684","co38089","norming","","","","","","",""
"6566.7399999999325","","","post_reveal_questions","survey-likert","19","378757","0.0-6.0-6.1","5475684","co38089","norming","","","{""aha"":2}","[0]","../img/tt/1122tt.jpg","",""
"null","<div style=""font-size:60px;""> </div>","null","fixation","html-keyboard-response","20","378974","0.0-6.0-0.2","5475684","co38089","norming","","","","","","",""
"null","../img/tt/599tt.jpg","null","mooney1","image-keyboard-response","21","381986","0.0-6.0-1.2","5475684","co38089","norming","","","","","","",""
"30881.959999999905","","","post_mooney1_questions","survey-likert","22","412870","0.0-6.0-2.2","5475684","co38089","norming","","","{""curiosity"":4,""confidence"":0}","[0,1]","../img/tt/599tt.jpg","",""
"9421.505000000063","","","recognition","survey-text","23","422293","0.0-6.0-3.2","5475684","co38089","norming","","","{""guess"":""krokodil""}","","../img/tt/599tt.jpg","",""
"null","../img/gs/599gs.jpg","null","reveal","image-keyboard-response","24","424295","0.0-6.0-4.2","5475684","co38089","norming","","","","","","",""
"null","../img/tt/599tt.jpg","null","mooney2","image-keyboard-response","25","426300","0.0-6.0-5.2","5475684","co38089","norming","","","","","","",""
"11376.119999999879","","","post_reveal_questions","survey-likert","26","437677","0.0-6.0-6.2","5475684","co38089","norming","","","{""aha"":4}","[0]","../img/tt/599tt.jpg","",""
"null","<div style=""font-size:60px;""> </div>","null","fixation","html-keyboard-response","27","437892","0.0-6.0-0.3","5475684","co38089","norming","","","","","","",""
"null","../img/tt/1012tt.jpg","null","mooney1","image-keyboard-response","28","440899","0.0-6.0-1.3","5475684","co38089","norming","","","","","","",""
"45225.49499999994","","","post_mooney1_questions","survey-likert","29","486126","0.0-6.0-2.3","5475684","co38089","norming","","","{""curiosity"":3,""confidence"":0}","[0,1]","../img/tt/1012tt.jpg","",""
"16020.995000000112","","","recognition","survey-text","30","502150","0.0-6.0-3.3","5475684","co38089","norming","","","{""guess"":""kikker""}","","../img/tt/1012tt.jpg","",""
"null","../img/gs/1012gs.jpg","null","reveal","image-keyboard-response","31","504157","0.0-6.0-4.3","5475684","co38089","norming","","","","","","",""
"null","../img/tt/1012tt.jpg","null","mooney2","image-keyboard-response","32","506165","0.0-6.0-5.3","5475684","co38089","norming","","","","","","",""
"5887.490000000107","","","post_reveal_questions","survey-likert","33","512054","0.0-6.0-6.3","5475684","co38089","norming","","","{""aha"":4}","[0]","../img/tt/1012tt.jpg","",""
"null","<div style=""font-size:60px;""> </div>","null","fixation","html-keyboard-response","34","512264","0.0-6.0-0.4","5475684","co38089","norming","","","","","","",""
"null","../img/tt/063tt.jpg","null","mooney1","image-keyboard-response","35","515278","0.0-6.0-1.4","5475684","co38089","norming","","","","","","",""
"12886.330000000075","","","post_mooney1_questions","survey-likert","36","528165","0.0-6.0-2.4","5475684","co38089","norming","","","{""curiosity"":4,""confidence"":1}","[0,1]","../img/tt/063tt.jpg","",""
"11293.604999999981","","","recognition","survey-text","37","539461","0.0-6.0-3.4","5475684","co38089","norming","","","{""guess"":""lade""}","","../img/tt/063tt.jpg","",""
"null","../img/gs/063gs.jpg","null","reveal","image-keyboard-response","38","541470","0.0-6.0-4.4","5475684","co38089","norming","","","","","","",""
"null","../img/tt/063tt.jpg","null","mooney2","image-keyboard-response","39","543483","0.0-6.0-5.4","5475684","co38089","norming","","","","","","",""
"10617.224999999977","","","post_reveal_questions","survey-likert","40","554101","0.0-6.0-6.4","5475684","co38089","norming","","","{""aha"":1}","[0]","../img/tt/063tt.jpg","",""
"null","<div style=""font-size:60px;""> </div>","null","fixation","html-keyboard-response","41","554317","0.0-6.0-0.5","5475684","co38089","norming","","","","","","",""
"null","../img/tt/435tt.jpg","null","mooney1","image-keyboard-response","42","557331","0.0-6.0-1.5","5475684","co38089","norming","","","","","","",""
"5465.284999999916","","","post_mooney1_questions","survey-likert","43","562797","0.0-6.0-2.5","5475684","co38089","norming","","","{""curiosity"":3,""confidence"":1}","[0,1]","../img/tt/435tt.jpg","",""
"6989.429999999935","","","recognition","survey-text","44","569789","0.0-6.0-3.5","5475684","co38089","norming","","","{""guess"":""piano""}","","../img/tt/435tt.jpg","",""
"null","../img/gs/435gs.jpg","null","reveal","image-keyboard-response","45","571791","0.0-6.0-4.5","5475684","co38089","norming","","","","","","",""
"null","../img/tt/435tt.jpg","null","mooney2","image-keyboard-response","46","573800","0.0-6.0-5.5","5475684","co38089","norming","","","","","","",""
"8395.06500000006","","","post_reveal_questions","survey-likert","47","582197","0.0-6.0-6.5","5475684","co38089","norming","","","{""aha"":3}","[0]","../img/tt/435tt.jpg","",""
"null","<div style=""font-size:60px;""> </div>","null","fixation","html-keyboard-response","48","582407","0.0-6.0-0.6","5475684","co38089","norming","","","","","","",""
"null","../img/tt/1243tt.jpg","null","mooney1","image-keyboard-response","49","585419","0.0-6.0-1.6","5475684","co38089","norming","","","","","","",""
"14121.484999999986","","","post_mooney1_questions","survey-likert","50","599542","0.0-6.0-2.6","5475684","co38089","norming","","","{""curiosity"":3,""confidence"":1}","[0,1]","../img/tt/1243tt.jpg","",""
"8436.494999999879","","","recognition","survey-text","51","607981","0.0-6.0-3.6","5475684","co38089","norming","","","{""guess"":""man""}","","../img/tt/1243tt.jpg","",""
"null","../img/gs/1243gs.jpg","null","reveal","image-keyboard-response","52","609993","0.0-6.0-4.6","5475684","co38089","norming","","","","","","",""
"null","../img/tt/1243tt.jpg","null","mooney2","image-keyboard-response","53","612004","0.0-6.0-5.6","5475684","co38089","norming","","","","","","",""
"4239.4349999999395","","","post_reveal_questions","survey-likert","54","616245","0.0-6.0-6.6","5475684","co38089","norming","","","{""aha"":3}","[0]","../img/tt/1243tt.jpg","",""
"null","<div style=""font-size:60px;""> </div>","null","fixation","html-keyboard-response","55","616462","0.0-6.0-0.7","5475684","co38089","norming","","","","","","",""
"null","../img/tt/1127tt.jpg","null","mooney1","image-keyboard-response","56","619473","0.0-6.0-1.7","5475684","co38089","norming","","","","","","",""
"5882.185000000056","","","post_mooney1_questions","survey-likert","57","625358","0.0-6.0-2.7","5475684","co38089","norming","","","{""curiosity"":3,""confidence"":1}","[0,1]","../img/tt/1127tt.jpg","",""
"3804.689999999944","","","recognition","survey-text","58","629165","0.0-6.0-3.7","5475684","co38089","norming","","","{""guess"":""huis""}","","../img/tt/1127tt.jpg","",""
"null","../img/gs/1127gs.jpg","null","reveal","image-keyboard-response","59","631182","0.0-6.0-4.7","5475684","co38089","norming","","","","","","",""
"null","../img/tt/1127tt.jpg","null","mooney2","image-keyboard-response","60","633185","0.0-6.0-5.7","5475684","co38089","norming","","","","","","",""
"4115.0449999999255","","","post_reveal_questions","survey-likert","61","637302","0.0-6.0-6.7","5475684","co38089","norming","","","{""aha"":3}","[0]","../img/tt/1127tt.jpg","",""
"null","<div style=""font-size:60px;""> </div>","null","fixation","html-keyboard-response","62","637507","0.0-6.0-0.8","5475684","co38089","norming","","","","","","",""
"null","../img/tt/1128tt.jpg","null","mooney1","image-keyboard-response","63","640521","0.0-6.0-1.8","5475684","co38089","norming","","","","","","",""
"7651.854999999981","","","post_mooney1_questions","survey-likert","64","648174","0.0-6.0-2.8","5475684","co38089","norming","","","{""curiosity"":4,""confidence"":2}","[0,1]","../img/tt/1128tt.jpg","",""
"5316.764999999898","","","recognition","survey-text","65","653494","0.0-6.0-3.8","5475684","co38089","norming","","","{""guess"":""aap""}","","../img/tt/1128tt.jpg","",""
"null","../img/gs/1128gs.jpg","null","reveal","image-keyboard-response","66","655502","0.0-6.0-4.8","5475684","co38089","norming","","","","","","",""
"null","../img/tt/1128tt.jpg","null","mooney2","image-keyboard-response","67","657515","0.0-6.0-5.8","5475684","co38089","norming","","","","","","",""
"6904.229999999981","","","post_reveal_questions","survey-likert","68","664421","0.0-6.0-6.8","5475684","co38089","norming","","","{""aha"":3}","[0]","../img/tt/1128tt.jpg","",""
"null","<div style=""font-size:60px;""> </div>","null","fixation","html-keyboard-response","69","664632","0.0-6.0-0.9","5475684","co38089","norming","","","","","","",""
"null","../img/tt/001tt.jpg","null","mooney1","image-keyboard-response","70","667642","0.0-6.0-1.9","5475684","co38089","norming","","","","","","",""
"12265.405000000028","","","post_mooney1_questions","survey-likert","71","679910","0.0-6.0-2.9","5475684","co38089","norming","","","{""curiosity"":4,""confidence"":1}","[0,1]","../img/tt/001tt.jpg","",""
"3357.545000000042","","","recognition","survey-text","72","683269","0.0-6.0-3.9","5475684","co38089","norming","","","{""guess"":""koe""}","","../img/tt/001tt.jpg","",""
"null","../img/gs/001gs.jpg","null","reveal","image-keyboard-response","73","685275","0.0-6.0-4.9","5475684","co38089","norming","","","","","","",""
"null","../img/tt/001tt.jpg","null","mooney2","image-keyboard-response","74","687288","0.0-6.0-5.9","5475684","co38089","norming","","","","","","",""
"3500.3349999999627","","","post_reveal_questions","survey-likert","75","690790","0.0-6.0-6.9","5475684","co38089","norming","","","{""aha"":3}","[0]","../img/tt/001tt.jpg","",""
"null","<div style=""font-size:60px;""> </div>","null","fixation","html-keyboard-response","76","691005","0.0-6.0-0.10","5475684","co38089","norming","","","","","","",""
"null","../img/tt/124tt.jpg","null","mooney1","image-keyboard-response","77","694014","0.0-6.0-1.10","5475684","co38089","norming","","","","","","",""
"9798.839999999967","","","post_mooney1_questions","survey-likert","78","703814","0.0-6.0-2.10","5475684","co38089","norming","","","{""curiosity"":3,""confidence"":1}","[0,1]","../img/tt/124tt.jpg","",""
"2995.3249999999534","","","recognition","survey-text","79","706813","0.0-6.0-3.10","5475684","co38089","norming","","","{""guess"":""aap""}","","../img/tt/124tt.jpg","",""
"null","../img/gs/124gs.jpg","null","reveal","image-keyboard-response","80","708828","0.0-6.0-4.10","5475684","co38089","norming","","","","","","",""
"null","../img/tt/124tt.jpg","null","mooney2","image-keyboard-response","81","710842","0.0-6.0-5.10","5475684","co38089","norming","","","","","","",""
"9329.570000000065","","","post_reveal_questions","survey-likert","82","720174","0.0-6.0-6.10","5475684","co38089","norming","","","{""aha"":1}","[0]","../img/tt/124tt.jpg","",""
"null","<div style=""font-size:60px;""> </div>","null","fixation","html-keyboard-response","83","720380","0.0-6.0-0.11","5475684","co38089","norming","","","","","","",""
"null","../img/tt/580tt.jpg","null","mooney1","image-keyboard-response","84","723381","0.0-6.0-1.11","5475684","co38089","norming","","","","","","",""
"6536.215000000084","","","post_mooney1_questions","survey-likert","85","729918","0.0-6.0-2.11","5475684","co38089","norming","","","{""curiosity"":4,""confidence"":0}","[0,1]","../img/tt/580tt.jpg","",""
"3692.9850000001024","","","recognition","survey-text","86","733614","0.0-6.0-3.11","5475684","co38089","norming","","","{""guess"":""man""}","","../img/tt/580tt.jpg","",""
"null","../img/gs/580gs.jpg","null","reveal","image-keyboard-response","87","735623","0.0-6.0-4.11","5475684","co38089","norming","","","","","","",""
"null","../img/tt/580tt.jpg","null","mooney2","image-keyboard-response","88","737639","0.0-6.0-5.11","5475684","co38089","norming","","","","","","",""
"4173.310000000056","","","post_reveal_questions","survey-likert","89","741814","0.0-6.0-6.11","5475684","co38089","norming","","","{""aha"":2}","[0]","../img/tt/580tt.jpg","",""
"null","<div style=""font-size:60px;""> </div>","null","fixation","html-keyboard-response","90","742023","0.0-6.0-0.12","5475684","co38089","norming","","","","","","",""
"null","../img/tt/497tt.jpg","null","mooney1","image-keyboard-response","91","745036","0.0-6.0-1.12","5475684","co38089","norming","","","","","","",""
"16053.649999999907","","","post_mooney1_questions","survey-likert","92","761094","0.0-6.0-2.12","5475684","co38089","norming","","","{""curiosity"":3,""confidence"":1}","[0,1]","../img/tt/497tt.jpg","",""
"5981.625","","","recognition","survey-text","93","767077","0.0-6.0-3.12","5475684","co38089","norming","","","{""guess"":""cafetafel""}","","../img/tt/497tt.jpg","",""
"null","../img/gs/497gs.jpg","null","reveal","image-keyboard-response","94","769093","0.0-6.0-4.12","5475684","co38089","norming","","","","","","",""
"null","../img/tt/497tt.jpg","null","mooney2","image-keyboard-response","95","771099","0.0-6.0-5.12","5475684","co38089","norming","","","","","","",""
"5975.979999999981","","","post_reveal_questions","survey-likert","96","777078","0.0-6.0-6.12","5475684","co38089","norming","","","{""aha"":3}","[0]","../img/tt/497tt.jpg","",""
"null","<div style=""font-size:60px;""> </div>","null","fixation","html-keyboard-response","97","777294","0.0-6.0-0.13","5475684","co38089","norming","","","","","","",""
"null","../img/tt/140tt.jpg","null","mooney1","image-keyboard-response","98","780311","0.0-6.0-1.13","5475684","co38089","norming","","","","","","",""
"5643.784999999916","","","post_mooney1_questions","survey-likert","99","785958","0.0-6.0-2.13","5475684","co38089","norming","","","{""curiosity"":3,""confidence"":3}","[0,1]","../img/tt/140tt.jpg","",""
"4325.780000000028","","","recognition","survey-text","100","790286","0.0-6.0-3.13","5475684","co38089","norming","","","{""guess"":""vork""}","","../img/tt/140tt.jpg","",""
"null","../img/gs/140gs.jpg","null","reveal","image-keyboard-response","101","792287","0.0-6.0-4.13","5475684","co38089","norming","","","","","","",""
"null","../img/tt/140tt.jpg","null","mooney2","image-keyboard-response","102","794301","0.0-6.0-5.13","5475684","co38089","norming","","","","","","",""
"4493.635000000126","","","post_reveal_questions","survey-likert","103","798798","0.0-6.0-6.13","5475684","co38089","norming","","","{""aha"":2}","[0]","../img/tt/140tt.jpg","",""
"null","<div style=""font-size:60px;""> </div>","null","fixation","html-keyboard-response","104","799003","0.0-6.0-0.14","5475684","co38089","norming","","","","","","",""
"null","../img/tt/094tt.jpg","null","mooney1","image-keyboard-response","105","802017","0.0-6.0-1.14","5475684","co38089","norming","","","","","","",""
"6922.064999999944","","","post_mooney1_questions","survey-likert","106","808942","0.0-6.0-2.14","5475684","co38089","norming","","","{""curiosity"":4,""confidence"":2}","[0,1]","../img/tt/094tt.jpg","",""
"3589.0599999999395","","","recognition","survey-text","107","812533","0.0-6.0-3.14","5475684","co38089","norming","","","{""guess"":""vos""}","","../img/tt/094tt.jpg","",""
"null","../img/gs/094gs.jpg","null","reveal","image-keyboard-response","108","814543","0.0-6.0-4.14","5475684","co38089","norming","","","","","","",""
"null","../img/tt/094tt.jpg","null","mooney2","image-keyboard-response","109","816560","0.0-6.0-5.14","5475684","co38089","norming","","","","","","",""
"4434.469999999972","","","post_reveal_questions","survey-likert","110","820997","0.0-6.0-6.14","5475684","co38089","norming","","","{""aha"":2}","[0]","../img/tt/094tt.jpg","",""
"null","<div style=""font-size:60px;""> </div>","null","fixation","html-keyboard-response","111","821214","0.0-6.0-0.15","5475684","co38089","norming","","","","","","",""
"null","../img/tt/405tt.jpg","null","mooney1","image-keyboard-response","112","824217","0.0-6.0-1.15","5475684","co38089","norming","","","","","","",""
"22050.27000000002","","","post_mooney1_questions","survey-likert","113","846270","0.0-6.0-2.15","5475684","co38089","norming","","","{""curiosity"":3,""confidence"":1}","[0,1]","../img/tt/405tt.jpg","",""
"5141.77499999979","","","recognition","survey-text","114","851414","0.0-6.0-3.15","5475684","co38089","norming","","","{""guess"":""dier""}","","../img/tt/405tt.jpg","",""
"null","../img/gs/405gs.jpg","null","reveal","image-keyboard-response","115","853417","0.0-6.0-4.15","5475684","co38089","norming","","","","","","",""
"null","../img/tt/405tt.jpg","null","mooney2","image-keyboard-response","116","855432","0.0-6.0-5.15","5475684","co38089","norming","","","","","","",""
"4275.449999999837","","","post_reveal_questions","survey-likert","117","859711","0.0-6.0-6.15","5475684","co38089","norming","","","{""aha"":3}","[0]","../img/tt/405tt.jpg","",""
"null","<div style=""font-size:60px;""> </div>","null","fixation","html-keyboard-response","118","859918","0.0-6.0-0.16","5475684","co38089","norming","","","","","","",""
"null","../img/tt/319tt.jpg","null","mooney1","image-keyboard-response","119","862936","0.0-6.0-1.16","5475684","co38089","norming","","","","","","",""
"5819.375","","","post_mooney1_questions","survey-likert","120","868759","0.0-6.0-2.16","5475684","co38089","norming","","","{""curiosity"":3,""confidence"":3}","[0,1]","../img/tt/319tt.jpg","",""
"5549.679999999818","","","recognition","survey-text","121","874310","0.0-6.0-3.16","5475684","co38089","norming","","","{""guess"":""2 ezels""}","","../img/tt/319tt.jpg","",""
"null","../img/gs/319gs.jpg","null","reveal","image-keyboard-response","122","876320","0.0-6.0-4.16","5475684","co38089","norming","","","","","","",""
"null","../img/tt/319tt.jpg","null","mooney2","image-keyboard-response","123","878328","0.0-6.0-5.16","5475684","co38089","norming","","","","","","",""
"9684.470000000205","","","post_reveal_questions","survey-likert","124","888014","0.0-6.0-6.16","5475684","co38089","norming","","","{""aha"":1}","[0]","../img/tt/319tt.jpg","",""
"null","<div style=""font-size:60px;""> </div>","null","fixation","html-keyboard-response","125","888223","0.0-6.0-0.17","5475684","co38089","norming","","","","","","",""
"null","../img/tt/1181tt.jpg","null","mooney1","image-keyboard-response","126","891232","0.0-6.0-1.17","5475684","co38089","norming","","","","","","",""
"7779.640000000014","","","post_mooney1_questions","survey-likert","127","899014","0.0-6.0-2.17","5475684","co38089","norming","","","{""curiosity"":4,""confidence"":1}","[0,1]","../img/tt/1181tt.jpg","",""
"4693.555000000051","","","recognition","survey-text","128","903710","0.0-6.0-3.17","5475684","co38089","norming","","","{""guess"":""paard""}","","../img/tt/1181tt.jpg","",""
"null","../img/gs/1181gs.jpg","null","reveal","image-keyboard-response","129","905712","0.0-6.0-4.17","5475684","co38089","norming","","","","","","",""
"null","../img/tt/1181tt.jpg","null","mooney2","image-keyboard-response","130","907724","0.0-6.0-5.17","5475684","co38089","norming","","","","","","",""
"10199.219999999972","","","post_reveal_questions","survey-likert","131","917926","0.0-6.0-6.17","5475684","co38089","norming","","","{""aha"":3}","[0]","../img/tt/1181tt.jpg","",""
"null","<div style=""font-size:60px;""> </div>","null","fixation","html-keyboard-response","132","918132","0.0-6.0-0.18","5475684","co38089","norming","","","","","","",""
"null","../img/tt/1261tt.jpg","null","mooney1","image-keyboard-response","133","921136","0.0-6.0-1.18","5475684","co38089","norming","","","","","","",""
"7786.789999999921","","","post_mooney1_questions","survey-likert","134","928926","0.0-6.0-2.18","5475684","co38089","norming","","","{""curiosity"":4,""confidence"":0}","[0,1]","../img/tt/1261tt.jpg","",""
"3957.4749999999767","","","recognition","survey-text","135","932885","0.0-6.0-3.18","5475684","co38089","norming","","","{""guess"":""graan""}","","../img/tt/1261tt.jpg","",""
"null","../img/gs/1261gs.jpg","null","reveal","image-keyboard-response","136","934889","0.0-6.0-4.18","5475684","co38089","norming","","","","","","",""
"null","../img/tt/1261tt.jpg","null","mooney2","image-keyboard-response","137","936902","0.0-6.0-5.18","5475684","co38089","norming","","","","","","",""
"4621.785000000033","","","post_reveal_questions","survey-likert","138","941526","0.0-6.0-6.18","5475684","co38089","norming","","","{""aha"":3}","[0]","../img/tt/1261tt.jpg","",""
"null","<div style=""font-size:60px;""> </div>","null","fixation","html-keyboard-response","139","941740","0.0-6.0-0.19","5475684","co38089","norming","","","","","","",""
"null","../img/tt/270tt.jpg","null","mooney1","image-keyboard-response","140","944754","0.0-6.0-1.19","5475684","co38089","norming","","","","","","",""
"8513.030000000028","","","post_mooney1_questions","survey-likert","141","953270","0.0-6.0-2.19","5475684","co38089","norming","","","{""curiosity"":4,""confidence"":0}","[0,1]","../img/tt/270tt.jpg","",""
"6676.955000000191","","","recognition","survey-text","142","959949","0.0-6.0-3.19","5475684","co38089","norming","","","{""guess"":""konijn""}","","../img/tt/270tt.jpg","",""
"null","../img/gs/270gs.jpg","null","reveal","image-keyboard-response","143","961962","0.0-6.0-4.19","5475684","co38089","norming","","","","","","",""
"null","../img/tt/270tt.jpg","null","mooney2","image-keyboard-response","144","963979","0.0-6.0-5.19","5475684","co38089","norming","","","","","","",""
"2816.0849999999627","","","post_reveal_questions","survey-likert","145","966798","0.0-6.0-6.19","5475684","co38089","norming","","","{""aha"":3}","[0]","../img/tt/270tt.jpg","",""
"null","<div style=""font-size:60px;""> </div>","null","fixation","html-keyboard-response","146","967014","0.0-6.0-0.20","5475684","co38089","norming","","","","","","",""
"null","../img/tt/1096tt.jpg","null","mooney1","image-keyboard-response","147","970024","0.0-6.0-1.20","5475684","co38089","norming","","","","","","",""
"6834.34999999986","","","post_mooney1_questions","survey-likert","148","976862","0.0-6.0-2.20","5475684","co38089","norming","","","{""curiosity"":4,""confidence"":0}","[0,1]","../img/tt/1096tt.jpg","",""
"3389.7900000001537","","","recognition","survey-text","149","980254","0.0-6.0-3.20","5475684","co38089","norming","","","{""guess"":""huis""}","","../img/tt/1096tt.jpg","",""
"null","../img/gs/1096gs.jpg","null","reveal","image-keyboard-response","150","982268","0.0-6.0-4.20","5475684","co38089","norming","","","","","","",""
"null","../img/tt/1096tt.jpg","null","mooney2","image-keyboard-response","151","984276","0.0-6.0-5.20","5475684","co38089","norming","","","","","","",""
"5510.749999999884","","","post_reveal_questions","survey-likert","152","989790","0.0-6.0-6.20","5475684","co38089","norming","","","{""aha"":3}","[0]","../img/tt/1096tt.jpg","",""
"null","<div style=""font-size:60px;""> </div>","null","fixation","html-keyboard-response","153","989991","0.0-6.0-0.21","5475684","co38089","norming","","","","","","",""
"null","../img/tt/279tt.jpg","null","mooney1","image-keyboard-response","154","993007","0.0-6.0-1.21","5475684","co38089","norming","","","","","","",""
"5932.319999999949","","","post_mooney1_questions","survey-likert","155","998942","0.0-6.0-2.21","5475684","co38089","norming","","","{""curiosity"":3,""confidence"":4}","[0,1]","../img/tt/279tt.jpg","",""
"3781.1350000000093","","","recognition","survey-text","156","1002725","0.0-6.0-3.21","5475684","co38089","norming","","","{""guess"":""koala""}","","../img/tt/279tt.jpg","",""
"null","../img/gs/279gs.jpg","null","reveal","image-keyboard-response","157","1004733","0.0-6.0-4.21","5475684","co38089","norming","","","","","","",""
"null","../img/tt/279tt.jpg","null","mooney2","image-keyboard-response","158","1006748","0.0-6.0-5.21","5475684","co38089","norming","","","","","","",""
"8911.31500000006","","","post_reveal_questions","survey-likert","159","1015662","0.0-6.0-6.21","5475684","co38089","norming","","","{""aha"":1}","[0]","../img/tt/279tt.jpg","",""
"null","<div style=""font-size:60px;""> </div>","null","fixation","html-keyboard-response","160","1015866","0.0-6.0-0.22","5475684","co38089","norming","","","","","","",""
"null","../img/tt/1151tt.jpg","null","mooney1","image-keyboard-response","161","1018870","0.0-6.0-1.22","5475684","co38089","norming","","","","","","",""
"7181.230000000098","","","post_mooney1_questions","survey-likert","162","1026054","0.0-6.0-2.22","5475684","co38089","norming","","","{""curiosity"":4,""confidence"":0}","[0,1]","../img/tt/1151tt.jpg","",""
"3221.0049999998882","","","recognition","survey-text","163","1029277","0.0-6.0-3.22","5475684","co38089","norming","","","{""guess"":""mens""}","","../img/tt/1151tt.jpg","",""
"null","../img/gs/1151gs.jpg","null","reveal","image-keyboard-response","164","1031290","0.0-6.0-4.22","5475684","co38089","norming","","","","","","",""
"null","../img/tt/1151tt.jpg","null","mooney2","image-keyboard-response","165","1033307","0.0-6.0-5.22","5475684","co38089","norming","","","","","","",""
"3824.3649999998743","","","post_reveal_questions","survey-likert","166","1037134","0.0-6.0-6.22","5475684","co38089","norming","","","{""aha"":3}","[0]","../img/tt/1151tt.jpg","",""
"null","<div style=""font-size:60px;""> </div>","null","fixation","html-keyboard-response","167","1037343","0.0-6.0-0.23","5475684","co38089","norming","","","","","","",""
"null","../img/tt/1235tt.jpg","null","mooney1","image-keyboard-response","168","1040358","0.0-6.0-1.23","5475684","co38089","norming","","","","","","",""
"8789.180000000051","","","post_mooney1_questions","survey-likert","169","1049150","0.0-6.0-2.23","5475684","co38089","norming","","","{""curiosity"":4,""confidence"":1}","[0,1]","../img/tt/1235tt.jpg","",""
"3292.970000000205","","","recognition","survey-text","170","1052445","0.0-6.0-3.23","5475684","co38089","norming","","","{""guess"":""paard""}","","../img/tt/1235tt.jpg","",""
"null","../img/gs/1235gs.jpg","null","reveal","image-keyboard-response","171","1054447","0.0-6.0-4.23","5475684","co38089","norming","","","","","","",""
"null","../img/tt/1235tt.jpg","null","mooney2","image-keyboard-response","172","1056456","0.0-6.0-5.23","5475684","co38089","norming","","","","","","",""
"15019.794999999925","","","post_reveal_questions","survey-likert","173","1071478","0.0-6.0-6.23","5475684","co38089","norming","","","{""aha"":3}","[0]","../img/tt/1235tt.jpg","",""
"null","<div style=""font-size:60px;""> </div>","null","fixation","html-keyboard-response","174","1071681","0.0-6.0-0.24","5475684","co38089","norming","","","","","","",""
"null","../img/tt/1154tt.jpg","null","mooney1","image-keyboard-response","175","1074695","0.0-6.0-1.24","5475684","co38089","norming","","","","","","",""
"6139.199999999953","","","post_mooney1_questions","survey-likert","176","1080837","0.0-6.0-2.24","5475684","co38089","norming","","","{""curiosity"":4,""confidence"":1}","[0,1]","../img/tt/1154tt.jpg","",""
"5102.369999999646","","","recognition","survey-text","177","1085942","0.0-6.0-3.24","5475684","co38089","norming","","","{""guess"":""rendier""}","","../img/tt/1154tt.jpg","",""
"null","../img/gs/1154gs.jpg","null","reveal","image-keyboard-response","178","1087956","0.0-6.0-4.24","5475684","co38089","norming","","","","","","",""
"null","../img/tt/1154tt.jpg","null","mooney2","image-keyboard-response","179","1089971","0.0-6.0-5.24","5475684","co38089","norming","","","","","","",""
"6199.519999999786","","","post_reveal_questions","survey-likert","180","1096174","0.0-6.0-6.24","5475684","co38089","norming","","","{""aha"":3}","[0]","../img/tt/1154tt.jpg","",""
"null","<div style=""font-size:60px;""> </div>","null","fixation","html-keyboard-response","181","1096389","0.0-6.0-0.25","5475684","co38089","norming","","","","","","",""
"null","../img/tt/1239tt.jpg","null","mooney1","image-keyboard-response","182","1099402","0.0-6.0-1.25","5475684","co38089","norming","","","","","","",""
"6600.584999999963","","","post_mooney1_questions","survey-likert","183","1106006","0.0-6.0-2.25","5475684","co38089","norming","","","{""curiosity"":4,""confidence"":2}","[0,1]","../img/tt/1239tt.jpg","",""
"4117.040000000037","","","recognition","survey-text","184","1110125","0.0-6.0-3.25","5475684","co38089","norming","","","{""guess"":""hond""}","","../img/tt/1239tt.jpg","",""
"null","../img/gs/1239gs.jpg","null","reveal","image-keyboard-response","185","1112140","0.0-6.0-4.25","5475684","co38089","norming","","","","","","",""
"null","../img/tt/1239tt.jpg","null","mooney2","image-keyboard-response","186","1114147","0.0-6.0-5.25","5475684","co38089","norming","","","","","","",""
"3295.364999999758","","","post_reveal_questions","survey-likert","187","1117446","0.0-6.0-6.25","5475684","co38089","norming","","","{""aha"":1}","[0]","../img/tt/1239tt.jpg","",""
"null","<div style=""font-size:60px;""> </div>","null","fixation","html-keyboard-response","188","1117649","0.0-6.0-0.26","5475684","co38089","norming","","","","","","",""
"null","../img/tt/517tt.jpg","null","mooney1","image-keyboard-response","189","1120660","0.0-6.0-1.26","5475684","co38089","norming","","","","","","",""
"6735.284999999916","","","post_mooney1_questions","survey-likert","190","1127398","0.0-6.0-2.26","5475684","co38089","norming","","","{""curiosity"":4,""confidence"":2}","[0,1]","../img/tt/517tt.jpg","",""
"4437.529999999795","","","recognition","survey-text","191","1131838","0.0-6.0-3.26","5475684","co38089","norming","","","{""guess"":""hamster""}","","../img/tt/517tt.jpg","",""
"null","../img/gs/517gs.jpg","null","reveal","image-keyboard-response","192","1133840","0.0-6.0-4.26","5475684","co38089","norming","","","","","","",""
"null","../img/tt/517tt.jpg","null","mooney2","image-keyboard-response","193","1135856","0.0-6.0-5.26","5475684","co38089","norming","","","","","","",""
"5107.300000000279","","","post_reveal_questions","survey-likert","194","1140966","0.0-6.0-6.26","5475684","co38089","norming","","","{""aha"":2}","[0]","../img/tt/517tt.jpg","",""
"null","<div style=""font-size:60px;""> </div>","null","fixation","html-keyboard-response","195","1141176","0.0-6.0-0.27","5475684","co38089","norming","","","","","","",""
"null","../img/tt/1232tt.jpg","null","mooney1","image-keyboard-response","196","1144182","0.0-6.0-1.27","5475684","co38089","norming","","","","","","",""
"11356.950000000186","","","post_mooney1_questions","survey-likert","197","1155542","0.0-6.0-2.27","5475684","co38089","norming","","","{""curiosity"":4,""confidence"":2}","[0,1]","../img/tt/1232tt.jpg","",""
"3173.3700000001118","","","recognition","survey-text","198","1158717","0.0-6.0-3.27","5475684","co38089","norming","","","{""guess"":""hoed""}","","../img/tt/1232tt.jpg","",""
"null","../img/gs/1232gs.jpg","null","reveal","image-keyboard-response","199","1160731","0.0-6.0-4.27","5475684","co38089","norming","","","","","","",""
"null","../img/tt/1232tt.jpg","null","mooney2","image-keyboard-response","200","1162747","0.0-6.0-5.27","5475684","co38089","norming","","","","","","",""
"6992.175000000047","","","post_reveal_questions","survey-likert","201","1169742","0.0-6.0-6.27","5475684","co38089","norming","","","{""aha"":3}","[0]","../img/tt/1232tt.jpg","",""
"null","<div style=""font-size:60px;""> </div>","null","fixation","html-keyboard-response","202","1169950","0.0-6.0-0.28","5475684","co38089","norming","","","","","","",""
"null","../img/tt/418tt.jpg","null","mooney1","image-keyboard-response","203","1172957","0.0-6.0-1.28","5475684","co38089","norming","","","","","","",""
"30445.669999999925","","","post_mooney1_questions","survey-likert","204","1203405","0.0-6.0-2.28","5475684","co38089","norming","","","{""curiosity"":3,""confidence"":0}","[0,1]","../img/tt/418tt.jpg","",""
"3422.3350000001956","","","recognition","survey-text","205","1206830","0.0-6.0-3.28","5475684","co38089","norming","","","{""guess"":""man""}","","../img/tt/418tt.jpg","",""
"null","../img/gs/418gs.jpg","null","reveal","image-keyboard-response","206","1208836","0.0-6.0-4.28","5475684","co38089","norming","","","","","","",""
"null","../img/tt/418tt.jpg","null","mooney2","image-keyboard-response","207","1210840","0.0-6.0-5.28","5475684","co38089","norming","","","","","","",""
"4723.165000000037","","","post_reveal_questions","survey-likert","208","1215566","0.0-6.0-6.28","5475684","co38089","norming","","","{""aha"":3}","[0]","../img/tt/418tt.jpg","",""
"null","<div style=""font-size:60px;""> </div>","null","fixation","html-keyboard-response","209","1215767","0.0-6.0-0.29","5475684","co38089","norming","","","","","","",""
"null","../img/tt/306tt.jpg","null","mooney1","image-keyboard-response","210","1218785","0.0-6.0-1.29","5475684","co38089","norming","","","","","","",""
"8650.444999999832","","","post_mooney1_questions","survey-likert","211","1227438","0.0-6.0-2.29","5475684","co38089","norming","","","{""curiosity"":4,""confidence"":1}","[0,1]","../img/tt/306tt.jpg","",""
"3333.0049999998882","","","recognition","survey-text","212","1230773","0.0-6.0-3.29","5475684","co38089","norming","","","{""guess"":""fles""}","","../img/tt/306tt.jpg","",""
"null","../img/gs/306gs.jpg","null","reveal","image-keyboard-response","213","1232775","0.0-6.0-4.29","5475684","co38089","norming","","","","","","",""
"null","../img/tt/306tt.jpg","null","mooney2","image-keyboard-response","214","1234790","0.0-6.0-5.29","5475684","co38089","norming","","","","","","",""
"5397.570000000298","","","post_reveal_questions","survey-likert","215","1240190","0.0-6.0-6.29","5475684","co38089","norming","","","{""aha"":4}","[0]","../img/tt/306tt.jpg","",""
"null","<div style=""font-size:60px;""> </div>","null","fixation","html-keyboard-response","216","1240392","0.0-6.0-0.30","5475684","co38089","norming","","","","","","",""
"null","../img/tt/1217tt.jpg","null","mooney1","image-keyboard-response","217","1243399","0.0-6.0-1.30","5475684","co38089","norming","","","","","","",""
"6820.235000000102","","","post_mooney1_questions","survey-likert","218","1250222","0.0-6.0-2.30","5475684","co38089","norming","","","{""curiosity"":4,""confidence"":1}","[0,1]","../img/tt/1217tt.jpg","",""
"2757.090000000084","","","recognition","survey-text","219","1252981","0.0-6.0-3.30","5475684","co38089","norming","","","{""guess"":""koe""}","","../img/tt/1217tt.jpg","",""
"null","../img/gs/1217gs.jpg","null","reveal","image-keyboard-response","220","1254984","0.0-6.0-4.30","5475684","co38089","norming","","","","","","",""
"null","../img/tt/1217tt.jpg","null","mooney2","image-keyboard-response","221","1257000","0.0-6.0-5.30","5475684","co38089","norming","","","","","","",""
"2299.3700000001118","","","post_reveal_questions","survey-likert","222","1259302","0.0-6.0-6.30","5475684","co38089","norming","","","{""aha"":3}","[0]","../img/tt/1217tt.jpg","",""
"null","<div style=""font-size:60px;""> </div>","null","fixation","html-keyboard-response","223","1259518","0.0-6.0-0.31","5475684","co38089","norming","","","","","","",""
"null","../img/tt/534tt.jpg","null","mooney1","image-keyboard-response","224","1262533","0.0-6.0-1.31","5475684","co38089","norming","","","","","","",""
"6917.555000000168","","","post_mooney1_questions","survey-likert","225","1269454","0.0-6.0-2.31","5475684","co38089","norming","","","{""curiosity"":4,""confidence"":1}","[0,1]","../img/tt/534tt.jpg","",""
"5798.3300000000745","","","recognition","survey-text","226","1275254","0.0-6.0-3.31","5475684","co38089","norming","","","{""guess"":""brandnetels""}","","../img/tt/534tt.jpg","",""
"null","../img/gs/534gs.jpg","null","reveal","image-keyboard-response","227","1277255","0.0-6.0-4.31","5475684","co38089","norming","","","","","","",""
"null","../img/tt/534tt.jpg","null","mooney2","image-keyboard-response","228","1279258","0.0-6.0-5.31","5475684","co38089","norming","","","","","","",""
"2745.744999999879","","","post_reveal_questions","survey-likert","229","1282006","0.0-6.0-6.31","5475684","co38089","norming","","","{""aha"":3}","[0]","../img/tt/534tt.jpg","",""
"null","<div style=""font-size:60px;""> </div>","null","fixation","html-keyboard-response","230","1282212","0.0-6.0-0.32","5475684","co38089","norming","","","","","","",""
"null","../img/tt/1002tt.jpg","null","mooney1","image-keyboard-response","231","1285230","0.0-6.0-1.32","5475684","co38089","norming","","","","","","",""
"35765.35999999987","","","post_mooney1_questions","survey-likert","232","1320998","0.0-6.0-2.32","5475684","co38089","norming","","","{""curiosity"":3,""confidence"":1}","[0,1]","../img/tt/1002tt.jpg","",""
"4005.6450000000186","","","recognition","survey-text","233","1325006","0.0-6.0-3.32","5475684","co38089","norming","","","{""guess"":""water""}","","../img/tt/1002tt.jpg","",""
"null","../img/gs/1002gs.jpg","null","reveal","image-keyboard-response","234","1327008","0.0-6.0-4.32","5475684","co38089","norming","","","","","","",""
"null","../img/tt/1002tt.jpg","null","mooney2","image-keyboard-response","235","1329018","0.0-6.0-5.32","5475684","co38089","norming","","","","","","",""
"3808.8149999997113","","","post_reveal_questions","survey-likert","236","1332830","0.0-6.0-6.32","5475684","co38089","norming","","","{""aha"":3}","[0]","../img/tt/1002tt.jpg","",""
"null","<div style=""font-size:60px;""> </div>","null","fixation","html-keyboard-response","237","1333044","0.0-6.0-0.33","5475684","co38089","norming","","","","","","",""
"null","../img/tt/481tt.jpg","null","mooney1","image-keyboard-response","238","1336048","0.0-6.0-1.33","5475684","co38089","norming","","","","","","",""
"9402.909999999916","","","post_mooney1_questions","survey-likert","239","1345454","0.0-6.0-2.33","5475684","co38089","norming","","","{""curiosity"":4,""confidence"":0}","[0,1]","../img/tt/481tt.jpg","",""
"5525.810000000056","","","recognition","survey-text","240","1350982","0.0-6.0-3.33","5475684","co38089","norming","","","{""guess"":""dier""}","","../img/tt/481tt.jpg","",""
"null","../img/gs/481gs.jpg","null","reveal","image-keyboard-response","241","1352986","0.0-6.0-4.33","5475684","co38089","norming","","","","","","",""
"null","../img/tt/481tt.jpg","null","mooney2","image-keyboard-response","242","1355001","0.0-6.0-5.33","5475684","co38089","norming","","","","","","",""
"9378.464999999851","","","post_reveal_questions","survey-likert","243","1364382","0.0-6.0-6.33","5475684","co38089","norming","","","{""aha"":3}","[0]","../img/tt/481tt.jpg","",""
"null","<div style=""font-size:60px;""> </div>","null","fixation","html-keyboard-response","244","1364585","0.0-6.0-0.34","5475684","co38089","norming","","","","","","",""
"null","../img/tt/1251tt.jpg","null","mooney1","image-keyboard-response","245","1367600","0.0-6.0-1.34","5475684","co38089","norming","","","","","","",""
"5619.829999999842","","","post_mooney1_questions","survey-likert","246","1373223","0.0-6.0-2.34","5475684","co38089","norming","","","{""curiosity"":4,""confidence"":1}","[0,1]","../img/tt/1251tt.jpg","",""
"3909.404999999795","","","recognition","survey-text","247","1377134","0.0-6.0-3.34","5475684","co38089","norming","","","{""guess"":""muur""}","","../img/tt/1251tt.jpg","",""
"null","../img/gs/1251gs.jpg","null","reveal","image-keyboard-response","248","1379139","0.0-6.0-4.34","5475684","co38089","norming","","","","","","",""
"null","../img/tt/1251tt.jpg","null","mooney2","image-keyboard-response","249","1381143","0.0-6.0-5.34","5475684","co38089","norming","","","","","","",""
"16716.24500000011","","","post_reveal_questions","survey-likert","250","1397862","0.0-6.0-6.34","5475684","co38089","norming","","","{""aha"":3}","[0]","../img/tt/1251tt.jpg","",""
"null","<div style=""font-size:60px;""> </div>","null","fixation","html-keyboard-response","251","1398074","0.0-6.0-0.35","5475684","co38089","norming","","","","","","",""
"null","../img/tt/010tt.jpg","null","mooney1","image-keyboard-response","252","1401078","0.0-6.0-1.35","5475684","co38089","norming","","","","","","",""
"9188.994999999879","","","post_mooney1_questions","survey-likert","253","1410270","0.0-6.0-2.35","5475684","co38089","norming","","","{""curiosity"":3,""confidence"":1}","[0,1]","../img/tt/010tt.jpg","",""
"10733.770000000019","","","recognition","survey-text","254","1421006","0.0-6.0-3.35","5475684","co38089","norming","","","{""guess"":""kikker""}","","../img/tt/010tt.jpg","",""
"null","../img/gs/010gs.jpg","null","reveal","image-keyboard-response","255","1423018","0.0-6.0-4.35","5475684","co38089","norming","","","","","","",""
"null","../img/tt/010tt.jpg","null","mooney2","image-keyboard-response","256","1425027","0.0-6.0-5.35","5475684","co38089","norming","","","","","","",""
"10464.399999999907","","","post_reveal_questions","survey-likert","257","1435494","0.0-6.0-6.35","5475684","co38089","norming","","","{""aha"":3}","[0]","../img/tt/010tt.jpg","",""
"null","<div style=""font-size:60px;""> </div>","null","fixation","html-keyboard-response","258","1435711","0.0-6.0-0.36","5475684","co38089","norming","","","","","","",""
"null","../img/tt/126tt.jpg","null","mooney1","image-keyboard-response","259","1438721","0.0-6.0-1.36","5475684","co38089","norming","","","","","","",""
"9786.125","","","post_mooney1_questions","survey-likert","260","1448510","0.0-6.0-2.36","5475684","co38089","norming","","","{""curiosity"":3,""confidence"":1}","[0,1]","../img/tt/126tt.jpg","",""
"11773.760000000242","","","recognition","survey-text","261","1460286","0.0-6.0-3.36","5475684","co38089","norming","","","{""guess"":""water""}","","../img/tt/126tt.jpg","",""
"null","../img/gs/126gs.jpg","null","reveal","image-keyboard-response","262","1462301","0.0-6.0-4.36","5475684","co38089","norming","","","","","","",""
"null","../img/tt/126tt.jpg","null","mooney2","image-keyboard-response","263","1464312","0.0-6.0-5.36","5475684","co38089","norming","","","","","","",""
"7130.949999999953","","","post_reveal_questions","survey-likert","264","1471446","0.0-6.0-6.36","5475684","co38089","norming","","","{""aha"":3}","[0]","../img/tt/126tt.jpg","",""
"null","<div style=""font-size:60px;""> </div>","null","fixation","html-keyboard-response","265","1471651","0.0-6.0-0.37","5475684","co38089","norming","","","","","","",""
"null","../img/tt/079tt.jpg","null","mooney1","image-keyboard-response","266","1474664","0.0-6.0-1.37","5475684","co38089","norming","","","","","","",""
"20011.74499999988","","","post_mooney1_questions","survey-likert","267","1494679","0.0-6.0-2.37","5475684","co38089","norming","","","{""curiosity"":3,""confidence"":1}","[0,1]","../img/tt/079tt.jpg","",""
"4997.445000000065","","","recognition","survey-text","268","1499678","0.0-6.0-3.37","5475684","co38089","norming","","","{""guess"":""paard""}","","../img/tt/079tt.jpg","",""
"null","../img/gs/079gs.jpg","null","reveal","image-keyboard-response","269","1501687","0.0-6.0-4.37","5475684","co38089","norming","","","","","","",""
"null","../img/tt/079tt.jpg","null","mooney2","image-keyboard-response","270","1503702","0.0-6.0-5.37","5475684","co38089","norming","","","","","","",""
"48518.335000000196","","","post_reveal_questions","survey-likert","271","1552222","0.0-6.0-6.37","5475684","co38089","norming","","","{""aha"":3}","[0]","../img/tt/079tt.jpg","",""
"null","<div style=""font-size:60px;""> </div>","null","fixation","html-keyboard-response","272","1552424","0.0-6.0-0.38","5475684","co38089","norming","","","","","","",""
"null","../img/tt/1189tt.jpg","null","mooney1","image-keyboard-response","273","1555427","0.0-6.0-1.38","5475684","co38089","norming","","","","","","",""
"8104.145000000019","","","post_mooney1_questions","survey-likert","274","1563535","0.0-6.0-2.38","5475684","co38089","norming","","","{""curiosity"":3,""confidence"":0}","[0,1]","../img/tt/1189tt.jpg","",""
"3732.8799999996554","","","recognition","survey-text","275","1567269","0.0-6.0-3.38","5475684","co38089","norming","","","{""guess"":""eend""}","","../img/tt/1189tt.jpg","",""
"null","../img/gs/1189gs.jpg","null","reveal","image-keyboard-response","276","1569282","0.0-6.0-4.38","5475684","co38089","norming","","","","","","",""
"null","../img/tt/1189tt.jpg","null","mooney2","image-keyboard-response","277","1571296","0.0-6.0-5.38","5475684","co38089","norming","","","","","","",""
"5531.459999999963","","","post_reveal_questions","survey-likert","278","1576830","0.0-6.0-6.38","5475684","co38089","norming","","","{""aha"":3}","[0]","../img/tt/1189tt.jpg","",""
"null","<div style=""font-size:60px;""> </div>","null","fixation","html-keyboard-response","279","1577032","0.0-6.0-0.39","5475684","co38089","norming","","","","","","",""
"null","../img/tt/567tt.jpg","null","mooney1","image-keyboard-response","280","1580035","0.0-6.0-1.39","5475684","co38089","norming","","","","","","",""
"23063.85499999975","","","post_mooney1_questions","survey-likert","281","1603102","0.0-6.0-2.39","5475684","co38089","norming","","","{""curiosity"":2,""confidence"":5}","[0,1]","../img/tt/567tt.jpg","",""
"4501.469999999972","","","recognition","survey-text","282","1607606","0.0-6.0-3.39","5475684","co38089","norming","","","{""guess"":""broodrooster""}","","../img/tt/567tt.jpg","",""
"null","../img/gs/567gs.jpg","null","reveal","image-keyboard-response","283","1609617","0.0-6.0-4.39","5475684","co38089","norming","","","","","","",""
"null","../img/tt/567tt.jpg","null","mooney2","image-keyboard-response","284","1611634","0.0-6.0-5.39","5475684","co38089","norming","","","","","","",""
"5370.160000000149","","","post_reveal_questions","survey-likert","285","1617006","0.0-6.0-6.39","5475684","co38089","norming","","","{""aha"":0}","[0]","../img/tt/567tt.jpg","",""
"null","<div style=""font-size:60px;""> </div>","null","fixation","html-keyboard-response","286","1617218","0.0-6.0-0.40","5475684","co38089","norming","","","","","","",""
"null","../img/tt/019tt.jpg","null","mooney1","image-keyboard-response","287","1620221","0.0-6.0-1.40","5475684","co38089","norming","","","","","","",""
"16136.034999999916","","","post_mooney1_questions","survey-likert","288","1636359","0.0-6.0-2.40","5475684","co38089","norming","","","{""curiosity"":3,""confidence"":4}","[0,1]","../img/tt/019tt.jpg","",""
"3397.024999999907","","","recognition","survey-text","289","1639758","0.0-6.0-3.40","5475684","co38089","norming","","","{""guess"":""vulpen""}","","../img/tt/019tt.jpg","",""
"null","../img/gs/019gs.jpg","null","reveal","image-keyboard-response","290","1641774","0.0-6.0-4.40","5475684","co38089","norming","","","","","","",""
"null","../img/tt/019tt.jpg","null","mooney2","image-keyboard-response","291","1643790","0.0-6.0-5.40","5475684","co38089","norming","","","","","","",""
"4622.01500000013","","","post_reveal_questions","survey-likert","292","1648415","0.0-6.0-6.40","5475684","co38089","norming","","","{""aha"":3}","[0]","../img/tt/019tt.jpg","",""
"null","<div style=""font-size:60px;""> </div>","null","fixation","html-keyboard-response","293","1648625","0.0-6.0-0.41","5475684","co38089","norming","","","","","","",""
"null","../img/tt/078tt.jpg","null","mooney1","image-keyboard-response","294","1651642","0.0-6.0-1.41","5475684","co38089","norming","","","","","","",""
"12400.854999999749","","","post_mooney1_questions","survey-likert","295","1664047","0.0-6.0-2.41","5475684","co38089","norming","","","{""curiosity"":4,""confidence"":0}","[0,1]","../img/tt/078tt.jpg","",""
"6901.614999999991","","","recognition","survey-text","296","1670950","0.0-6.0-3.41","5475684","co38089","norming","","","{""guess"":""landkaart""}","","../img/tt/078tt.jpg","",""
"null","../img/gs/078gs.jpg","null","reveal","image-keyboard-response","297","1672956","0.0-6.0-4.41","5475684","co38089","norming","","","","","","",""
"null","../img/tt/078tt.jpg","null","mooney2","image-keyboard-response","298","1674972","0.0-6.0-5.41","5475684","co38089","norming","","","","","","",""
"15032.375","","","post_reveal_questions","survey-likert","299","1690007","0.0-6.0-6.41","5475684","co38089","norming","","","{""aha"":4}","[0]","../img/tt/078tt.jpg","",""
"null","<div style=""font-size:60px;""> </div>","null","fixation","html-keyboard-response","300","1690215","0.0-6.0-0.42","5475684","co38089","norming","","","","","","",""
"null","../img/tt/300tt.jpg","null","mooney1","image-keyboard-response","301","1693220","0.0-6.0-1.42","5475684","co38089","norming","","","","","","",""
"13295.415000000037","","","post_mooney1_questions","survey-likert","302","1706519","0.0-6.0-2.42","5475684","co38089","norming","","","{""curiosity"":4,""confidence"":3}","[0,1]","../img/tt/300tt.jpg","",""
"7029.784999999916","","","recognition","survey-text","303","1713550","0.0-6.0-3.42","5475684","co38089","norming","","","{""guess"":""bedelaars""}","","../img/tt/300tt.jpg","",""
"null","../img/gs/300gs.jpg","null","reveal","image-keyboard-response","304","1715564","0.0-6.0-4.42","5475684","co38089","norming","","","","","","",""
"null","../img/tt/300tt.jpg","null","mooney2","image-keyboard-response","305","1717567","0.0-6.0-5.42","5475684","co38089","norming","","","","","","",""
"4252.504999999888","","","post_reveal_questions","survey-likert","306","1721822","0.0-6.0-6.42","5475684","co38089","norming","","","{""aha"":2}","[0]","../img/tt/300tt.jpg","",""
"null","<div style=""font-size:60px;""> </div>","null","fixation","html-keyboard-response","307","1722034","0.0-6.0-0.43","5475684","co38089","norming","","","","","","",""
"null","../img/tt/1027tt.jpg","null","mooney1","image-keyboard-response","308","1725049","0.0-6.0-1.43","5475684","co38089","norming","","","","","","",""
"7010.200000000186","","","post_mooney1_questions","survey-likert","309","1732063","0.0-6.0-2.43","5475684","co38089","norming","","","{""curiosity"":4,""confidence"":1}","[0,1]","../img/tt/1027tt.jpg","",""
"3669.060000000056","","","recognition","survey-text","310","1735734","0.0-6.0-3.43","5475684","co38089","norming","","","{""guess"":""paard""}","","../img/tt/1027tt.jpg","",""
"null","../img/gs/1027gs.jpg","null","reveal","image-keyboard-response","311","1737743","0.0-6.0-4.43","5475684","co38089","norming","","","","","","",""
"null","../img/tt/1027tt.jpg","null","mooney2","image-keyboard-response","312","1739757","0.0-6.0-5.43","5475684","co38089","norming","","","","","","",""
"7038.394999999786","","","post_reveal_questions","survey-likert","313","1746799","0.0-6.0-6.43","5475684","co38089","norming","","","{""aha"":3}","[0]","../img/tt/1027tt.jpg","",""
"null","<div style=""font-size:60px;""> </div>","null","fixation","html-keyboard-response","314","1747010","0.0-6.0-0.44","5475684","co38089","norming","","","","","","",""
"null","../img/tt/1087tt.jpg","null","mooney1","image-keyboard-response","315","1750016","0.0-6.0-1.44","5475684","co38089","norming","","","","","","",""
"8947.065000000177","","","post_mooney1_questions","survey-likert","316","1758967","0.0-6.0-2.44","5475684","co38089","norming","","","{""curiosity"":4,""confidence"":1}","[0,1]","../img/tt/1087tt.jpg","",""
"6869.295000000158","","","recognition","survey-text","317","1765838","0.0-6.0-3.44","5475684","co38089","norming","","","{""guess"":""konijn""}","","../img/tt/1087tt.jpg","",""
"null","../img/gs/1087gs.jpg","null","reveal","image-keyboard-response","318","1767839","0.0-6.0-4.44","5475684","co38089","norming","","","","","","",""
"null","../img/tt/1087tt.jpg","null","mooney2","image-keyboard-response","319","1769854","0.0-6.0-5.44","5475684","co38089","norming","","","","","","",""
"8678.090000000084","","","post_reveal_questions","survey-likert","320","1778535","0.0-6.0-6.44","5475684","co38089","norming","","","{""aha"":3}","[0]","../img/tt/1087tt.jpg","",""
"null","<div style=""font-size:60px;""> </div>","null","fixation","html-keyboard-response","321","1778752","0.0-6.0-0.45","5475684","co38089","norming","","","","","","",""
"null","../img/tt/1070tt.jpg","null","mooney1","image-keyboard-response","322","1781764","0.0-6.0-1.45","5475684","co38089","norming","","","","","","",""
"10039.475000000093","","","post_mooney1_questions","survey-likert","323","1791807","0.0-6.0-2.45","5475684","co38089","norming","","","{""curiosity"":4,""confidence"":2}","[0,1]","../img/tt/1070tt.jpg","",""
"9301.155000000028","","","recognition","survey-text","324","1801110","0.0-6.0-3.45","5475684","co38089","norming","","","{""guess"":""stukje eten""}","","../img/tt/1070tt.jpg","",""
"null","../img/gs/1070gs.jpg","null","reveal","image-keyboard-response","325","1803120","0.0-6.0-4.45","5475684","co38089","norming","","","","","","",""
"null","../img/tt/1070tt.jpg","null","mooney2","image-keyboard-response","326","1805136","0.0-6.0-5.45","5475684","co38089","norming","","","","","","",""
"10707.630000000121","","","post_reveal_questions","survey-likert","327","1815847","0.0-6.0-6.45","5475684","co38089","norming","","","{""aha"":2}","[0]","../img/tt/1070tt.jpg","",""
"null","<div style=""font-size:60px;""> </div>","null","fixation","html-keyboard-response","328","1816054","0.0-6.0-0.46","5475684","co38089","norming","","","","","","",""
"null","../img/tt/085tt.jpg","null","mooney1","image-keyboard-response","329","1819067","0.0-6.0-1.46","5475684","co38089","norming","","","","","","",""
"7480.270000000019","","","post_mooney1_questions","survey-likert","330","1826551","0.0-6.0-2.46","5475684","co38089","norming","","","{""curiosity"":3,""confidence"":1}","[0,1]","../img/tt/085tt.jpg","",""
"3164.964999999851","","","recognition","survey-text","331","1829718","0.0-6.0-3.46","5475684","co38089","norming","","","{""guess"":""man""}","","../img/tt/085tt.jpg","",""
"null","../img/gs/085gs.jpg","null","reveal","image-keyboard-response","332","1831729","0.0-6.0-4.46","5475684","co38089","norming","","","","","","",""
"null","../img/tt/085tt.jpg","null","mooney2","image-keyboard-response","333","1833746","0.0-6.0-5.46","5475684","co38089","norming","","","","","","",""
"3849.595000000205","","","post_reveal_questions","survey-likert","334","1837598","0.0-6.0-6.46","5475684","co38089","norming","","","{""aha"":3}","[0]","../img/tt/085tt.jpg","",""
"null","<div style=""font-size:60px;""> </div>","null","fixation","html-keyboard-response","335","1837812","0.0-6.0-0.47","5475684","co38089","norming","","","","","","",""
"null","../img/tt/1202tt.jpg","null","mooney1","image-keyboard-response","336","1840820","0.0-6.0-1.47","5475684","co38089","norming","","","","","","",""
"41278.66500000027","","","post_mooney1_questions","survey-likert","337","1882102","0.0-6.0-2.47","5475684","co38089","norming","","","{""curiosity"":3,""confidence"":0}","[0,1]","../img/tt/1202tt.jpg","",""
"2757.5049999998882","","","recognition","survey-text","338","1884862","0.0-6.0-3.47","5475684","co38089","norming","","","{""guess"":""man""}","","../img/tt/1202tt.jpg","",""
"null","../img/gs/1202gs.jpg","null","reveal","image-keyboard-response","339","1886877","0.0-6.0-4.47","5475684","co38089","norming","","","","","","",""
"null","../img/tt/1202tt.jpg","null","mooney2","image-keyboard-response","340","1888892","0.0-6.0-5.47","5475684","co38089","norming","","","","","","",""
"6125.529999999795","","","post_reveal_questions","survey-likert","341","1895022","0.0-6.0-6.47","5475684","co38089","norming","","","{""aha"":3}","[0]","../img/tt/1202tt.jpg","",""
"null","<div style=""font-size:60px;""> </div>","null","fixation","html-keyboard-response","342","1895227","0.0-6.0-0.48","5475684","co38089","norming","","","","","","",""
"null","../img/tt/1236tt.jpg","null","mooney1","image-keyboard-response","343","1898240","0.0-6.0-1.48","5475684","co38089","norming","","","","","","",""
"6330.899999999907","","","post_mooney1_questions","survey-likert","344","1904574","0.0-6.0-2.48","5475684","co38089","norming","","","{""curiosity"":3,""confidence"":0}","[0,1]","../img/tt/1236tt.jpg","",""
"3357.1549999995623","","","recognition","survey-text","345","1907934","0.0-6.0-3.48","5475684","co38089","norming","","","{""guess"":""uil""}","","../img/tt/1236tt.jpg","",""
"null","../img/gs/1236gs.jpg","null","reveal","image-keyboard-response","346","1909936","0.0-6.0-4.48","5475684","co38089","norming","","","","","","",""
"null","../img/tt/1236tt.jpg","null","mooney2","image-keyboard-response","347","1911949","0.0-6.0-5.48","5475684","co38089","norming","","","","","","",""
"10550.530000000028","","","post_reveal_questions","survey-likert","348","1922502","0.0-6.0-6.48","5475684","co38089","norming","","","{""aha"":3}","[0]","../img/tt/1236tt.jpg","",""
"null","<div style=""font-size:60px;""> </div>","null","fixation","html-keyboard-response","349","1922718","0.0-6.0-0.49","5475684","co38089","norming","","","","","","",""
"null","../img/tt/1040tt.jpg","null","mooney1","image-keyboard-response","350","1925722","0.0-6.0-1.49","5475684","co38089","norming","","","","","","",""
"6801.64000000013","","","post_mooney1_questions","survey-likert","351","1932526","0.0-6.0-2.49","5475684","co38089","norming","","","{""curiosity"":3,""confidence"":5}","[0,1]","../img/tt/1040tt.jpg","",""
"8029.469999999972","","","recognition","survey-text","352","1940558","0.0-6.0-3.49","5475684","co38089","norming","","","{""guess"":""olifant""}","","../img/tt/1040tt.jpg","",""
"null","../img/gs/1040gs.jpg","null","reveal","image-keyboard-response","353","1942575","0.0-6.0-4.49","5475684","co38089","norming","","","","","","",""
"null","../img/tt/1040tt.jpg","null","mooney2","image-keyboard-response","354","1944591","0.0-6.0-5.49","5475684","co38089","norming","","","","","","",""
"11709.239999999758","","","post_reveal_questions","survey-likert","355","1956303","0.0-6.0-6.49","5475684","co38089","norming","","","{""aha"":3}","[0]","../img/tt/1040tt.jpg","",""
"null","<div style=""font-size:60px;""> </div>","null","fixation","html-keyboard-response","356","1956507","0.0-6.0-0.50","5475684","co38089","norming","","","","","","",""
"null","../img/tt/040tt.jpg","null","mooney1","image-keyboard-response","357","1959511","0.0-6.0-1.50","5475684","co38089","norming","","","","","","",""
"16300.94500000053","","","post_mooney1_questions","survey-likert","358","1975815","0.0-6.0-2.50","5475684","co38089","norming","","","{""curiosity"":3,""confidence"":0}","[0,1]","../img/tt/040tt.jpg","",""
"3261.190000000177","","","recognition","survey-text","359","1979078","0.0-6.0-3.50","5475684","co38089","norming","","","{""guess"":""man""}","","../img/tt/040tt.jpg","",""
"null","../img/gs/040gs.jpg","null","reveal","image-keyboard-response","360","1981080","0.0-6.0-4.50","5475684","co38089","norming","","","","","","",""
"null","../img/tt/040tt.jpg","null","mooney2","image-keyboard-response","361","1983094","0.0-6.0-5.50","5475684","co38089","norming","","","","","","",""
"19117.27000000025","","","post_reveal_questions","survey-likert","362","2002214","0.0-6.0-6.50","5475684","co38089","norming","","","{""aha"":3}","[0]","../img/tt/040tt.jpg","",""
"null","<div style=""font-size:60px;""> </div>","null","fixation","html-keyboard-response","363","2002425","0.0-6.0-0.51","5475684","co38089","norming","","","","","","",""
"null","../img/tt/008tt.jpg","null","mooney1","image-keyboard-response","364","2005438","0.0-6.0-1.51","5475684","co38089","norming","","","","","","",""
"204662.40000000037","","","post_mooney1_questions","survey-likert","365","2210103","0.0-6.0-2.51","5475684","co38089","norming","","","{""curiosity"":3,""confidence"":1}","[0,1]","../img/tt/008tt.jpg","",""
"3476.7450000001118","","","recognition","survey-text","366","2213582","0.0-6.0-3.51","5475684","co38089","norming","","","{""guess"":""dier""}","","../img/tt/008tt.jpg","",""
"null","../img/gs/008gs.jpg","null","reveal","image-keyboard-response","367","2215586","0.0-6.0-4.51","5475684","co38089","norming","","","","","","",""
"null","../img/tt/008tt.jpg","null","mooney2","image-keyboard-response","368","2217601","0.0-6.0-5.51","5475684","co38089","norming","","","","","","",""
"2802.8900000001304","","","post_reveal_questions","survey-likert","369","2220407","0.0-6.0-6.51","5475684","co38089","norming","","","{""aha"":3}","[0]","../img/tt/008tt.jpg","",""
"null","<div style=""font-size:60px;""> </div>","null","fixation","html-keyboard-response","370","2220619","0.0-6.0-0.52","5475684","co38089","norming","","","","","","",""
"null","../img/tt/1247tt.jpg","null","mooney1","image-keyboard-response","371","2223635","0.0-6.0-1.52","5475684","co38089","norming","","","","","","",""
"12488.414999999572","","","post_mooney1_questions","survey-likert","372","2236126","0.0-6.0-2.52","5475684","co38089","norming","","","{""curiosity"":3,""confidence"":1}","[0,1]","../img/tt/1247tt.jpg","",""
"3469.3449999997392","","","recognition","survey-text","373","2239598","0.0-6.0-3.52","5475684","co38089","norming","","","{""guess"":""vrucht""}","","../img/tt/1247tt.jpg","",""
"null","../img/gs/1247gs.jpg","null","reveal","image-keyboard-response","374","2241609","0.0-6.0-4.52","5475684","co38089","norming","","","","","","",""
"null","../img/tt/1247tt.jpg","null","mooney2","image-keyboard-response","375","2243626","0.0-6.0-5.52","5475684","co38089","norming","","","","","","",""
"3761.364999999758","","","post_reveal_questions","survey-likert","376","2247390","0.0-6.0-6.52","5475684","co38089","norming","","","{""aha"":3}","[0]","../img/tt/1247tt.jpg","",""
"null","<div style=""font-size:60px;""> </div>","null","fixation","html-keyboard-response","377","2247594","0.0-6.0-0.53","5475684","co38089","norming","","","","","","",""
"null","../img/tt/1260tt.jpg","null","mooney1","image-keyboard-response","378","2250612","0.0-6.0-1.53","5475684","co38089","norming","","","","","","",""
"8279.575000000186","","","post_mooney1_questions","survey-likert","379","2258895","0.0-6.0-2.53","5475684","co38089","norming","","","{""curiosity"":3,""confidence"":0}","[0,1]","../img/tt/1260tt.jpg","",""
"2812.8950000000186","","","recognition","survey-text","380","2261710","0.0-6.0-3.53","5475684","co38089","norming","","","{""guess"":""koe""}","","../img/tt/1260tt.jpg","",""
"null","../img/gs/1260gs.jpg","null","reveal","image-keyboard-response","381","2263715","0.0-6.0-4.53","5475684","co38089","norming","","","","","","",""
"null","../img/tt/1260tt.jpg","null","mooney2","image-keyboard-response","382","2265726","0.0-6.0-5.53","5475684","co38089","norming","","","","","","",""
"4862.06500000041","","","post_reveal_questions","survey-likert","383","2270591","0.0-6.0-6.53","5475684","co38089","norming","","","{""aha"":3}","[0]","../img/tt/1260tt.jpg","",""
"null","<div style=""font-size:60px;""> </div>","null","fixation","html-keyboard-response","384","2270806","0.0-6.0-0.54","5475684","co38089","norming","","","","","","",""
"null","../img/tt/091tt.jpg","null","mooney1","image-keyboard-response","385","2273823","0.0-6.0-1.54","5475684","co38089","norming","","","","","","",""
"13588.290000000037","","","post_mooney1_questions","survey-likert","386","2287415","0.0-6.0-2.54","5475684","co38089","norming","","","{""curiosity"":3,""confidence"":0}","[0,1]","../img/tt/091tt.jpg","",""
"34469.09499999974","","","recognition","survey-text","387","2321886","0.0-6.0-3.54","5475684","co38089","norming","","","{""guess"":""koe""}","","../img/tt/091tt.jpg","",""
"null","../img/gs/091gs.jpg","null","reveal","image-keyboard-response","388","2323900","0.0-6.0-4.54","5475684","co38089","norming","","","","","","",""
"null","../img/tt/091tt.jpg","null","mooney2","image-keyboard-response","389","2325916","0.0-6.0-5.54","5475684","co38089","norming","","","","","","",""
"3464.5449999999255","","","post_reveal_questions","survey-likert","390","2329383","0.0-6.0-6.54","5475684","co38089","norming","","","{""aha"":3}","[0]","../img/tt/091tt.jpg","",""
"null","<div style=""font-size:60px;""> </div>","null","fixation","html-keyboard-response","391","2329586","0.0-6.0-0.55","5475684","co38089","norming","","","","","","",""
"null","../img/tt/1171tt.jpg","null","mooney1","image-keyboard-response","392","2332590","0.0-6.0-1.55","5475684","co38089","norming","","","","","","",""
"8381.090000000317","","","post_mooney1_questions","survey-likert","393","2340975","0.0-6.0-2.55","5475684","co38089","norming","","","{""curiosity"":3,""confidence"":1}","[0,1]","../img/tt/1171tt.jpg","",""
"3493.4050000002608","","","recognition","survey-text","394","2344470","0.0-6.0-3.55","5475684","co38089","norming","","","{""guess"":""panda""}","","../img/tt/1171tt.jpg","",""
"null","../img/gs/1171gs.jpg","null","reveal","image-keyboard-response","395","2346476","0.0-6.0-4.55","5475684","co38089","norming","","","","","","",""
"null","../img/tt/1171tt.jpg","null","mooney2","image-keyboard-response","396","2348478","0.0-6.0-5.55","5475684","co38089","norming","","","","","","",""
"8510.079999999609","","","post_reveal_questions","survey-likert","397","2356991","0.0-6.0-6.55","5475684","co38089","norming","","","{""aha"":3}","[0]","../img/tt/1171tt.jpg","",""
"null","<div style=""font-size:60px;""> </div>","null","fixation","html-keyboard-response","398","2357193","0.0-6.0-0.56","5475684","co38089","norming","","","","","","",""
"null","../img/tt/603tt.jpg","null","mooney1","image-keyboard-response","399","2360209","0.0-6.0-1.56","5475684","co38089","norming","","","","","","",""
"13650.520000000484","","","post_mooney1_questions","survey-likert","400","2373863","0.0-6.0-2.56","5475684","co38089","norming","","","{""curiosity"":4,""confidence"":0}","[0,1]","../img/tt/603tt.jpg","",""
"50549.16500000004","","","recognition","survey-text","401","2424415","0.0-6.0-3.56","5475684","co38089","norming","","","{""guess"":""dier""}","","../img/tt/603tt.jpg","",""
"null","../img/gs/603gs.jpg","null","reveal","image-keyboard-response","402","2426417","0.0-6.0-4.56","5475684","co38089","norming","","","","","","",""
"null","../img/tt/603tt.jpg","null","mooney2","image-keyboard-response","403","2428431","0.0-6.0-5.56","5475684","co38089","norming","","","","","","",""
"3494.7249999996275","","","post_reveal_questions","survey-likert","404","2431927","0.0-6.0-6.56","5475684","co38089","norming","","","{""aha"":3}","[0]","../img/tt/603tt.jpg","",""
"null","<div style=""font-size:60px;""> </div>","null","fixation","html-keyboard-response","405","2432128","0.0-6.0-0.57","5475684","co38089","norming","","","","","","",""
"null","../img/tt/053tt.jpg","null","mooney1","image-keyboard-response","406","2435135","0.0-6.0-1.57","5475684","co38089","norming","","","","","","",""
"22100.75","","","post_mooney1_questions","survey-likert","407","2457239","0.0-6.0-2.57","5475684","co38089","norming","","","{""curiosity"":4,""confidence"":0}","[0,1]","../img/tt/053tt.jpg","",""
"3717.260000000242","","","recognition","survey-text","408","2460959","0.0-6.0-3.57","5475684","co38089","norming","","","{""guess"":""water""}","","../img/tt/053tt.jpg","",""
"null","../img/gs/053gs.jpg","null","reveal","image-keyboard-response","409","2462971","0.0-6.0-4.57","5475684","co38089","norming","","","","","","",""
"null","../img/tt/053tt.jpg","null","mooney2","image-keyboard-response","410","2464987","0.0-6.0-5.57","5475684","co38089","norming","","","","","","",""
"4649.535000000149","","","post_reveal_questions","survey-likert","411","2469639","0.0-6.0-6.57","5475684","co38089","norming","","","{""aha"":3}","[0]","../img/tt/053tt.jpg","",""
"null","<div style=""font-size:60px;""> </div>","null","fixation","html-keyboard-response","412","2469843","0.0-6.0-0.58","5475684","co38089","norming","","","","","","",""
"null","../img/tt/052tt.jpg","null","mooney1","image-keyboard-response","413","2472854","0.0-6.0-1.58","5475684","co38089","norming","","","","","","",""
"5205.935000000056","","","post_mooney1_questions","survey-likert","414","2478064","0.0-6.0-2.58","5475684","co38089","norming","","","{""curiosity"":3,""confidence"":3}","[0,1]","../img/tt/052tt.jpg","",""
"4781.060000000056","","","recognition","survey-text","415","2482847","0.0-6.0-3.58","5475684","co38089","norming","","","{""guess"":""zwembad""}","","../img/tt/052tt.jpg","",""
"null","../img/gs/052gs.jpg","null","reveal","image-keyboard-response","416","2484848","0.0-6.0-4.58","5475684","co38089","norming","","","","","","",""
"null","../img/tt/052tt.jpg","null","mooney2","image-keyboard-response","417","2486862","0.0-6.0-5.58","5475684","co38089","norming","","","","","","",""
"4733.805000000168","","","post_reveal_questions","survey-likert","418","2491599","0.0-6.0-6.58","5475684","co38089","norming","","","{""aha"":3}","[0]","../img/tt/052tt.jpg","",""
"null","<div style=""font-size:60px;""> </div>","null","fixation","html-keyboard-response","419","2491814","0.0-6.0-0.59","5475684","co38089","norming","","","","","","",""
"null","../img/tt/1270tt.jpg","null","mooney1","image-keyboard-response","420","2494824","0.0-6.0-1.59","5475684","co38089","norming","","","","","","",""
"6764.0099999997765","","","post_mooney1_questions","survey-likert","421","2501591","0.0-6.0-2.59","5475684","co38089","norming","","","{""curiosity"":3,""confidence"":0}","[0,1]","../img/tt/1270tt.jpg","",""
"4933.200000000186","","","recognition","survey-text","422","2506526","0.0-6.0-3.59","5475684","co38089","norming","","","{""guess"":""stoel""}","","../img/tt/1270tt.jpg","",""
"null","../img/gs/1270gs.jpg","null","reveal","image-keyboard-response","423","2508539","0.0-6.0-4.59","5475684","co38089","norming","","","","","","",""
"null","../img/tt/1270tt.jpg","null","mooney2","image-keyboard-response","424","2510554","0.0-6.0-5.59","5475684","co38089","norming","","","","","","",""
"4458.084999999963","","","post_reveal_questions","survey-likert","425","2515015","0.0-6.0-6.59","5475684","co38089","norming","","","{""aha"":3}","[0]","../img/tt/1270tt.jpg","",""
"null","<div style=""font-size:60px;""> </div>","null","fixation","html-keyboard-response","426","2515224","0.0-6.0-0.60","5475684","co38089","norming","","","","","","",""
"null","../img/tt/1080tt.jpg","null","mooney1","image-keyboard-response","427","2518238","0.0-6.0-1.60","5475684","co38089","norming","","","","","","",""
"7277.114999999758","","","post_mooney1_questions","survey-likert","428","2525519","0.0-6.0-2.60","5475684","co38089","norming","","","{""curiosity"":4,""confidence"":1}","[0,1]","../img/tt/1080tt.jpg","",""
"6237.839999999851","","","recognition","survey-text","429","2531759","0.0-6.0-3.60","5475684","co38089","norming","","","{""guess"":""frituur""}","","../img/tt/1080tt.jpg","",""
"null","../img/gs/1080gs.jpg","null","reveal","image-keyboard-response","430","2533775","0.0-6.0-4.60","5475684","co38089","norming","","","","","","",""
"null","../img/tt/1080tt.jpg","null","mooney2","image-keyboard-response","431","2535783","0.0-6.0-5.60","5475684","co38089","norming","","","","","","",""
"10300.560000000056","","","post_reveal_questions","survey-likert","432","2546087","0.0-6.0-6.60","5475684","co38089","norming","","","{""aha"":3}","[0]","../img/tt/1080tt.jpg","",""
"null","<div style=""font-size:60px;""> </div>","null","fixation","html-keyboard-response","433","2546297","0.0-6.0-0.61","5475684","co38089","norming","","","","","","",""
"null","../img/tt/1353tt.jpg","null","mooney1","image-keyboard-response","434","2549301","0.0-6.0-1.61","5475684","co38089","norming","","","","","","",""
"16430.33999999985","","","post_mooney1_questions","survey-likert","435","2565735","0.0-6.0-2.61","5475684","co38089","norming","","","{""curiosity"":4,""confidence"":0}","[0,1]","../img/tt/1353tt.jpg","",""
"3476.260000000242","","","recognition","survey-text","436","2569214","0.0-6.0-3.61","5475684","co38089","norming","","","{""guess"":""draad""}","","../img/tt/1353tt.jpg","",""
"null","../img/gs/1353gs.jpg","null","reveal","image-keyboard-response","437","2571219","0.0-6.0-4.61","5475684","co38089","norming","","","","","","",""
"null","../img/tt/1353tt.jpg","null","mooney2","image-keyboard-response","438","2573225","0.0-6.0-5.61","5475684","co38089","norming","","","","","","",""
"5938.7949999999255","","","post_reveal_questions","survey-likert","439","2579167","0.0-6.0-6.61","5475684","co38089","norming","","","{""aha"":3}","[0]","../img/tt/1353tt.jpg","",""
"null","<div style=""font-size:60px;""> </div>","null","fixation","html-keyboard-response","440","2579369","0.0-6.0-0.62","5475684","co38089","norming","","","","","","",""
"null","../img/tt/1279tt.jpg","null","mooney1","image-keyboard-response","441","2582373","0.0-6.0-1.62","5475684","co38089","norming","","","","","","",""
"10414.705000000075","","","post_mooney1_questions","survey-likert","442","2592791","0.0-6.0-2.62","5475684","co38089","norming","","","{""curiosity"":4,""confidence"":0}","[0,1]","../img/tt/1279tt.jpg","",""
"7533.04499999946","","","recognition","survey-text","443","2600326","0.0-6.0-3.62","5475684","co38089","norming","","","{""guess"":""dier""}","","../img/tt/1279tt.jpg","",""
"null","../img/gs/1279gs.jpg","null","reveal","image-keyboard-response","444","2602328","0.0-6.0-4.62","5475684","co38089","norming","","","","","","",""
"null","../img/tt/1279tt.jpg","null","mooney2","image-keyboard-response","445","2604344","0.0-6.0-5.62","5475684","co38089","norming","","","","","","",""
"5635.970000000205","","","post_reveal_questions","survey-likert","446","2609983","0.0-6.0-6.62","5475684","co38089","norming","","","{""aha"":3}","[0]","../img/tt/1279tt.jpg","",""
"null","<div style=""font-size:60px;""> </div>","null","fixation","html-keyboard-response","447","2610193","0.0-6.0-0.63","5475684","co38089","norming","","","","","","",""
"null","../img/tt/1024tt.jpg","null","mooney1","image-keyboard-response","448","2613208","0.0-6.0-1.63","5475684","co38089","norming","","","","","","",""
"5651.625","","","post_mooney1_questions","survey-likert","449","2618863","0.0-6.0-2.63","5475684","co38089","norming","","","{""curiosity"":3,""confidence"":4}","[0,1]","../img/tt/1024tt.jpg","",""
"6813.694999999832","","","recognition","survey-text","450","2625679","0.0-6.0-3.63","5475684","co38089","norming","","","{""guess"":""tennisspeler""}","","../img/tt/1024tt.jpg","",""
"null","../img/gs/1024gs.jpg","null","reveal","image-keyboard-response","451","2627684","0.0-6.0-4.63","5475684","co38089","norming","","","","","","",""
"null","../img/tt/1024tt.jpg","null","mooney2","image-keyboard-response","452","2629687","0.0-6.0-5.63","5475684","co38089","norming","","","","","","",""
"6012.4900000002235","","","post_reveal_questions","survey-likert","453","2635702","0.0-6.0-6.63","5475684","co38089","norming","","","{""aha"":1}","[0]","../img/tt/1024tt.jpg","",""
"null","<div style=""font-size:60px;""> </div>","null","fixation","html-keyboard-response","454","2635917","0.0-6.0-0.64","5475684","co38089","norming","","","","","","",""
"null","../img/tt/036tt.jpg","null","mooney1","image-keyboard-response","455","2638931","0.0-6.0-1.64","5475684","co38089","norming","","","","","","",""
"6129.149999999441","","","post_mooney1_questions","survey-likert","456","2645063","0.0-6.0-2.64","5475684","co38089","norming","","","{""curiosity"":3,""confidence"":1}","[0,1]","../img/tt/036tt.jpg","",""
"10333.709999999963","","","recognition","survey-text","457","2655399","0.0-6.0-3.64","5475684","co38089","norming","","","{""guess"":""spinnenweb""}","","../img/tt/036tt.jpg","",""
"null","../img/gs/036gs.jpg","null","reveal","image-keyboard-response","458","2657411","0.0-6.0-4.64","5475684","co38089","norming","","","","","","",""
"null","../img/tt/036tt.jpg","null","mooney2","image-keyboard-response","459","2659423","0.0-6.0-5.64","5475684","co38089","norming","","","","","","",""
"30749.66499999957","","","post_reveal_questions","survey-likert","460","2690175","0.0-6.0-6.64","5475684","co38089","norming","","","{""aha"":3}","[0]","../img/tt/036tt.jpg","",""
"null","<div style=""font-size:60px;""> </div>","null","fixation","html-keyboard-response","461","2690381","0.0-6.0-0.65","5475684","co38089","norming","","","","","","",""
"null","../img/tt/076tt.jpg","null","mooney1","image-keyboard-response","462","2693396","0.0-6.0-1.65","5475684","co38089","norming","","","","","","",""
"4927.7050000000745","","","post_mooney1_questions","survey-likert","463","2698327","0.0-6.0-2.65","5475684","co38089","norming","","","{""curiosity"":4,""confidence"":1}","[0,1]","../img/tt/076tt.jpg","",""
"5789.209999999963","","","recognition","survey-text","464","2704118","0.0-6.0-3.65","5475684","co38089","norming","","","{""guess"":""rolschaatsen""}","","../img/tt/076tt.jpg","",""
"null","../img/gs/076gs.jpg","null","reveal","image-keyboard-response","465","2706125","0.0-6.0-4.65","5475684","co38089","norming","","","","","","",""
"null","../img/tt/076tt.jpg","null","mooney2","image-keyboard-response","466","2708140","0.0-6.0-5.65","5475684","co38089","norming","","","","","","",""
"2992.8349999999627","","","post_reveal_questions","survey-likert","467","2711135","0.0-6.0-6.65","5475684","co38089","norming","","","{""aha"":1}","[0]","../img/tt/076tt.jpg","",""
"null","<div style=""font-size:60px;""> </div>","null","fixation","html-keyboard-response","468","2711348","0.0-6.0-0.66","5475684","co38089","norming","","","","","","",""
"null","../img/tt/301tt.jpg","null","mooney1","image-keyboard-response","469","2714360","0.0-6.0-1.66","5475684","co38089","norming","","","","","","",""
"19811.320000000298","","","post_mooney1_questions","survey-likert","470","2734175","0.0-6.0-2.66","5475684","co38089","norming","","","{""curiosity"":3,""confidence"":1}","[0,1]","../img/tt/301tt.jpg","",""
"3109.4999999995343","","","recognition","survey-text","471","2737286","0.0-6.0-3.66","5475684","co38089","norming","","","{""guess"":""man""}","","../img/tt/301tt.jpg","",""
"null","../img/gs/301gs.jpg","null","reveal","image-keyboard-response","472","2739291","0.0-6.0-4.66","5475684","co38089","norming","","","","","","",""
"null","../img/tt/301tt.jpg","null","mooney2","image-keyboard-response","473","2741298","0.0-6.0-5.66","5475684","co38089","norming","","","","","","",""
"4610.790000000037","","","post_reveal_questions","survey-likert","474","2745911","0.0-6.0-6.66","5475684","co38089","norming","","","{""aha"":3}","[0]","../img/tt/301tt.jpg","",""
"null","<div style=""font-size:60px;""> </div>","null","fixation","html-keyboard-response","475","2746115","0.0-6.0-0.67","5475684","co38089","norming","","","","","","",""
"null","../img/tt/1102tt.jpg","null","mooney1","image-keyboard-response","476","2749129","0.0-6.0-1.67","5475684","co38089","norming","","","","","","",""
"9194.709999999963","","","post_mooney1_questions","survey-likert","477","2758327","0.0-6.0-2.67","5475684","co38089","norming","","","{""curiosity"":4,""confidence"":1}","[0,1]","../img/tt/1102tt.jpg","",""
"5220.959999999963","","","recognition","survey-text","478","2763550","0.0-6.0-3.67","5475684","co38089","norming","","","{""guess"":""strand""}","","../img/tt/1102tt.jpg","",""
"null","../img/gs/1102gs.jpg","null","reveal","image-keyboard-response","479","2765556","0.0-6.0-4.67","5475684","co38089","norming","","","","","","",""
"null","../img/tt/1102tt.jpg","null","mooney2","image-keyboard-response","480","2767572","0.0-6.0-5.67","5475684","co38089","norming","","","","","","",""
"3976.064999999944","","","post_reveal_questions","survey-likert","481","2771551","0.0-6.0-6.67","5475684","co38089","norming","","","{""aha"":3}","[0]","../img/tt/1102tt.jpg","",""
"null","<div style=""font-size:60px;""> </div>","null","fixation","html-keyboard-response","482","2771756","0.0-6.0-0.68","5475684","co38089","norming","","","","","","",""
"null","../img/tt/1262tt.jpg","null","mooney1","image-keyboard-response","483","2774773","0.0-6.0-1.68","5475684","co38089","norming","","","","","","",""
"6566.584999999963","","","post_mooney1_questions","survey-likert","484","2781343","0.0-6.0-2.68","5475684","co38089","norming","","","{""curiosity"":4,""confidence"":1}","[0,1]","../img/tt/1262tt.jpg","",""
"3677.045000000391","","","recognition","survey-text","485","2785022","0.0-6.0-3.68","5475684","co38089","norming","","","{""guess"":""bos""}","","../img/tt/1262tt.jpg","",""
"null","../img/gs/1262gs.jpg","null","reveal","image-keyboard-response","486","2787032","0.0-6.0-4.68","5475684","co38089","norming","","","","","","",""
"null","../img/tt/1262tt.jpg","null","mooney2","image-keyboard-response","487","2789046","0.0-6.0-5.68","5475684","co38089","norming","","","","","","",""
"10005.870000000112","","","post_reveal_questions","survey-likert","488","2799055","0.0-6.0-6.68","5475684","co38089","norming","","","{""aha"":3}","[0]","../img/tt/1262tt.jpg","",""
"null","<div style=""font-size:60px;""> </div>","null","fixation","html-keyboard-response","489","2799264","0.0-6.0-0.69","5475684","co38089","norming","","","","","","",""
"null","../img/tt/1055tt.jpg","null","mooney1","image-keyboard-response","490","2802268","0.0-6.0-1.69","5475684","co38089","norming","","","","","","",""
"9071.135000000242","","","post_mooney1_questions","survey-likert","491","2811343","0.0-6.0-2.69","5475684","co38089","norming","","","{""curiosity"":3,""confidence"":1}","[0,1]","../img/tt/1055tt.jpg","",""
"5069.25","","","recognition","survey-text","492","2816414","0.0-6.0-3.69","5475684","co38089","norming","","","{""guess"":""mens""}","","../img/tt/1055tt.jpg","",""
"null","../img/gs/1055gs.jpg","null","reveal","image-keyboard-response","493","2818426","0.0-6.0-4.69","5475684","co38089","norming","","","","","","",""
"null","../img/tt/1055tt.jpg","null","mooney2","image-keyboard-response","494","2820437","0.0-6.0-5.69","5475684","co38089","norming","","","","","","",""
"5182.844999999739","","","post_reveal_questions","survey-likert","495","2825623","0.0-6.0-6.69","5475684","co38089","norming","","","{""aha"":3}","[0]","../img/tt/1055tt.jpg","",""
"null","<div style=""font-size:60px;""> </div>","null","fixation","html-keyboard-response","496","2825838","0.0-6.0-0.70","5475684","co38089","norming","","","","","","",""
"null","../img/tt/584tt.jpg","null","mooney1","image-keyboard-response","497","2828846","0.0-6.0-1.70","5475684","co38089","norming","","","","","","",""
"10814.34499999974","","","post_mooney1_questions","survey-likert","498","2839663","0.0-6.0-2.70","5475684","co38089","norming","","","{""curiosity"":4,""confidence"":3}","[0,1]","../img/tt/584tt.jpg","",""
"26621.154999999795","","","recognition","survey-text","499","2866287","0.0-6.0-3.70","5475684","co38089","norming","","","{""guess"":""toostende armen""}","","../img/tt/584tt.jpg","",""
"null","../img/gs/584gs.jpg","null","reveal","image-keyboard-response","500","2868289","0.0-6.0-4.70","5475684","co38089","norming","","","","","","",""
"null","../img/tt/584tt.jpg","null","mooney2","image-keyboard-response","501","2870303","0.0-6.0-5.70","5475684","co38089","norming","","","","","","",""
"3197.355000000447","","","post_reveal_questions","survey-likert","502","2873503","0.0-6.0-6.70","5475684","co38089","norming","","","{""aha"":4}","[0]","../img/tt/584tt.jpg","",""
"null","<div style=""font-size:60px;""> </div>","null","fixation","html-keyboard-response","503","2873707","0.0-6.0-0.71","5475684","co38089","norming","","","","","","",""
"null","../img/tt/020tt.jpg","null","mooney1","image-keyboard-response","504","2876718","0.0-6.0-1.71","5475684","co38089","norming","","","","","","",""
"10181.964999999851","","","post_mooney1_questions","survey-likert","505","2886903","0.0-6.0-2.71","5475684","co38089","norming","","","{""curiosity"":4,""confidence"":0}","[0,1]","../img/tt/020tt.jpg","",""
"6461.10999999987","","","recognition","survey-text","506","2893366","0.0-6.0-3.71","5475684","co38089","norming","","","{""guess"":""mens""}","","../img/tt/020tt.jpg","",""
"null","../img/gs/020gs.jpg","null","reveal","image-keyboard-response","507","2895378","0.0-6.0-4.71","5475684","co38089","norming","","","","","","",""
"null","../img/tt/020tt.jpg","null","mooney2","image-keyboard-response","508","2897394","0.0-6.0-5.71","5475684","co38089","norming","","","","","","",""
"10449.790000000037","","","post_reveal_questions","survey-likert","509","2907847","0.0-6.0-6.71","5475684","co38089","norming","","","{""aha"":3}","[0]","../img/tt/020tt.jpg","",""
"null","<div style=""font-size:60px;""> </div>","null","fixation","html-keyboard-response","510","2908060","0.0-6.0-0.72","5475684","co38089","norming","","","","","","",""
"null","../img/tt/1033tt.jpg","null","mooney1","image-keyboard-response","511","2911075","0.0-6.0-1.72","5475684","co38089","norming","","","","","","",""
"7656.310000000056","","","post_mooney1_questions","survey-likert","512","2918735","0.0-6.0-2.72","5475684","co38089","norming","","","{""curiosity"":4,""confidence"":3}","[0,1]","../img/tt/1033tt.jpg","",""
"46884.955000000075","","","recognition","survey-text","513","2965623","0.0-6.0-3.72","5475684","co38089","norming","","","{""guess"":""roeiende persoon""}","","../img/tt/1033tt.jpg","",""
"null","../img/gs/1033gs.jpg","null","reveal","image-keyboard-response","514","2967639","0.0-6.0-4.72","5475684","co38089","norming","","","","","","",""
"null","../img/tt/1033tt.jpg","null","mooney2","image-keyboard-response","515","2969655","0.0-6.0-5.72","5475684","co38089","norming","","","","","","",""
"4661.845000000205","","","post_reveal_questions","survey-likert","516","2974320","0.0-6.0-6.72","5475684","co38089","norming","","","{""aha"":4}","[0]","../img/tt/1033tt.jpg","",""
"null","<div style=""font-size:60px;""> </div>","null","fixation","html-keyboard-response","517","2974523","0.0-6.0-0.73","5475684","co38089","norming","","","","","","",""
"null","../img/tt/049tt.jpg","null","mooney1","image-keyboard-response","518","2977538","0.0-6.0-1.73","5475684","co38089","norming","","","","","","",""
"6426.6500000003725","","","post_mooney1_questions","survey-likert","519","2983968","0.0-6.0-2.73","5475684","co38089","norming","","","{""curiosity"":4,""confidence"":0}","[0,1]","../img/tt/049tt.jpg","",""
"3445.0750000001863","","","recognition","survey-text","520","2987415","0.0-6.0-3.73","5475684","co38089","norming","","","{""guess"":""iglo""}","","../img/tt/049tt.jpg","",""
"null","../img/gs/049gs.jpg","null","reveal","image-keyboard-response","521","2989430","0.0-6.0-4.73","5475684","co38089","norming","","","","","","",""
"null","../img/tt/049tt.jpg","null","mooney2","image-keyboard-response","522","2991447","0.0-6.0-5.73","5475684","co38089","norming","","","","","","",""
"4268.930000000168","","","post_reveal_questions","survey-likert","523","2995719","0.0-6.0-6.73","5475684","co38089","norming","","","{""aha"":3}","[0]","../img/tt/049tt.jpg","",""
"null","<div style=""font-size:60px;""> </div>","null","fixation","html-keyboard-response","524","2995931","0.0-6.0-0.74","5475684","co38089","norming","","","","","","",""
"null","../img/tt/1043tt.jpg","null","mooney1","image-keyboard-response","525","2998947","0.0-6.0-1.74","5475684","co38089","norming","","","","","","",""
"5960.454999999609","","","post_mooney1_questions","survey-likert","526","3004911","0.0-6.0-2.74","5475684","co38089","norming","","","{""curiosity"":4,""confidence"":2}","[0,1]","../img/tt/1043tt.jpg","",""
"7293.689999999944","","","recognition","survey-text","527","3012207","0.0-6.0-3.74","5475684","co38089","norming","","","{""guess"":""bord eten""}","","../img/tt/1043tt.jpg","",""
"null","../img/gs/1043gs.jpg","null","reveal","image-keyboard-response","528","3014224","0.0-6.0-4.74","5475684","co38089","norming","","","","","","",""
"null","../img/tt/1043tt.jpg","null","mooney2","image-keyboard-response","529","3016239","0.0-6.0-5.74","5475684","co38089","norming","","","","","","",""
"16981.505000000354","","","post_reveal_questions","survey-likert","530","3033223","0.0-6.0-6.74","5475684","co38089","norming","","","{""aha"":1}","[0]","../img/tt/1043tt.jpg","",""
"null","<div style=""font-size:60px;""> </div>","null","fixation","html-keyboard-response","531","3033436","0.0-6.0-0.75","5475684","co38089","norming","","","","","","",""
"null","../img/tt/1199tt.jpg","null","mooney1","image-keyboard-response","532","3036447","0.0-6.0-1.75","5475684","co38089","norming","","","","","","",""
"15380.935000000056","","","post_mooney1_questions","survey-likert","533","3051832","0.0-6.0-2.75","5475684","co38089","norming","","","{""curiosity"":4,""confidence"":2}","[0,1]","../img/tt/1199tt.jpg","",""
"7324.979999999516","","","recognition","survey-text","534","3059159","0.0-6.0-3.75","5475684","co38089","norming","","","{""guess"":""dansende persoon""}","","../img/tt/1199tt.jpg","",""
"null","../img/gs/1199gs.jpg","null","reveal","image-keyboard-response","535","3061174","0.0-6.0-4.75","5475684","co38089","norming","","","","","","",""
"null","../img/tt/1199tt.jpg","null","mooney2","image-keyboard-response","536","3063190","0.0-6.0-5.75","5475684","co38089","norming","","","","","","",""
"6142.2400000002235","","","post_reveal_questions","survey-likert","537","3069335","0.0-6.0-6.75","5475684","co38089","norming","","","{""aha"":3}","[0]","../img/tt/1199tt.jpg","",""
"null","<div style=""font-size:60px;""> </div>","null","fixation","html-keyboard-response","538","3069542","0.0-6.0-0.76","5475684","co38089","norming","","","","","","",""
"null","../img/tt/1283tt.jpg","null","mooney1","image-keyboard-response","539","3072546","0.0-6.0-1.76","5475684","co38089","norming","","","","","","",""
"14474","","","post_mooney1_questions","survey-likert","540","3087023","0.0-6.0-2.76","5475684","co38089","norming","","","{""curiosity"":4,""confidence"":0}","[0,1]","../img/tt/1283tt.jpg","",""
"3549.06500000041","","","recognition","survey-text","541","3090575","0.0-6.0-3.76","5475684","co38089","norming","","","{""guess"":""bloemen""}","","../img/tt/1283tt.jpg","",""
"null","../img/gs/1283gs.jpg","null","reveal","image-keyboard-response","542","3092581","0.0-6.0-4.76","5475684","co38089","norming","","","","","","",""
"null","../img/tt/1283tt.jpg","null","mooney2","image-keyboard-response","543","3094597","0.0-6.0-5.76","5475684","co38089","norming","","","","","","",""
"5519.340000000317","","","post_reveal_questions","survey-likert","544","3100119","0.0-6.0-6.76","5475684","co38089","norming","","","{""aha"":3}","[0]","../img/tt/1283tt.jpg","",""
"null","<div style=""font-size:60px;""> </div>","null","fixation","html-keyboard-response","545","3100331","0.0-6.0-0.77","5475684","co38089","norming","","","","","","",""
"null","../img/tt/1044tt.jpg","null","mooney1","image-keyboard-response","546","3103344","0.0-6.0-1.77","5475684","co38089","norming","","","","","","",""
"32892.51999999955","","","post_mooney1_questions","survey-likert","547","3136239","0.0-6.0-2.77","5475684","co38089","norming","","","{""curiosity"":4,""confidence"":0}","[0,1]","../img/tt/1044tt.jpg","",""
"4205.260000000242","","","recognition","survey-text","548","3140447","0.0-6.0-3.77","5475684","co38089","norming","","","{""guess"":""kikker""}","","../img/tt/1044tt.jpg","",""
"null","../img/gs/1044gs.jpg","null","reveal","image-keyboard-response","549","3142448","0.0-6.0-4.77","5475684","co38089","norming","","","","","","",""
"null","../img/tt/1044tt.jpg","null","mooney2","image-keyboard-response","550","3144463","0.0-6.0-5.77","5475684","co38089","norming","","","","","","",""
"31557.044999999925","","","post_reveal_questions","survey-likert","551","3176023","0.0-6.0-6.77","5475684","co38089","norming","","","{""aha"":4}","[0]","../img/tt/1044tt.jpg","",""
