"rt","stimulus","key_press","test_part","trial_type","trial_index","time_elapsed","internal_node_id","totalTime","subject","experiment_name","button_pressed","success","responses","question_order","currentStim","old","correct"
"28019.399999999997","Welcome to the experiment. This is an online experiment so please don't close the tab/window until we say goodbye.  Press any key to begin.","13","instructions","html-keyboard-response","0","28021","0.0-0.0","3008654","co38671 ","norming","","","","","","",""
"77716.4","<div style='word-wrap: break-word; width: 900px'><h3>Please consider this information carefully before deciding whether to participate in this research</h3><ul style='text-align: left; font-size: .8em;'><li><b>Purpose of the research</b>: To examine how people process images.</li><li><b>What you will do in this research</b>:  Stimuli (images) will be presented on the computer and you will be asked different questions about them.</li><li><b>Time required</b>: Participation will take between 45 and 60 minutes to complete.</li><li><b>Risks</b>:  There are no anticipated risks associated with participating in this study. The effects of participating should be comparable to those you would experience from viewing a computer monitor for 30 minutes and using a mouse or keyboard.</li><li><b>Benefits</b>:  This study provides no benefits to you individually except for the credit. The study provides important information about the nature of perception and learning.</li><li><b>Confidentiality</b>:  Your participation in this study will remain confidential. No personally identifiable information will be associated with your data. Your de-identified data may be shared with other researchers and used in future projects.</li><li><b>Participation and withdrawal</b>:  Your participation in this study is completely voluntary and you may refuse to participate or you may choose to withdraw at any time without penalty.</li><li><b>How to contact the researchers</b>: If you have questions or concerns about your participation or payment, or want to request a summary of research findings, please contact Sander Van de Cruys (KU Leuven), at sander.vandecruys@kuleuven.be.</li></ul><p>The nature and purpose of this research have been sufficiently explained and I agree to participate in this study.  I understand that I am free to withdraw at any time without incurring any penalty.</p><p>Please consent by clicking the button below to continue. Otherwise, please exit the study at this time.</p></div>","","instructions","html-button-response","1","105739","0.0-1.0","3008654","co38671 ","norming","0","","","","","",""
"","","","instructions","fullscreen","2","112756","0.0-2.0","3008654","co38671 ","norming","","true","","","","",""
"28504.399999999994","","","sona","survey-html-form","3","141254","0.0-3.0","3008654","co38671 ","norming","","","[{""name"":""sonaid"",""value"":""38671 ""},{""name"":""debrief"",""value"":""no""},{""name"":""datajoin"",""value"":""yes""}]","","","",""
"91019.20000000001","<div style='word-wrap: break-word; width: 900px'><h3>Instructions</h3><p>This experiment will have 3 parts. In the first part you will see a series of distorted images like the one below on the left. As you can see in the righthand image, the distorted images are derived from actual photographs. In what follows, you will <strong>briefly</strong> be presented with <strong>only</strong> the distorted image.</p> <div style='float: left; margin-right: 20px;'><img src='../img/018tt.jpg' height='250' width='250'></img></div><div style='float: right; margin-left: 20px;'><img src='../img/018gs.jpg' height='250' width='250'></img></div><p>Subsequently you will be asked a few questions about the image: One question on how <strong>curious</strong> you are about the solution and one on how <strong>confident</strong> you are that you know the solution.</p>Next, we ask you to make a guess on what is in the image. Note that it is OK to name just the <strong>basic level category</strong>. For example when you see a parrot in the image, 'parrot' will obviously be a correct answer but also correct is 'bird'. However, 'animal' will <strong>not</strong> be counted as a correct response. For the example above, 'rose' would be correct or 'flower', but not 'plant'. When soccer players are depicted, 'soccer', 'football', 'soccer players' will be correct, but not 'humans', 'outdoors', or 'sports'. You do not need to describe the image in full, just name the main object in it <strong>in one or two words</strong>. All images depict objects from one of the following broad level categories: animals, inanimate objects, plants, sports, vehicles, and food. Recognizing means knowing <strong>more</strong> than these broad labels for a given image. But we always encourage you to <strong>make a guess</strong> if you can. Note that you are allowed to use <strong>Dutch and English</strong> in your answers, whatever comes easiest for you.</p><p>Press any key to continue.</p></div>","32","instructions","html-keyboard-response","4","232275","0.0-4.0","3008654","co38671 ","norming","","","","","","",""
"23358.20000000001","<div style='word-wrap: break-word; width: 900px'><h3>Instructions</h3> <p>Next, the solution image will be revealed to you and you'll be asked to indicate how strong your <strong>aha-experience</strong> was after seeing the solution. This describes the positive feeling of the 'click' you sometimes experience, when the pieces of the 'puzzle' fall together and you suddenly have 'insight' in the image.</p><img src='aha.jpg' height='188' width='250'></img><p>Note that there are no right or wrong answers. We are interested in what <strong>you</strong> see in the image and how <strong>you</strong> feel about it.</p><p>Press any key to start the experiment.</p></div>","32","instructions","html-keyboard-response","5","255634","0.0-5.0","3008654","co38671 ","norming","","","","","","",""
"null","<div style=""font-size:60px;""> </div>","null","fixation","html-keyboard-response","6","255846","0.0-6.0-0.0","3008654","co38671 ","norming","","","","","","",""
"null","../img/tt/1188tt.jpg","null","mooney1","image-keyboard-response","7","258855","0.0-6.0-1.0","3008654","co38671 ","norming","","","","","","",""
"10599.799999999988","","","post_mooney1_questions","survey-likert","8","269458","0.0-6.0-2.0","3008654","co38671 ","norming","","","{""curiosity"":6,""confidence"":0}","[0,1]","../img/tt/1188tt.jpg","",""
"6428.299999999988","","","recognition","survey-text","9","275891","0.0-6.0-3.0","3008654","co38671 ","norming","","","{""guess"":""""}","","../img/tt/1188tt.jpg","",""
"null","../img/gs/1188gs.jpg","null","reveal","image-keyboard-response","10","277905","0.0-6.0-4.0","3008654","co38671 ","norming","","","","","","",""
"null","../img/tt/1188tt.jpg","null","mooney2","image-keyboard-response","11","279908","0.0-6.0-5.0","3008654","co38671 ","norming","","","","","","",""
"4628.599999999977","","","post_reveal_questions","survey-likert","12","284538","0.0-6.0-6.0","3008654","co38671 ","norming","","","{""aha"":5}","[0]","../img/tt/1188tt.jpg","",""
"null","<div style=""font-size:60px;""> </div>","null","fixation","html-keyboard-response","13","284755","0.0-6.0-0.1","3008654","co38671 ","norming","","","","","","",""
"null","../img/tt/584tt.jpg","null","mooney1","image-keyboard-response","14","287780","0.0-6.0-1.1","3008654","co38671 ","norming","","","","","","",""
"7106.399999999965","","","post_mooney1_questions","survey-likert","15","294890","0.0-6.0-2.1","3008654","co38671 ","norming","","","{""curiosity"":6,""confidence"":0}","[0,1]","../img/tt/584tt.jpg","",""
"1404.3000000000465","","","recognition","survey-text","16","296298","0.0-6.0-3.1","3008654","co38671 ","norming","","","{""guess"":""""}","","../img/tt/584tt.jpg","",""
"null","../img/gs/584gs.jpg","null","reveal","image-keyboard-response","17","298332","0.0-6.0-4.1","3008654","co38671 ","norming","","","","","","",""
"null","../img/tt/584tt.jpg","null","mooney2","image-keyboard-response","18","300318","0.0-6.0-5.1","3008654","co38671 ","norming","","","","","","",""
"2872.4000000000233","","","post_reveal_questions","survey-likert","19","303194","0.0-6.0-6.1","3008654","co38671 ","norming","","","{""aha"":3}","[0]","../img/tt/584tt.jpg","",""
"null","<div style=""font-size:60px;""> </div>","null","fixation","html-keyboard-response","20","303395","0.0-6.0-0.2","3008654","co38671 ","norming","","","","","","",""
"null","../img/tt/1290tt.jpg","null","mooney1","image-keyboard-response","21","306419","0.0-6.0-1.2","3008654","co38671 ","norming","","","","","","",""
"7835.299999999988","","","post_mooney1_questions","survey-likert","22","314258","0.0-6.0-2.2","3008654","co38671 ","norming","","","{""curiosity"":2,""confidence"":5}","[0,1]","../img/tt/1290tt.jpg","",""
"2798.100000000035","","","recognition","survey-text","23","317060","0.0-6.0-3.2","3008654","co38671 ","norming","","","{""guess"":""skilift""}","","../img/tt/1290tt.jpg","",""
"null","../img/gs/1290gs.jpg","null","reveal","image-keyboard-response","24","319072","0.0-6.0-4.2","3008654","co38671 ","norming","","","","","","",""
"null","../img/tt/1290tt.jpg","null","mooney2","image-keyboard-response","25","321077","0.0-6.0-5.2","3008654","co38671 ","norming","","","","","","",""
"4193.200000000012","","","post_reveal_questions","survey-likert","26","325273","0.0-6.0-6.2","3008654","co38671 ","norming","","","{""aha"":0}","[0]","../img/tt/1290tt.jpg","",""
"null","<div style=""font-size:60px;""> </div>","null","fixation","html-keyboard-response","27","325482","0.0-6.0-0.3","3008654","co38671 ","norming","","","","","","",""
"null","../img/tt/468tt.jpg","null","mooney1","image-keyboard-response","28","328491","0.0-6.0-1.3","3008654","co38671 ","norming","","","","","","",""
"12396.700000000011","","","post_mooney1_questions","survey-likert","29","340892","0.0-6.0-2.3","3008654","co38671 ","norming","","","{""curiosity"":4,""confidence"":1}","[0,1]","../img/tt/468tt.jpg","",""
"2603.2000000000116","","","recognition","survey-text","30","343499","0.0-6.0-3.3","3008654","co38671 ","norming","","","{""guess"":""hoed""}","","../img/tt/468tt.jpg","",""
"null","../img/gs/468gs.jpg","null","reveal","image-keyboard-response","31","345523","0.0-6.0-4.3","3008654","co38671 ","norming","","","","","","",""
"null","../img/tt/468tt.jpg","null","mooney2","image-keyboard-response","32","347514","0.0-6.0-5.3","3008654","co38671 ","norming","","","","","","",""
"2557","","","post_reveal_questions","survey-likert","33","350073","0.0-6.0-6.3","3008654","co38671 ","norming","","","{""aha"":5}","[0]","../img/tt/468tt.jpg","",""
"null","<div style=""font-size:60px;""> </div>","null","fixation","html-keyboard-response","34","350290","0.0-6.0-0.4","3008654","co38671 ","norming","","","","","","",""
"null","../img/tt/008tt.jpg","null","mooney1","image-keyboard-response","35","353297","0.0-6.0-1.4","3008654","co38671 ","norming","","","","","","",""
"4421.200000000012","","","post_mooney1_questions","survey-likert","36","357721","0.0-6.0-2.4","3008654","co38671 ","norming","","","{""curiosity"":0,""confidence"":0}","[0,1]","../img/tt/008tt.jpg","",""
"796.6999999999534","","","recognition","survey-text","37","358522","0.0-6.0-3.4","3008654","co38671 ","norming","","","{""guess"":""""}","","../img/tt/008tt.jpg","",""
"null","../img/gs/008gs.jpg","null","reveal","image-keyboard-response","38","360522","0.0-6.0-4.4","3008654","co38671 ","norming","","","","","","",""
"null","../img/tt/008tt.jpg","null","mooney2","image-keyboard-response","39","362521","0.0-6.0-5.4","3008654","co38671 ","norming","","","","","","",""
"3268.7999999999883","","","post_reveal_questions","survey-likert","40","365795","0.0-6.0-6.4","3008654","co38671 ","norming","","","{""aha"":6}","[0]","../img/tt/008tt.jpg","",""
"null","<div style=""font-size:60px;""> </div>","null","fixation","html-keyboard-response","41","366014","0.0-6.0-0.5","3008654","co38671 ","norming","","","","","","",""
"null","../img/tt/1237tt.jpg","null","mooney1","image-keyboard-response","42","369039","0.0-6.0-1.5","3008654","co38671 ","norming","","","","","","",""
"4807.299999999988","","","post_mooney1_questions","survey-likert","43","373850","0.0-6.0-2.5","3008654","co38671 ","norming","","","{""curiosity"":5,""confidence"":1}","[0,1]","../img/tt/1237tt.jpg","",""
"2166","","","recognition","survey-text","44","376020","0.0-6.0-3.5","3008654","co38671 ","norming","","","{""guess"":""de zee""}","","../img/tt/1237tt.jpg","",""
"null","../img/gs/1237gs.jpg","null","reveal","image-keyboard-response","45","378049","0.0-6.0-4.5","3008654","co38671 ","norming","","","","","","",""
"null","../img/tt/1237tt.jpg","null","mooney2","image-keyboard-response","46","380032","0.0-6.0-5.5","3008654","co38671 ","norming","","","","","","",""
"3655.7999999999883","","","post_reveal_questions","survey-likert","47","383689","0.0-6.0-6.5","3008654","co38671 ","norming","","","{""aha"":4}","[0]","../img/tt/1237tt.jpg","",""
"null","<div style=""font-size:60px;""> </div>","null","fixation","html-keyboard-response","48","383909","0.0-6.0-0.6","3008654","co38671 ","norming","","","","","","",""
"null","../img/tt/1096tt.jpg","null","mooney1","image-keyboard-response","49","386918","0.0-6.0-1.6","3008654","co38671 ","norming","","","","","","",""
"5080.799999999988","","","post_mooney1_questions","survey-likert","50","392002","0.0-6.0-2.6","3008654","co38671 ","norming","","","{""curiosity"":4,""confidence"":2}","[0,1]","../img/tt/1096tt.jpg","",""
"5484","","","recognition","survey-text","51","397492","0.0-6.0-3.6","3008654","co38671 ","norming","","","{""guess"":""trap""}","","../img/tt/1096tt.jpg","",""
"null","../img/gs/1096gs.jpg","null","reveal","image-keyboard-response","52","399500","0.0-6.0-4.6","3008654","co38671 ","norming","","","","","","",""
"null","../img/tt/1096tt.jpg","null","mooney2","image-keyboard-response","53","401514","0.0-6.0-5.6","3008654","co38671 ","norming","","","","","","",""
"3285.2000000000116","","","post_reveal_questions","survey-likert","54","404801","0.0-6.0-6.6","3008654","co38671 ","norming","","","{""aha"":5}","[0]","../img/tt/1096tt.jpg","",""
"null","<div style=""font-size:60px;""> </div>","null","fixation","html-keyboard-response","55","405017","0.0-6.0-0.7","3008654","co38671 ","norming","","","","","","",""
"null","../img/tt/1235tt.jpg","null","mooney1","image-keyboard-response","56","408027","0.0-6.0-1.7","3008654","co38671 ","norming","","","","","","",""
"4283.399999999965","","","post_mooney1_questions","survey-likert","57","412314","0.0-6.0-2.7","3008654","co38671 ","norming","","","{""curiosity"":0,""confidence"":0}","[0,1]","../img/tt/1235tt.jpg","",""
"1539.7000000000116","","","recognition","survey-text","58","413858","0.0-6.0-3.7","3008654","co38671 ","norming","","","{""guess"":""""}","","../img/tt/1235tt.jpg","",""
"null","../img/gs/1235gs.jpg","null","reveal","image-keyboard-response","59","415880","0.0-6.0-4.7","3008654","co38671 ","norming","","","","","","",""
"null","../img/tt/1235tt.jpg","null","mooney2","image-keyboard-response","60","417871","0.0-6.0-5.7","3008654","co38671 ","norming","","","","","","",""
"3416.2999999999883","","","post_reveal_questions","survey-likert","61","421290","0.0-6.0-6.7","3008654","co38671 ","norming","","","{""aha"":6}","[0]","../img/tt/1235tt.jpg","",""
"null","<div style=""font-size:60px;""> </div>","null","fixation","html-keyboard-response","62","421497","0.0-6.0-0.8","3008654","co38671 ","norming","","","","","","",""
"null","../img/tt/1143tt.jpg","null","mooney1","image-keyboard-response","63","424506","0.0-6.0-1.8","3008654","co38671 ","norming","","","","","","",""
"6524.700000000012","","","post_mooney1_questions","survey-likert","64","431033","0.0-6.0-2.8","3008654","co38671 ","norming","","","{""curiosity"":5,""confidence"":3}","[0,1]","../img/tt/1143tt.jpg","",""
"6645.5","","","recognition","survey-text","65","437682","0.0-6.0-3.8","3008654","co38671 ","norming","","","{""guess"":""leslokaal""}","","../img/tt/1143tt.jpg","",""
"null","../img/gs/1143gs.jpg","null","reveal","image-keyboard-response","66","439693","0.0-6.0-4.8","3008654","co38671 ","norming","","","","","","",""
"null","../img/tt/1143tt.jpg","null","mooney2","image-keyboard-response","67","441694","0.0-6.0-5.8","3008654","co38671 ","norming","","","","","","",""
"2233.2000000000116","","","post_reveal_questions","survey-likert","68","443929","0.0-6.0-6.8","3008654","co38671 ","norming","","","{""aha"":6}","[0]","../img/tt/1143tt.jpg","",""
"null","<div style=""font-size:60px;""> </div>","null","fixation","html-keyboard-response","69","444138","0.0-6.0-0.9","3008654","co38671 ","norming","","","","","","",""
"null","../img/tt/096tt.jpg","null","mooney1","image-keyboard-response","70","447146","0.0-6.0-1.9","3008654","co38671 ","norming","","","","","","",""
"4619.5","","","post_mooney1_questions","survey-likert","71","451769","0.0-6.0-2.9","3008654","co38671 ","norming","","","{""curiosity"":5,""confidence"":6}","[0,1]","../img/tt/096tt.jpg","",""
"2509.6999999999534","","","recognition","survey-text","72","454282","0.0-6.0-3.9","3008654","co38671 ","norming","","","{""guess"":""piano""}","","../img/tt/096tt.jpg","",""
"null","../img/gs/096gs.jpg","null","reveal","image-keyboard-response","73","456287","0.0-6.0-4.9","3008654","co38671 ","norming","","","","","","",""
"null","../img/tt/096tt.jpg","null","mooney2","image-keyboard-response","74","458294","0.0-6.0-5.9","3008654","co38671 ","norming","","","","","","",""
"3296.9000000000233","","","post_reveal_questions","survey-likert","75","461593","0.0-6.0-6.9","3008654","co38671 ","norming","","","{""aha"":0}","[0]","../img/tt/096tt.jpg","",""
"null","<div style=""font-size:60px;""> </div>","null","fixation","html-keyboard-response","76","461804","0.0-6.0-0.10","3008654","co38671 ","norming","","","","","","",""
"null","../img/tt/524tt.jpg","null","mooney1","image-keyboard-response","77","464833","0.0-6.0-1.10","3008654","co38671 ","norming","","","","","","",""
"4468.5","","","post_mooney1_questions","survey-likert","78","469306","0.0-6.0-2.10","3008654","co38671 ","norming","","","{""curiosity"":0,""confidence"":0}","[0,1]","../img/tt/524tt.jpg","",""
"756.3999999999651","","","recognition","survey-text","79","470065","0.0-6.0-3.10","3008654","co38671 ","norming","","","{""guess"":""""}","","../img/tt/524tt.jpg","",""
"null","../img/gs/524gs.jpg","null","reveal","image-keyboard-response","80","472077","0.0-6.0-4.10","3008654","co38671 ","norming","","","","","","",""
"null","../img/tt/524tt.jpg","null","mooney2","image-keyboard-response","81","474082","0.0-6.0-5.10","3008654","co38671 ","norming","","","","","","",""
"2084.7000000000116","","","post_reveal_questions","survey-likert","82","476169","0.0-6.0-6.10","3008654","co38671 ","norming","","","{""aha"":5}","[0]","../img/tt/524tt.jpg","",""
"null","<div style=""font-size:60px;""> </div>","null","fixation","html-keyboard-response","83","476387","0.0-6.0-0.11","3008654","co38671 ","norming","","","","","","",""
"null","../img/tt/019tt.jpg","null","mooney1","image-keyboard-response","84","479396","0.0-6.0-1.11","3008654","co38671 ","norming","","","","","","",""
"5090","","","post_mooney1_questions","survey-likert","85","484490","0.0-6.0-2.11","3008654","co38671 ","norming","","","{""curiosity"":4,""confidence"":4}","[0,1]","../img/tt/019tt.jpg","",""
"4819.799999999988","","","recognition","survey-text","86","489314","0.0-6.0-3.11","3008654","co38671 ","norming","","","{""guess"":""tang""}","","../img/tt/019tt.jpg","",""
"null","../img/gs/019gs.jpg","null","reveal","image-keyboard-response","87","491331","0.0-6.0-4.11","3008654","co38671 ","norming","","","","","","",""
"null","../img/tt/019tt.jpg","null","mooney2","image-keyboard-response","88","493332","0.0-6.0-5.11","3008654","co38671 ","norming","","","","","","",""
"2610","","","post_reveal_questions","survey-likert","89","495945","0.0-6.0-6.11","3008654","co38671 ","norming","","","{""aha"":1}","[0]","../img/tt/019tt.jpg","",""
"null","<div style=""font-size:60px;""> </div>","null","fixation","html-keyboard-response","90","496162","0.0-6.0-0.12","3008654","co38671 ","norming","","","","","","",""
"null","../img/tt/194tt.jpg","null","mooney1","image-keyboard-response","91","499186","0.0-6.0-1.12","3008654","co38671 ","norming","","","","","","",""
"4164.599999999977","","","post_mooney1_questions","survey-likert","92","503353","0.0-6.0-2.12","3008654","co38671 ","norming","","","{""curiosity"":4,""confidence"":4}","[0,1]","../img/tt/194tt.jpg","",""
"4518.100000000035","","","recognition","survey-text","93","507875","0.0-6.0-3.12","3008654","co38671 ","norming","","","{""guess"":""cellist""}","","../img/tt/194tt.jpg","",""
"null","../img/gs/194gs.jpg","null","reveal","image-keyboard-response","94","509881","0.0-6.0-4.12","3008654","co38671 ","norming","","","","","","",""
"null","../img/tt/194tt.jpg","null","mooney2","image-keyboard-response","95","511874","0.0-6.0-5.12","3008654","co38671 ","norming","","","","","","",""
"2388.899999999965","","","post_reveal_questions","survey-likert","96","514265","0.0-6.0-6.12","3008654","co38671 ","norming","","","{""aha"":3}","[0]","../img/tt/194tt.jpg","",""
"null","<div style=""font-size:60px;""> </div>","null","fixation","html-keyboard-response","97","514473","0.0-6.0-0.13","3008654","co38671 ","norming","","","","","","",""
"null","../img/tt/405tt.jpg","null","mooney1","image-keyboard-response","98","517483","0.0-6.0-1.13","3008654","co38671 ","norming","","","","","","",""
"6125.299999999988","","","post_mooney1_questions","survey-likert","99","523610","0.0-6.0-2.13","3008654","co38671 ","norming","","","{""curiosity"":0,""confidence"":0}","[0,1]","../img/tt/405tt.jpg","",""
"596","","","recognition","survey-text","100","524210","0.0-6.0-3.13","3008654","co38671 ","norming","","","{""guess"":""""}","","../img/tt/405tt.jpg","",""
"null","../img/gs/405gs.jpg","null","reveal","image-keyboard-response","101","526220","0.0-6.0-4.13","3008654","co38671 ","norming","","","","","","",""
"null","../img/tt/405tt.jpg","null","mooney2","image-keyboard-response","102","528222","0.0-6.0-5.13","3008654","co38671 ","norming","","","","","","",""
"3057.1999999999534","","","post_reveal_questions","survey-likert","103","531281","0.0-6.0-6.13","3008654","co38671 ","norming","","","{""aha"":5}","[0]","../img/tt/405tt.jpg","",""
"null","<div style=""font-size:60px;""> </div>","null","fixation","html-keyboard-response","104","531490","0.0-6.0-0.14","3008654","co38671 ","norming","","","","","","",""
"null","../img/tt/123tt.jpg","null","mooney1","image-keyboard-response","105","534515","0.0-6.0-1.14","3008654","co38671 ","norming","","","","","","",""
"4331.5","","","post_mooney1_questions","survey-likert","106","538849","0.0-6.0-2.14","3008654","co38671 ","norming","","","{""curiosity"":0,""confidence"":0}","[0,1]","../img/tt/123tt.jpg","",""
"1227.9000000000232","","","recognition","survey-text","107","540081","0.0-6.0-3.14","3008654","co38671 ","norming","","","{""guess"":""""}","","../img/tt/123tt.jpg","",""
"null","../img/gs/123gs.jpg","null","reveal","image-keyboard-response","108","542084","0.0-6.0-4.14","3008654","co38671 ","norming","","","","","","",""
"null","../img/tt/123tt.jpg","null","mooney2","image-keyboard-response","109","544086","0.0-6.0-5.14","3008654","co38671 ","norming","","","","","","",""
"5016.79999999993","","","post_reveal_questions","survey-likert","110","549106","0.0-6.0-6.14","3008654","co38671 ","norming","","","{""aha"":5}","[0]","../img/tt/123tt.jpg","",""
"null","<div style=""font-size:60px;""> </div>","null","fixation","html-keyboard-response","111","549308","0.0-6.0-0.15","3008654","co38671 ","norming","","","","","","",""
"null","../img/tt/296tt.jpg","null","mooney1","image-keyboard-response","112","552333","0.0-6.0-1.15","3008654","co38671 ","norming","","","","","","",""
"6218.199999999953","","","post_mooney1_questions","survey-likert","113","558554","0.0-6.0-2.15","3008654","co38671 ","norming","","","{""curiosity"":6,""confidence"":5}","[0,1]","../img/tt/296tt.jpg","",""
"5061.5","","","recognition","survey-text","114","563619","0.0-6.0-3.15","3008654","co38671 ","norming","","","{""guess"":""kapsalon""}","","../img/tt/296tt.jpg","",""
"null","../img/gs/296gs.jpg","null","reveal","image-keyboard-response","115","565640","0.0-6.0-4.15","3008654","co38671 ","norming","","","","","","",""
"null","../img/tt/296tt.jpg","null","mooney2","image-keyboard-response","116","567627","0.0-6.0-5.15","3008654","co38671 ","norming","","","","","","",""
"3746.4000000000233","","","post_reveal_questions","survey-likert","117","571377","0.0-6.0-6.15","3008654","co38671 ","norming","","","{""aha"":6}","[0]","../img/tt/296tt.jpg","",""
"null","<div style=""font-size:60px;""> </div>","null","fixation","html-keyboard-response","118","571581","0.0-6.0-0.16","3008654","co38671 ","norming","","","","","","",""
"null","../img/tt/507tt.jpg","null","mooney1","image-keyboard-response","119","574590","0.0-6.0-1.16","3008654","co38671 ","norming","","","","","","",""
"16193.199999999953","","","post_mooney1_questions","survey-likert","120","590785","0.0-6.0-2.16","3008654","co38671 ","norming","","","{""curiosity"":0,""confidence"":0}","[0,1]","../img/tt/507tt.jpg","",""
"876.1999999999534","","","recognition","survey-text","121","591666","0.0-6.0-3.16","3008654","co38671 ","norming","","","{""guess"":""""}","","../img/tt/507tt.jpg","",""
"null","../img/gs/507gs.jpg","null","reveal","image-keyboard-response","122","593688","0.0-6.0-4.16","3008654","co38671 ","norming","","","","","","",""
"null","../img/tt/507tt.jpg","null","mooney2","image-keyboard-response","123","595690","0.0-6.0-5.16","3008654","co38671 ","norming","","","","","","",""
"3091.6999999999534","","","post_reveal_questions","survey-likert","124","598785","0.0-6.0-6.16","3008654","co38671 ","norming","","","{""aha"":6}","[0]","../img/tt/507tt.jpg","",""
"null","<div style=""font-size:60px;""> </div>","null","fixation","html-keyboard-response","125","599008","0.0-6.0-0.17","3008654","co38671 ","norming","","","","","","",""
"null","../img/tt/300tt.jpg","null","mooney1","image-keyboard-response","126","602016","0.0-6.0-1.17","3008654","co38671 ","norming","","","","","","",""
"5549.900000000023","","","post_mooney1_questions","survey-likert","127","607569","0.0-6.0-2.17","3008654","co38671 ","norming","","","{""curiosity"":5,""confidence"":4}","[0,1]","../img/tt/300tt.jpg","",""
"3317.6999999999534","","","recognition","survey-text","128","610891","0.0-6.0-3.17","3008654","co38671 ","norming","","","{""guess"":""aapjes""}","","../img/tt/300tt.jpg","",""
"null","../img/gs/300gs.jpg","null","reveal","image-keyboard-response","129","612909","0.0-6.0-4.17","3008654","co38671 ","norming","","","","","","",""
"null","../img/tt/300tt.jpg","null","mooney2","image-keyboard-response","130","614893","0.0-6.0-5.17","3008654","co38671 ","norming","","","","","","",""
"2762.0999999999767","","","post_reveal_questions","survey-likert","131","617658","0.0-6.0-6.17","3008654","co38671 ","norming","","","{""aha"":3}","[0]","../img/tt/300tt.jpg","",""
"null","<div style=""font-size:60px;""> </div>","null","fixation","html-keyboard-response","132","617876","0.0-6.0-0.18","3008654","co38671 ","norming","","","","","","",""
"null","../img/tt/184tt.jpg","null","mooney1","image-keyboard-response","133","620897","0.0-6.0-1.18","3008654","co38671 ","norming","","","","","","",""
"8205.20000000007","","","post_mooney1_questions","survey-likert","134","629105","0.0-6.0-2.18","3008654","co38671 ","norming","","","{""curiosity"":2,""confidence"":0}","[0,1]","../img/tt/184tt.jpg","",""
"1419.6999999999534","","","recognition","survey-text","135","630529","0.0-6.0-3.18","3008654","co38671 ","norming","","","{""guess"":""""}","","../img/tt/184tt.jpg","",""
"null","../img/gs/184gs.jpg","null","reveal","image-keyboard-response","136","632558","0.0-6.0-4.18","3008654","co38671 ","norming","","","","","","",""
"null","../img/tt/184tt.jpg","null","mooney2","image-keyboard-response","137","634550","0.0-6.0-5.18","3008654","co38671 ","norming","","","","","","",""
"3488.5999999999767","","","post_reveal_questions","survey-likert","138","638041","0.0-6.0-6.18","3008654","co38671 ","norming","","","{""aha"":4}","[0]","../img/tt/184tt.jpg","",""
"null","<div style=""font-size:60px;""> </div>","null","fixation","html-keyboard-response","139","638261","0.0-6.0-0.19","3008654","co38671 ","norming","","","","","","",""
"null","../img/tt/056tt.jpg","null","mooney1","image-keyboard-response","140","641284","0.0-6.0-1.19","3008654","co38671 ","norming","","","","","","",""
"6698.100000000093","","","post_mooney1_questions","survey-likert","141","647986","0.0-6.0-2.19","3008654","co38671 ","norming","","","{""curiosity"":2,""confidence"":0}","[0,1]","../img/tt/056tt.jpg","",""
"628.2999999999301","","","recognition","survey-text","142","648617","0.0-6.0-3.19","3008654","co38671 ","norming","","","{""guess"":""""}","","../img/tt/056tt.jpg","",""
"null","../img/gs/056gs.jpg","null","reveal","image-keyboard-response","143","650628","0.0-6.0-4.19","3008654","co38671 ","norming","","","","","","",""
"null","../img/tt/056tt.jpg","null","mooney2","image-keyboard-response","144","652630","0.0-6.0-5.19","3008654","co38671 ","norming","","","","","","",""
"4504.699999999953","","","post_reveal_questions","survey-likert","145","657137","0.0-6.0-6.19","3008654","co38671 ","norming","","","{""aha"":4}","[0]","../img/tt/056tt.jpg","",""
"null","<div style=""font-size:60px;""> </div>","null","fixation","html-keyboard-response","146","657353","0.0-6.0-0.20","3008654","co38671 ","norming","","","","","","",""
"null","../img/tt/378tt.jpg","null","mooney1","image-keyboard-response","147","660355","0.0-6.0-1.20","3008654","co38671 ","norming","","","","","","",""
"6531","","","post_mooney1_questions","survey-likert","148","666889","0.0-6.0-2.20","3008654","co38671 ","norming","","","{""curiosity"":2,""confidence"":3}","[0,1]","../img/tt/378tt.jpg","",""
"4565.699999999953","","","recognition","survey-text","149","671458","0.0-6.0-3.20","3008654","co38671 ","norming","","","{""guess"":""vrouw""}","","../img/tt/378tt.jpg","",""
"null","../img/gs/378gs.jpg","null","reveal","image-keyboard-response","150","673484","0.0-6.0-4.20","3008654","co38671 ","norming","","","","","","",""
"null","../img/tt/378tt.jpg","null","mooney2","image-keyboard-response","151","675488","0.0-6.0-5.20","3008654","co38671 ","norming","","","","","","",""
"3197.9000000000233","","","post_reveal_questions","survey-likert","152","678688","0.0-6.0-6.20","3008654","co38671 ","norming","","","{""aha"":4}","[0]","../img/tt/378tt.jpg","",""
"null","<div style=""font-size:60px;""> </div>","null","fixation","html-keyboard-response","153","678899","0.0-6.0-0.21","3008654","co38671 ","norming","","","","","","",""
"null","../img/tt/1353tt.jpg","null","mooney1","image-keyboard-response","154","681906","0.0-6.0-1.21","3008654","co38671 ","norming","","","","","","",""
"6604.29999999993","","","post_mooney1_questions","survey-likert","155","688513","0.0-6.0-2.21","3008654","co38671 ","norming","","","{""curiosity"":6,""confidence"":6}","[0,1]","../img/tt/1353tt.jpg","",""
"2443.79999999993","","","recognition","survey-text","156","690962","0.0-6.0-3.21","3008654","co38671 ","norming","","","{""guess"":""paprika""}","","../img/tt/1353tt.jpg","",""
"null","../img/gs/1353gs.jpg","null","reveal","image-keyboard-response","157","692969","0.0-6.0-4.21","3008654","co38671 ","norming","","","","","","",""
"null","../img/tt/1353tt.jpg","null","mooney2","image-keyboard-response","158","694985","0.0-6.0-5.21","3008654","co38671 ","norming","","","","","","",""
"1636.5","","","post_reveal_questions","survey-likert","159","696624","0.0-6.0-6.21","3008654","co38671 ","norming","","","{""aha"":3}","[0]","../img/tt/1353tt.jpg","",""
"null","<div style=""font-size:60px;""> </div>","null","fixation","html-keyboard-response","160","696843","0.0-6.0-0.22","3008654","co38671 ","norming","","","","","","",""
"null","../img/tt/1151tt.jpg","null","mooney1","image-keyboard-response","161","699854","0.0-6.0-1.22","3008654","co38671 ","norming","","","","","","",""
"5119.79999999993","","","post_mooney1_questions","survey-likert","162","704977","0.0-6.0-2.22","3008654","co38671 ","norming","","","{""curiosity"":3,""confidence"":0}","[0,1]","../img/tt/1151tt.jpg","",""
"1068.0999999999767","","","recognition","survey-text","163","706049","0.0-6.0-3.22","3008654","co38671 ","norming","","","{""guess"":""""}","","../img/tt/1151tt.jpg","",""
"null","../img/gs/1151gs.jpg","null","reveal","image-keyboard-response","164","708082","0.0-6.0-4.22","3008654","co38671 ","norming","","","","","","",""
"null","../img/tt/1151tt.jpg","null","mooney2","image-keyboard-response","165","710065","0.0-6.0-5.22","3008654","co38671 ","norming","","","","","","",""
"4988.5","","","post_reveal_questions","survey-likert","166","715056","0.0-6.0-6.22","3008654","co38671 ","norming","","","{""aha"":4}","[0]","../img/tt/1151tt.jpg","",""
"null","<div style=""font-size:60px;""> </div>","null","fixation","html-keyboard-response","167","715263","0.0-6.0-0.23","3008654","co38671 ","norming","","","","","","",""
"null","../img/tt/094tt.jpg","null","mooney1","image-keyboard-response","168","718276","0.0-6.0-1.23","3008654","co38671 ","norming","","","","","","",""
"6785.800000000047","","","post_mooney1_questions","survey-likert","169","725066","0.0-6.0-2.23","3008654","co38671 ","norming","","","{""curiosity"":0,""confidence"":0}","[0,1]","../img/tt/094tt.jpg","",""
"1011.6000000000931","","","recognition","survey-text","170","726082","0.0-6.0-3.23","3008654","co38671 ","norming","","","{""guess"":""""}","","../img/tt/094tt.jpg","",""
"null","../img/gs/094gs.jpg","null","reveal","image-keyboard-response","171","728101","0.0-6.0-4.23","3008654","co38671 ","norming","","","","","","",""
"null","../img/tt/094tt.jpg","null","mooney2","image-keyboard-response","172","730103","0.0-6.0-5.23","3008654","co38671 ","norming","","","","","","",""
"5807.20000000007","","","post_reveal_questions","survey-likert","173","735913","0.0-6.0-6.23","3008654","co38671 ","norming","","","{""aha"":2}","[0]","../img/tt/094tt.jpg","",""
"null","<div style=""font-size:60px;""> </div>","null","fixation","html-keyboard-response","174","736123","0.0-6.0-0.24","3008654","co38671 ","norming","","","","","","",""
"null","../img/tt/1200tt.jpg","null","mooney1","image-keyboard-response","175","739145","0.0-6.0-1.24","3008654","co38671 ","norming","","","","","","",""
"6581.699999999953","","","post_mooney1_questions","survey-likert","176","745729","0.0-6.0-2.24","3008654","co38671 ","norming","","","{""curiosity"":0,""confidence"":0}","[0,1]","../img/tt/1200tt.jpg","",""
"868.0999999999767","","","recognition","survey-text","177","746601","0.0-6.0-3.24","3008654","co38671 ","norming","","","{""guess"":""""}","","../img/tt/1200tt.jpg","",""
"null","../img/gs/1200gs.jpg","null","reveal","image-keyboard-response","178","748609","0.0-6.0-4.24","3008654","co38671 ","norming","","","","","","",""
"null","../img/tt/1200tt.jpg","null","mooney2","image-keyboard-response","179","750628","0.0-6.0-5.24","3008654","co38671 ","norming","","","","","","",""
"3290","","","post_reveal_questions","survey-likert","180","753921","0.0-6.0-6.24","3008654","co38671 ","norming","","","{""aha"":4}","[0]","../img/tt/1200tt.jpg","",""
"null","<div style=""font-size:60px;""> </div>","null","fixation","html-keyboard-response","181","754125","0.0-6.0-0.25","3008654","co38671 ","norming","","","","","","",""
"null","../img/tt/1211tt.jpg","null","mooney1","image-keyboard-response","182","757136","0.0-6.0-1.25","3008654","co38671 ","norming","","","","","","",""
"5022.599999999977","","","post_mooney1_questions","survey-likert","183","762162","0.0-6.0-2.25","3008654","co38671 ","norming","","","{""curiosity"":1,""confidence"":0}","[0,1]","../img/tt/1211tt.jpg","",""
"899.3000000000466","","","recognition","survey-text","184","763066","0.0-6.0-3.25","3008654","co38671 ","norming","","","{""guess"":""""}","","../img/tt/1211tt.jpg","",""
"null","../img/gs/1211gs.jpg","null","reveal","image-keyboard-response","185","765089","0.0-6.0-4.25","3008654","co38671 ","norming","","","","","","",""
"null","../img/tt/1211tt.jpg","null","mooney2","image-keyboard-response","186","767075","0.0-6.0-5.25","3008654","co38671 ","norming","","","","","","",""
"3842.20000000007","","","post_reveal_questions","survey-likert","187","770920","0.0-6.0-6.25","3008654","co38671 ","norming","","","{""aha"":4}","[0]","../img/tt/1211tt.jpg","",""
"null","<div style=""font-size:60px;""> </div>","null","fixation","html-keyboard-response","188","771127","0.0-6.0-0.26","3008654","co38671 ","norming","","","","","","",""
"null","../img/tt/036tt.jpg","null","mooney1","image-keyboard-response","189","774153","0.0-6.0-1.26","3008654","co38671 ","norming","","","","","","",""
"5325.099999999977","","","post_mooney1_questions","survey-likert","190","779482","0.0-6.0-2.26","3008654","co38671 ","norming","","","{""curiosity"":2,""confidence"":1}","[0,1]","../img/tt/036tt.jpg","",""
"8741","","","recognition","survey-text","191","788226","0.0-6.0-3.26","3008654","co38671 ","norming","","","{""guess"":""boomwortels""}","","../img/tt/036tt.jpg","",""
"null","../img/gs/036gs.jpg","null","reveal","image-keyboard-response","192","790235","0.0-6.0-4.26","3008654","co38671 ","norming","","","","","","",""
"null","../img/tt/036tt.jpg","null","mooney2","image-keyboard-response","193","792249","0.0-6.0-5.26","3008654","co38671 ","norming","","","","","","",""
"2956.4000000000233","","","post_reveal_questions","survey-likert","194","795209","0.0-6.0-6.26","3008654","co38671 ","norming","","","{""aha"":5}","[0]","../img/tt/036tt.jpg","",""
"null","<div style=""font-size:60px;""> </div>","null","fixation","html-keyboard-response","195","795421","0.0-6.0-0.27","3008654","co38671 ","norming","","","","","","",""
"null","../img/tt/517tt.jpg","null","mooney1","image-keyboard-response","196","798433","0.0-6.0-1.27","3008654","co38671 ","norming","","","","","","",""
"4420.099999999977","","","post_mooney1_questions","survey-likert","197","802857","0.0-6.0-2.27","3008654","co38671 ","norming","","","{""curiosity"":2,""confidence"":1}","[0,1]","../img/tt/517tt.jpg","",""
"7173.599999999977","","","recognition","survey-text","198","810034","0.0-6.0-3.27","3008654","co38671 ","norming","","","{""guess"":""wasbeer""}","","../img/tt/517tt.jpg","",""
"null","../img/gs/517gs.jpg","null","reveal","image-keyboard-response","199","812061","0.0-6.0-4.27","3008654","co38671 ","norming","","","","","","",""
"null","../img/tt/517tt.jpg","null","mooney2","image-keyboard-response","200","814045","0.0-6.0-5.27","3008654","co38671 ","norming","","","","","","",""
"2472.3000000000465","","","post_reveal_questions","survey-likert","201","816521","0.0-6.0-6.27","3008654","co38671 ","norming","","","{""aha"":6}","[0]","../img/tt/517tt.jpg","",""
"null","<div style=""font-size:60px;""> </div>","null","fixation","html-keyboard-response","202","816721","0.0-6.0-0.28","3008654","co38671 ","norming","","","","","","",""
"null","../img/tt/1255tt.jpg","null","mooney1","image-keyboard-response","203","819741","0.0-6.0-1.28","3008654","co38671 ","norming","","","","","","",""
"3674","","","post_mooney1_questions","survey-likert","204","823417","0.0-6.0-2.28","3008654","co38671 ","norming","","","{""curiosity"":3,""confidence"":1}","[0,1]","../img/tt/1255tt.jpg","",""
"2805.5999999999767","","","recognition","survey-text","205","826226","0.0-6.0-3.28","3008654","co38671 ","norming","","","{""guess"":""gans""}","","../img/tt/1255tt.jpg","",""
"null","../img/gs/1255gs.jpg","null","reveal","image-keyboard-response","206","828236","0.0-6.0-4.28","3008654","co38671 ","norming","","","","","","",""
"null","../img/tt/1255tt.jpg","null","mooney2","image-keyboard-response","207","830254","0.0-6.0-5.28","3008654","co38671 ","norming","","","","","","",""
"2799.5","","","post_reveal_questions","survey-likert","208","833056","0.0-6.0-6.28","3008654","co38671 ","norming","","","{""aha"":5}","[0]","../img/tt/1255tt.jpg","",""
"null","<div style=""font-size:60px;""> </div>","null","fixation","html-keyboard-response","209","833280","0.0-6.0-0.29","3008654","co38671 ","norming","","","","","","",""
"null","../img/tt/1102tt.jpg","null","mooney1","image-keyboard-response","210","836289","0.0-6.0-1.29","3008654","co38671 ","norming","","","","","","",""
"4869.900000000023","","","post_mooney1_questions","survey-likert","211","841162","0.0-6.0-2.29","3008654","co38671 ","norming","","","{""curiosity"":2,""confidence"":0}","[0,1]","../img/tt/1102tt.jpg","",""
"1059.3000000000465","","","recognition","survey-text","212","842224","0.0-6.0-3.29","3008654","co38671 ","norming","","","{""guess"":""""}","","../img/tt/1102tt.jpg","",""
"null","../img/gs/1102gs.jpg","null","reveal","image-keyboard-response","213","844229","0.0-6.0-4.29","3008654","co38671 ","norming","","","","","","",""
"null","../img/tt/1102tt.jpg","null","mooney2","image-keyboard-response","214","846256","0.0-6.0-5.29","3008654","co38671 ","norming","","","","","","",""
"3013.1999999999534","","","post_reveal_questions","survey-likert","215","849273","0.0-6.0-6.29","3008654","co38671 ","norming","","","{""aha"":2}","[0]","../img/tt/1102tt.jpg","",""
"null","<div style=""font-size:60px;""> </div>","null","fixation","html-keyboard-response","216","849476","0.0-6.0-0.30","3008654","co38671 ","norming","","","","","","",""
"null","../img/tt/307tt.jpg","null","mooney1","image-keyboard-response","217","852501","0.0-6.0-1.30","3008654","co38671 ","norming","","","","","","",""
"5512.400000000023","","","post_mooney1_questions","survey-likert","218","858017","0.0-6.0-2.30","3008654","co38671 ","norming","","","{""curiosity"":2,""confidence"":0}","[0,1]","../img/tt/307tt.jpg","",""
"699.9000000000233","","","recognition","survey-text","219","858720","0.0-6.0-3.30","3008654","co38671 ","norming","","","{""guess"":""""}","","../img/tt/307tt.jpg","",""
"null","../img/gs/307gs.jpg","null","reveal","image-keyboard-response","220","860725","0.0-6.0-4.30","3008654","co38671 ","norming","","","","","","",""
"null","../img/tt/307tt.jpg","null","mooney2","image-keyboard-response","221","862725","0.0-6.0-5.30","3008654","co38671 ","norming","","","","","","",""
"3192.8000000000465","","","post_reveal_questions","survey-likert","222","865921","0.0-6.0-6.30","3008654","co38671 ","norming","","","{""aha"":1}","[0]","../img/tt/307tt.jpg","",""
"null","<div style=""font-size:60px;""> </div>","null","fixation","html-keyboard-response","223","866136","0.0-6.0-0.31","3008654","co38671 ","norming","","","","","","",""
"null","../img/tt/098tt.jpg","null","mooney1","image-keyboard-response","224","869145","0.0-6.0-1.31","3008654","co38671 ","norming","","","","","","",""
"7521.800000000047","","","post_mooney1_questions","survey-likert","225","876673","0.0-6.0-2.31","3008654","co38671 ","norming","","","{""curiosity"":0,""confidence"":0}","[0,1]","../img/tt/098tt.jpg","",""
"1284.1999999999534","","","recognition","survey-text","226","877961","0.0-6.0-3.31","3008654","co38671 ","norming","","","{""guess"":""""}","","../img/tt/098tt.jpg","",""
"null","../img/gs/098gs.jpg","null","reveal","image-keyboard-response","227","879970","0.0-6.0-4.31","3008654","co38671 ","norming","","","","","","",""
"null","../img/tt/098tt.jpg","null","mooney2","image-keyboard-response","228","881975","0.0-6.0-5.31","3008654","co38671 ","norming","","","","","","",""
"2720.6999999999534","","","post_reveal_questions","survey-likert","229","884697","0.0-6.0-6.31","3008654","co38671 ","norming","","","{""aha"":1}","[0]","../img/tt/098tt.jpg","",""
"null","<div style=""font-size:60px;""> </div>","null","fixation","html-keyboard-response","230","884914","0.0-6.0-0.32","3008654","co38671 ","norming","","","","","","",""
"null","../img/tt/082tt.jpg","null","mooney1","image-keyboard-response","231","887924","0.0-6.0-1.32","3008654","co38671 ","norming","","","","","","",""
"5577.79999999993","","","post_mooney1_questions","survey-likert","232","893505","0.0-6.0-2.32","3008654","co38671 ","norming","","","{""curiosity"":1,""confidence"":1}","[0,1]","../img/tt/082tt.jpg","",""
"2692.5999999999767","","","recognition","survey-text","233","896202","0.0-6.0-3.32","3008654","co38671 ","norming","","","{""guess"":""koe""}","","../img/tt/082tt.jpg","",""
"null","../img/gs/082gs.jpg","null","reveal","image-keyboard-response","234","898222","0.0-6.0-4.32","3008654","co38671 ","norming","","","","","","",""
"null","../img/tt/082tt.jpg","null","mooney2","image-keyboard-response","235","900225","0.0-6.0-5.32","3008654","co38671 ","norming","","","","","","",""
"4709.099999999977","","","post_reveal_questions","survey-likert","236","904936","0.0-6.0-6.32","3008654","co38671 ","norming","","","{""aha"":3}","[0]","../img/tt/082tt.jpg","",""
"null","<div style=""font-size:60px;""> </div>","null","fixation","html-keyboard-response","237","905144","0.0-6.0-0.33","3008654","co38671 ","norming","","","","","","",""
"null","../img/tt/1040tt.jpg","null","mooney1","image-keyboard-response","238","908169","0.0-6.0-1.33","3008654","co38671 ","norming","","","","","","",""
"4422","","","post_mooney1_questions","survey-likert","239","912592","0.0-6.0-2.33","3008654","co38671 ","norming","","","{""curiosity"":1,""confidence"":0}","[0,1]","../img/tt/1040tt.jpg","",""
"756.6999999999534","","","recognition","survey-text","240","913353","0.0-6.0-3.33","3008654","co38671 ","norming","","","{""guess"":""""}","","../img/tt/1040tt.jpg","",""
"null","../img/gs/1040gs.jpg","null","reveal","image-keyboard-response","241","915372","0.0-6.0-4.33","3008654","co38671 ","norming","","","","","","",""
"null","../img/tt/1040tt.jpg","null","mooney2","image-keyboard-response","242","917390","0.0-6.0-5.33","3008654","co38671 ","norming","","","","","","",""
"4591.5","","","post_reveal_questions","survey-likert","243","921984","0.0-6.0-6.33","3008654","co38671 ","norming","","","{""aha"":1}","[0]","../img/tt/1040tt.jpg","",""
"null","<div style=""font-size:60px;""> </div>","null","fixation","html-keyboard-response","244","922194","0.0-6.0-0.34","3008654","co38671 ","norming","","","","","","",""
"null","../img/tt/020tt.jpg","null","mooney1","image-keyboard-response","245","925216","0.0-6.0-1.34","3008654","co38671 ","norming","","","","","","",""
"4150.600000000093","","","post_mooney1_questions","survey-likert","246","929369","0.0-6.0-2.34","3008654","co38671 ","norming","","","{""curiosity"":1,""confidence"":0}","[0,1]","../img/tt/020tt.jpg","",""
"916.1999999999534","","","recognition","survey-text","247","930289","0.0-6.0-3.34","3008654","co38671 ","norming","","","{""guess"":""""}","","../img/tt/020tt.jpg","",""
"null","../img/gs/020gs.jpg","null","reveal","image-keyboard-response","248","932306","0.0-6.0-4.34","3008654","co38671 ","norming","","","","","","",""
"null","../img/tt/020tt.jpg","null","mooney2","image-keyboard-response","249","934307","0.0-6.0-5.34","3008654","co38671 ","norming","","","","","","",""
"6649.900000000023","","","post_reveal_questions","survey-likert","250","940960","0.0-6.0-6.34","3008654","co38671 ","norming","","","{""aha"":2}","[0]","../img/tt/020tt.jpg","",""
"null","<div style=""font-size:60px;""> </div>","null","fixation","html-keyboard-response","251","941181","0.0-6.0-0.35","3008654","co38671 ","norming","","","","","","",""
"null","../img/tt/1171tt.jpg","null","mooney1","image-keyboard-response","252","944190","0.0-6.0-1.35","3008654","co38671 ","norming","","","","","","",""
"5000.899999999907","","","post_mooney1_questions","survey-likert","253","949193","0.0-6.0-2.35","3008654","co38671 ","norming","","","{""curiosity"":2,""confidence"":1}","[0,1]","../img/tt/1171tt.jpg","",""
"2413.5","","","recognition","survey-text","254","951610","0.0-6.0-3.35","3008654","co38671 ","norming","","","{""guess"":""baby""}","","../img/tt/1171tt.jpg","",""
"null","../img/gs/1171gs.jpg","null","reveal","image-keyboard-response","255","953621","0.0-6.0-4.35","3008654","co38671 ","norming","","","","","","",""
"null","../img/tt/1171tt.jpg","null","mooney2","image-keyboard-response","256","955627","0.0-6.0-5.35","3008654","co38671 ","norming","","","","","","",""
"3619.1999999999534","","","post_reveal_questions","survey-likert","257","959248","0.0-6.0-6.35","3008654","co38671 ","norming","","","{""aha"":4}","[0]","../img/tt/1171tt.jpg","",""
"null","<div style=""font-size:60px;""> </div>","null","fixation","html-keyboard-response","258","959451","0.0-6.0-0.36","3008654","co38671 ","norming","","","","","","",""
"null","../img/tt/1363tt.jpg","null","mooney1","image-keyboard-response","259","962458","0.0-6.0-1.36","3008654","co38671 ","norming","","","","","","",""
"4262.099999999977","","","post_mooney1_questions","survey-likert","260","966723","0.0-6.0-2.36","3008654","co38671 ","norming","","","{""curiosity"":2,""confidence"":1}","[0,1]","../img/tt/1363tt.jpg","",""
"2378.600000000093","","","recognition","survey-text","261","969105","0.0-6.0-3.36","3008654","co38671 ","norming","","","{""guess"":""perzik""}","","../img/tt/1363tt.jpg","",""
"null","../img/gs/1363gs.jpg","null","reveal","image-keyboard-response","262","971127","0.0-6.0-4.36","3008654","co38671 ","norming","","","","","","",""
"null","../img/tt/1363tt.jpg","null","mooney2","image-keyboard-response","263","973113","0.0-6.0-5.36","3008654","co38671 ","norming","","","","","","",""
"3068.3000000000465","","","post_reveal_questions","survey-likert","264","976184","0.0-6.0-6.36","3008654","co38671 ","norming","","","{""aha"":4}","[0]","../img/tt/1363tt.jpg","",""
"null","<div style=""font-size:60px;""> </div>","null","fixation","html-keyboard-response","265","976402","0.0-6.0-0.37","3008654","co38671 ","norming","","","","","","",""
"null","../img/tt/1125tt.jpg","null","mooney1","image-keyboard-response","266","979409","0.0-6.0-1.37","3008654","co38671 ","norming","","","","","","",""
"4404","","","post_mooney1_questions","survey-likert","267","983816","0.0-6.0-2.37","3008654","co38671 ","norming","","","{""curiosity"":1,""confidence"":0}","[0,1]","../img/tt/1125tt.jpg","",""
"1090.8000000000465","","","recognition","survey-text","268","984913","0.0-6.0-3.37","3008654","co38671 ","norming","","","{""guess"":""""}","","../img/tt/1125tt.jpg","",""
"null","../img/gs/1125gs.jpg","null","reveal","image-keyboard-response","269","986915","0.0-6.0-4.37","3008654","co38671 ","norming","","","","","","",""
"null","../img/tt/1125tt.jpg","null","mooney2","image-keyboard-response","270","988922","0.0-6.0-5.37","3008654","co38671 ","norming","","","","","","",""
"2435.0999999999767","","","post_reveal_questions","survey-likert","271","991360","0.0-6.0-6.37","3008654","co38671 ","norming","","","{""aha"":0}","[0]","../img/tt/1125tt.jpg","",""
"null","<div style=""font-size:60px;""> </div>","null","fixation","html-keyboard-response","272","991577","0.0-6.0-0.38","3008654","co38671 ","norming","","","","","","",""
"null","../img/tt/301tt.jpg","null","mooney1","image-keyboard-response","273","994584","0.0-6.0-1.38","3008654","co38671 ","norming","","","","","","",""
"4414.699999999953","","","post_mooney1_questions","survey-likert","274","999000","0.0-6.0-2.38","3008654","co38671 ","norming","","","{""curiosity"":3,""confidence"":1}","[0,1]","../img/tt/301tt.jpg","",""
"4253.5","","","recognition","survey-text","275","1003258","0.0-6.0-3.38","3008654","co38671 ","norming","","","{""guess"":""cinema""}","","../img/tt/301tt.jpg","",""
"null","../img/gs/301gs.jpg","null","reveal","image-keyboard-response","276","1005279","0.0-6.0-4.38","3008654","co38671 ","norming","","","","","","",""
"null","../img/tt/301tt.jpg","null","mooney2","image-keyboard-response","277","1007265","0.0-6.0-5.38","3008654","co38671 ","norming","","","","","","",""
"2219.3000000000465","","","post_reveal_questions","survey-likert","278","1009488","0.0-6.0-6.38","3008654","co38671 ","norming","","","{""aha"":6}","[0]","../img/tt/301tt.jpg","",""
"null","<div style=""font-size:60px;""> </div>","null","fixation","html-keyboard-response","279","1009700","0.0-6.0-0.39","3008654","co38671 ","norming","","","","","","",""
"null","../img/tt/060tt.jpg","null","mooney1","image-keyboard-response","280","1012724","0.0-6.0-1.39","3008654","co38671 ","norming","","","","","","",""
"7610.29999999993","","","post_mooney1_questions","survey-likert","281","1020336","0.0-6.0-2.39","3008654","co38671 ","norming","","","{""curiosity"":4,""confidence"":3}","[0,1]","../img/tt/060tt.jpg","",""
"3605.8000000000465","","","recognition","survey-text","282","1023946","0.0-6.0-3.39","3008654","co38671 ","norming","","","{""guess"":""brood""}","","../img/tt/060tt.jpg","",""
"null","../img/gs/060gs.jpg","null","reveal","image-keyboard-response","283","1025949","0.0-6.0-4.39","3008654","co38671 ","norming","","","","","","",""
"null","../img/tt/060tt.jpg","null","mooney2","image-keyboard-response","284","1027966","0.0-6.0-5.39","3008654","co38671 ","norming","","","","","","",""
"5246.599999999977","","","post_reveal_questions","survey-likert","285","1033216","0.0-6.0-6.39","3008654","co38671 ","norming","","","{""aha"":4}","[0]","../img/tt/060tt.jpg","",""
"null","<div style=""font-size:60px;""> </div>","null","fixation","html-keyboard-response","286","1033431","0.0-6.0-0.40","3008654","co38671 ","norming","","","","","","",""
"null","../img/tt/436tt.jpg","null","mooney1","image-keyboard-response","287","1036442","0.0-6.0-1.40","3008654","co38671 ","norming","","","","","","",""
"3619.1999999999534","","","post_mooney1_questions","survey-likert","288","1040065","0.0-6.0-2.40","3008654","co38671 ","norming","","","{""curiosity"":5,""confidence"":4}","[0,1]","../img/tt/436tt.jpg","",""
"5309.400000000023","","","recognition","survey-text","289","1045377","0.0-6.0-3.40","3008654","co38671 ","norming","","","{""guess"":""kameleon""}","","../img/tt/436tt.jpg","",""
"null","../img/gs/436gs.jpg","null","reveal","image-keyboard-response","290","1047403","0.0-6.0-4.40","3008654","co38671 ","norming","","","","","","",""
"null","../img/tt/436tt.jpg","null","mooney2","image-keyboard-response","291","1049390","0.0-6.0-5.40","3008654","co38671 ","norming","","","","","","",""
"3054.899999999907","","","post_reveal_questions","survey-likert","292","1052448","0.0-6.0-6.40","3008654","co38671 ","norming","","","{""aha"":1}","[0]","../img/tt/436tt.jpg","",""
"null","<div style=""font-size:60px;""> </div>","null","fixation","html-keyboard-response","293","1052664","0.0-6.0-0.41","3008654","co38671 ","norming","","","","","","",""
"null","../img/tt/1072tt.jpg","null","mooney1","image-keyboard-response","294","1055674","0.0-6.0-1.41","3008654","co38671 ","norming","","","","","","",""
"7651.59999999986","","","post_mooney1_questions","survey-likert","295","1063328","0.0-6.0-2.41","3008654","co38671 ","norming","","","{""curiosity"":5,""confidence"":3}","[0,1]","../img/tt/1072tt.jpg","",""
"5700.5","","","recognition","survey-text","296","1069034","0.0-6.0-3.41","3008654","co38671 ","norming","","","{""guess"":""bankje in park""}","","../img/tt/1072tt.jpg","",""
"null","../img/gs/1072gs.jpg","null","reveal","image-keyboard-response","297","1071040","0.0-6.0-4.41","3008654","co38671 ","norming","","","","","","",""
"null","../img/tt/1072tt.jpg","null","mooney2","image-keyboard-response","298","1073050","0.0-6.0-5.41","3008654","co38671 ","norming","","","","","","",""
"3668","","","post_reveal_questions","survey-likert","299","1076721","0.0-6.0-6.41","3008654","co38671 ","norming","","","{""aha"":6}","[0]","../img/tt/1072tt.jpg","",""
"null","<div style=""font-size:60px;""> </div>","null","fixation","html-keyboard-response","300","1076933","0.0-6.0-0.42","3008654","co38671 ","norming","","","","","","",""
"null","../img/tt/358tt.jpg","null","mooney1","image-keyboard-response","301","1079942","0.0-6.0-1.42","3008654","co38671 ","norming","","","","","","",""
"5846.399999999907","","","post_mooney1_questions","survey-likert","302","1085793","0.0-6.0-2.42","3008654","co38671 ","norming","","","{""curiosity"":1,""confidence"":1}","[0,1]","../img/tt/358tt.jpg","",""
"3285.6999999999534","","","recognition","survey-text","303","1089081","0.0-6.0-3.42","3008654","co38671 ","norming","","","{""guess"":""paard""}","","../img/tt/358tt.jpg","",""
"null","../img/gs/358gs.jpg","null","reveal","image-keyboard-response","304","1091095","0.0-6.0-4.42","3008654","co38671 ","norming","","","","","","",""
"null","../img/tt/358tt.jpg","null","mooney2","image-keyboard-response","305","1093103","0.0-6.0-5.42","3008654","co38671 ","norming","","","","","","",""
"2262.600000000093","","","post_reveal_questions","survey-likert","306","1095368","0.0-6.0-6.42","3008654","co38671 ","norming","","","{""aha"":4}","[0]","../img/tt/358tt.jpg","",""
"null","<div style=""font-size:60px;""> </div>","null","fixation","html-keyboard-response","307","1095584","0.0-6.0-0.43","3008654","co38671 ","norming","","","","","","",""
"null","../img/tt/1175tt.jpg","null","mooney1","image-keyboard-response","308","1098596","0.0-6.0-1.43","3008654","co38671 ","norming","","","","","","",""
"10722.399999999906","","","post_mooney1_questions","survey-likert","309","1109320","0.0-6.0-2.43","3008654","co38671 ","norming","","","{""curiosity"":2,""confidence"":0}","[0,1]","../img/tt/1175tt.jpg","",""
"4668.90000000014","","","recognition","survey-text","310","1113993","0.0-6.0-3.43","3008654","co38671 ","norming","","","{""guess"":""fkamingo's""}","","../img/tt/1175tt.jpg","",""
"null","../img/gs/1175gs.jpg","null","reveal","image-keyboard-response","311","1116009","0.0-6.0-4.43","3008654","co38671 ","norming","","","","","","",""
"null","../img/tt/1175tt.jpg","null","mooney2","image-keyboard-response","312","1117996","0.0-6.0-5.43","3008654","co38671 ","norming","","","","","","",""
"3152.6999999999534","","","post_reveal_questions","survey-likert","313","1121152","0.0-6.0-6.43","3008654","co38671 ","norming","","","{""aha"":1}","[0]","../img/tt/1175tt.jpg","",""
"null","<div style=""font-size:60px;""> </div>","null","fixation","html-keyboard-response","314","1121364","0.0-6.0-0.44","3008654","co38671 ","norming","","","","","","",""
"null","../img/tt/1127tt.jpg","null","mooney1","image-keyboard-response","315","1124383","0.0-6.0-1.44","3008654","co38671 ","norming","","","","","","",""
"4893.09999999986","","","post_mooney1_questions","survey-likert","316","1129280","0.0-6.0-2.44","3008654","co38671 ","norming","","","{""curiosity"":3,""confidence"":2}","[0,1]","../img/tt/1127tt.jpg","",""
"3733.5999999998603","","","recognition","survey-text","317","1133018","0.0-6.0-3.44","3008654","co38671 ","norming","","","{""guess"":""dirigent""}","","../img/tt/1127tt.jpg","",""
"null","../img/gs/1127gs.jpg","null","reveal","image-keyboard-response","318","1135026","0.0-6.0-4.44","3008654","co38671 ","norming","","","","","","",""
"null","../img/tt/1127tt.jpg","null","mooney2","image-keyboard-response","319","1137030","0.0-6.0-5.44","3008654","co38671 ","norming","","","","","","",""
"2366.8000000000465","","","post_reveal_questions","survey-likert","320","1139400","0.0-6.0-6.44","3008654","co38671 ","norming","","","{""aha"":5}","[0]","../img/tt/1127tt.jpg","",""
"null","<div style=""font-size:60px;""> </div>","null","fixation","html-keyboard-response","321","1139603","0.0-6.0-0.45","3008654","co38671 ","norming","","","","","","",""
"null","../img/tt/549tt.jpg","null","mooney1","image-keyboard-response","322","1142620","0.0-6.0-1.45","3008654","co38671 ","norming","","","","","","",""
"3552.3000000000465","","","post_mooney1_questions","survey-likert","323","1146176","0.0-6.0-2.45","3008654","co38671 ","norming","","","{""curiosity"":1,""confidence"":0}","[0,1]","../img/tt/549tt.jpg","",""
"1188.5","","","recognition","survey-text","324","1147369","0.0-6.0-3.45","3008654","co38671 ","norming","","","{""guess"":""""}","","../img/tt/549tt.jpg","",""
"null","../img/gs/549gs.jpg","null","reveal","image-keyboard-response","325","1149381","0.0-6.0-4.45","3008654","co38671 ","norming","","","","","","",""
"null","../img/tt/549tt.jpg","null","mooney2","image-keyboard-response","326","1151378","0.0-6.0-5.45","3008654","co38671 ","norming","","","","","","",""
"2659.3000000000465","","","post_reveal_questions","survey-likert","327","1154040","0.0-6.0-6.45","3008654","co38671 ","norming","","","{""aha"":1}","[0]","../img/tt/549tt.jpg","",""
"null","<div style=""font-size:60px;""> </div>","null","fixation","html-keyboard-response","328","1154261","0.0-6.0-0.46","3008654","co38671 ","norming","","","","","","",""
"null","../img/tt/135tt.jpg","null","mooney1","image-keyboard-response","329","1157270","0.0-6.0-1.46","3008654","co38671 ","norming","","","","","","",""
"9622.09999999986","","","post_mooney1_questions","survey-likert","330","1166897","0.0-6.0-2.46","3008654","co38671 ","norming","","","{""curiosity"":4,""confidence"":2}","[0,1]","../img/tt/135tt.jpg","",""
"3428.3000000000465","","","recognition","survey-text","331","1170330","0.0-6.0-3.46","3008654","co38671 ","norming","","","{""guess"":""wcbril""}","","../img/tt/135tt.jpg","",""
"null","../img/gs/135gs.jpg","null","reveal","image-keyboard-response","332","1172332","0.0-6.0-4.46","3008654","co38671 ","norming","","","","","","",""
"null","../img/tt/135tt.jpg","null","mooney2","image-keyboard-response","333","1174355","0.0-6.0-5.46","3008654","co38671 ","norming","","","","","","",""
"2106.3000000000465","","","post_reveal_questions","survey-likert","334","1176463","0.0-6.0-6.46","3008654","co38671 ","norming","","","{""aha"":4}","[0]","../img/tt/135tt.jpg","",""
"null","<div style=""font-size:60px;""> </div>","null","fixation","html-keyboard-response","335","1176678","0.0-6.0-0.47","3008654","co38671 ","norming","","","","","","",""
"null","../img/tt/124tt.jpg","null","mooney1","image-keyboard-response","336","1179686","0.0-6.0-1.47","3008654","co38671 ","norming","","","","","","",""
"4006.6999999999534","","","post_mooney1_questions","survey-likert","337","1183696","0.0-6.0-2.47","3008654","co38671 ","norming","","","{""curiosity"":6,""confidence"":6}","[0,1]","../img/tt/124tt.jpg","",""
"3292.6999999999534","","","recognition","survey-text","338","1186994","0.0-6.0-3.47","3008654","co38671 ","norming","","","{""guess"":""gorilla""}","","../img/tt/124tt.jpg","",""
"null","../img/gs/124gs.jpg","null","reveal","image-keyboard-response","339","1189012","0.0-6.0-4.47","3008654","co38671 ","norming","","","","","","",""
"null","../img/tt/124tt.jpg","null","mooney2","image-keyboard-response","340","1190999","0.0-6.0-5.47","3008654","co38671 ","norming","","","","","","",""
"3453.6999999999534","","","post_reveal_questions","survey-likert","341","1194456","0.0-6.0-6.47","3008654","co38671 ","norming","","","{""aha"":2}","[0]","../img/tt/124tt.jpg","",""
"null","<div style=""font-size:60px;""> </div>","null","fixation","html-keyboard-response","342","1194678","0.0-6.0-0.48","3008654","co38671 ","norming","","","","","","",""
"null","../img/tt/1186tt.jpg","null","mooney1","image-keyboard-response","343","1197704","0.0-6.0-1.48","3008654","co38671 ","norming","","","","","","",""
"5054","","","post_mooney1_questions","survey-likert","344","1202761","0.0-6.0-2.48","3008654","co38671 ","norming","","","{""curiosity"":3,""confidence"":1}","[0,1]","../img/tt/1186tt.jpg","",""
"4132.199999999953","","","recognition","survey-text","345","1206897","0.0-6.0-3.48","3008654","co38671 ","norming","","","{""guess"":""schaatser""}","","../img/tt/1186tt.jpg","",""
"null","../img/gs/1186gs.jpg","null","reveal","image-keyboard-response","346","1208918","0.0-6.0-4.48","3008654","co38671 ","norming","","","","","","",""
"null","../img/tt/1186tt.jpg","null","mooney2","image-keyboard-response","347","1210898","0.0-6.0-5.48","3008654","co38671 ","norming","","","","","","",""
"3004.2000000001862","","","post_reveal_questions","survey-likert","348","1213903","0.0-6.0-6.48","3008654","co38671 ","norming","","","{""aha"":4}","[0]","../img/tt/1186tt.jpg","",""
"null","<div style=""font-size:60px;""> </div>","null","fixation","html-keyboard-response","349","1214124","0.0-6.0-0.49","3008654","co38671 ","norming","","","","","","",""
"null","../img/tt/1272tt.jpg","null","mooney1","image-keyboard-response","350","1217126","0.0-6.0-1.49","3008654","co38671 ","norming","","","","","","",""
"3152","","","post_mooney1_questions","survey-likert","351","1220280","0.0-6.0-2.49","3008654","co38671 ","norming","","","{""curiosity"":0,""confidence"":0}","[0,1]","../img/tt/1272tt.jpg","",""
"716","","","recognition","survey-text","352","1221001","0.0-6.0-3.49","3008654","co38671 ","norming","","","{""guess"":""""}","","../img/tt/1272tt.jpg","",""
"null","../img/gs/1272gs.jpg","null","reveal","image-keyboard-response","353","1223024","0.0-6.0-4.49","3008654","co38671 ","norming","","","","","","",""
"null","../img/tt/1272tt.jpg","null","mooney2","image-keyboard-response","354","1225028","0.0-6.0-5.49","3008654","co38671 ","norming","","","","","","",""
"2858.0999999998603","","","post_reveal_questions","survey-likert","355","1227888","0.0-6.0-6.49","3008654","co38671 ","norming","","","{""aha"":4}","[0]","../img/tt/1272tt.jpg","",""
"null","<div style=""font-size:60px;""> </div>","null","fixation","html-keyboard-response","356","1228101","0.0-6.0-0.50","3008654","co38671 ","norming","","","","","","",""
"null","../img/tt/1084tt.jpg","null","mooney1","image-keyboard-response","357","1231119","0.0-6.0-1.50","3008654","co38671 ","norming","","","","","","",""
"5500.5","","","post_mooney1_questions","survey-likert","358","1236624","0.0-6.0-2.50","3008654","co38671 ","norming","","","{""curiosity"":2,""confidence"":1}","[0,1]","../img/tt/1084tt.jpg","",""
"3150","","","recognition","survey-text","359","1239778","0.0-6.0-3.50","3008654","co38671 ","norming","","","{""guess"":""ananas""}","","../img/tt/1084tt.jpg","",""
"null","../img/gs/1084gs.jpg","null","reveal","image-keyboard-response","360","1241800","0.0-6.0-4.50","3008654","co38671 ","norming","","","","","","",""
"null","../img/tt/1084tt.jpg","null","mooney2","image-keyboard-response","361","1243786","0.0-6.0-5.50","3008654","co38671 ","norming","","","","","","",""
"2546.600000000093","","","post_reveal_questions","survey-likert","362","1246336","0.0-6.0-6.50","3008654","co38671 ","norming","","","{""aha"":3}","[0]","../img/tt/1084tt.jpg","",""
"null","<div style=""font-size:60px;""> </div>","null","fixation","html-keyboard-response","363","1246553","0.0-6.0-0.51","3008654","co38671 ","norming","","","","","","",""
"null","../img/tt/306tt.jpg","null","mooney1","image-keyboard-response","364","1249571","0.0-6.0-1.51","3008654","co38671 ","norming","","","","","","",""
"5850","","","post_mooney1_questions","survey-likert","365","1255424","0.0-6.0-2.51","3008654","co38671 ","norming","","","{""curiosity"":1,""confidence"":1}","[0,1]","../img/tt/306tt.jpg","",""
"2829.5999999998603","","","recognition","survey-text","366","1258257","0.0-6.0-3.51","3008654","co38671 ","norming","","","{""guess"":""hand""}","","../img/tt/306tt.jpg","",""
"null","../img/gs/306gs.jpg","null","reveal","image-keyboard-response","367","1260266","0.0-6.0-4.51","3008654","co38671 ","norming","","","","","","",""
"null","../img/tt/306tt.jpg","null","mooney2","image-keyboard-response","368","1262283","0.0-6.0-5.51","3008654","co38671 ","norming","","","","","","",""
"6417.299999999814","","","post_reveal_questions","survey-likert","369","1268704","0.0-6.0-6.51","3008654","co38671 ","norming","","","{""aha"":3}","[0]","../img/tt/306tt.jpg","",""
"null","<div style=""font-size:60px;""> </div>","null","fixation","html-keyboard-response","370","1268929","0.0-6.0-0.52","3008654","co38671 ","norming","","","","","","",""
"null","../img/tt/477tt.jpg","null","mooney1","image-keyboard-response","371","1271939","0.0-6.0-1.52","3008654","co38671 ","norming","","","","","","",""
"9217.100000000093","","","post_mooney1_questions","survey-likert","372","1281160","0.0-6.0-2.52","3008654","co38671 ","norming","","","{""curiosity"":3,""confidence"":2}","[0,1]","../img/tt/477tt.jpg","",""
"2333.5","","","recognition","survey-text","373","1283497","0.0-6.0-3.52","3008654","co38671 ","norming","","","{""guess"":""kat""}","","../img/tt/477tt.jpg","",""
"null","../img/gs/477gs.jpg","null","reveal","image-keyboard-response","374","1285509","0.0-6.0-4.52","3008654","co38671 ","norming","","","","","","",""
"null","../img/tt/477tt.jpg","null","mooney2","image-keyboard-response","375","1287511","0.0-6.0-5.52","3008654","co38671 ","norming","","","","","","",""
"4358.199999999953","","","post_reveal_questions","survey-likert","376","1291872","0.0-6.0-6.52","3008654","co38671 ","norming","","","{""aha"":5}","[0]","../img/tt/477tt.jpg","",""
"null","<div style=""font-size:60px;""> </div>","null","fixation","html-keyboard-response","377","1292088","0.0-6.0-0.53","3008654","co38671 ","norming","","","","","","",""
"null","../img/tt/1024tt.jpg","null","mooney1","image-keyboard-response","378","1295097","0.0-6.0-1.53","3008654","co38671 ","norming","","","","","","",""
"6548.09999999986","","","post_mooney1_questions","survey-likert","379","1301648","0.0-6.0-2.53","3008654","co38671 ","norming","","","{""curiosity"":1,""confidence"":0}","[0,1]","../img/tt/1024tt.jpg","",""
"2308.1999999999534","","","recognition","survey-text","380","1303961","0.0-6.0-3.53","3008654","co38671 ","norming","","","{""guess"":""""}","","../img/tt/1024tt.jpg","",""
"null","../img/gs/1024gs.jpg","null","reveal","image-keyboard-response","381","1305969","0.0-6.0-4.53","3008654","co38671 ","norming","","","","","","",""
"null","../img/tt/1024tt.jpg","null","mooney2","image-keyboard-response","382","1307977","0.0-6.0-5.53","3008654","co38671 ","norming","","","","","","",""
"2403","","","post_reveal_questions","survey-likert","383","1310383","0.0-6.0-6.53","3008654","co38671 ","norming","","","{""aha"":1}","[0]","../img/tt/1024tt.jpg","",""
"null","<div style=""font-size:60px;""> </div>","null","fixation","html-keyboard-response","384","1310599","0.0-6.0-0.54","3008654","co38671 ","norming","","","","","","",""
"null","../img/tt/007tt.jpg","null","mooney1","image-keyboard-response","385","1313607","0.0-6.0-1.54","3008654","co38671 ","norming","","","","","","",""
"4373.600000000093","","","post_mooney1_questions","survey-likert","386","1317984","0.0-6.0-2.54","3008654","co38671 ","norming","","","{""curiosity"":3,""confidence"":2}","[0,1]","../img/tt/007tt.jpg","",""
"5852.59999999986","","","recognition","survey-text","387","1323841","0.0-6.0-3.54","3008654","co38671 ","norming","","","{""guess"":""kikker""}","","../img/tt/007tt.jpg","",""
"null","../img/gs/007gs.jpg","null","reveal","image-keyboard-response","388","1325868","0.0-6.0-4.54","3008654","co38671 ","norming","","","","","","",""
"null","../img/tt/007tt.jpg","null","mooney2","image-keyboard-response","389","1327849","0.0-6.0-5.54","3008654","co38671 ","norming","","","","","","",""
"2090.899999999907","","","post_reveal_questions","survey-likert","390","1329943","0.0-6.0-6.54","3008654","co38671 ","norming","","","{""aha"":1}","[0]","../img/tt/007tt.jpg","",""
"null","<div style=""font-size:60px;""> </div>","null","fixation","html-keyboard-response","391","1330154","0.0-6.0-0.55","3008654","co38671 ","norming","","","","","","",""
"null","../img/tt/1101tt.jpg","null","mooney1","image-keyboard-response","392","1333165","0.0-6.0-1.55","3008654","co38671 ","norming","","","","","","",""
"5376.600000000093","","","post_mooney1_questions","survey-likert","393","1338543","0.0-6.0-2.55","3008654","co38671 ","norming","","","{""curiosity"":4,""confidence"":3}","[0,1]","../img/tt/1101tt.jpg","",""
"4783","","","recognition","survey-text","394","1343329","0.0-6.0-3.55","3008654","co38671 ","norming","","","{""guess"":""voetballer""}","","../img/tt/1101tt.jpg","",""
"null","../img/gs/1101gs.jpg","null","reveal","image-keyboard-response","395","1345352","0.0-6.0-4.55","3008654","co38671 ","norming","","","","","","",""
"null","../img/tt/1101tt.jpg","null","mooney2","image-keyboard-response","396","1347339","0.0-6.0-5.55","3008654","co38671 ","norming","","","","","","",""
"2586.6999999999534","","","post_reveal_questions","survey-likert","397","1349929","0.0-6.0-6.55","3008654","co38671 ","norming","","","{""aha"":1}","[0]","../img/tt/1101tt.jpg","",""
"null","<div style=""font-size:60px;""> </div>","null","fixation","html-keyboard-response","398","1350141","0.0-6.0-0.56","3008654","co38671 ","norming","","","","","","",""
"null","../img/tt/1309tt.jpg","null","mooney1","image-keyboard-response","399","1353165","0.0-6.0-1.56","3008654","co38671 ","norming","","","","","","",""
"7567.40000000014","","","post_mooney1_questions","survey-likert","400","1360736","0.0-6.0-2.56","3008654","co38671 ","norming","","","{""curiosity"":3,""confidence"":3}","[0,1]","../img/tt/1309tt.jpg","",""
"5157.199999999953","","","recognition","survey-text","401","1365897","0.0-6.0-3.56","3008654","co38671 ","norming","","","{""guess"":""auto in bos""}","","../img/tt/1309tt.jpg","",""
"null","../img/gs/1309gs.jpg","null","reveal","image-keyboard-response","402","1367922","0.0-6.0-4.56","3008654","co38671 ","norming","","","","","","",""
"null","../img/tt/1309tt.jpg","null","mooney2","image-keyboard-response","403","1369910","0.0-6.0-5.56","3008654","co38671 ","norming","","","","","","",""
"2110.5","","","post_reveal_questions","survey-likert","404","1372023","0.0-6.0-6.56","3008654","co38671 ","norming","","","{""aha"":1}","[0]","../img/tt/1309tt.jpg","",""
"null","<div style=""font-size:60px;""> </div>","null","fixation","html-keyboard-response","405","1372248","0.0-6.0-0.57","3008654","co38671 ","norming","","","","","","",""
"null","../img/tt/1061tt.jpg","null","mooney1","image-keyboard-response","406","1375255","0.0-6.0-1.57","3008654","co38671 ","norming","","","","","","",""
"3837.8000000000465","","","post_mooney1_questions","survey-likert","407","1379096","0.0-6.0-2.57","3008654","co38671 ","norming","","","{""curiosity"":3,""confidence"":1}","[0,1]","../img/tt/1061tt.jpg","",""
"2387.5","","","recognition","survey-text","408","1381490","0.0-6.0-3.57","3008654","co38671 ","norming","","","{""guess"":""bos""}","","../img/tt/1061tt.jpg","",""
"null","../img/gs/1061gs.jpg","null","reveal","image-keyboard-response","409","1383509","0.0-6.0-4.57","3008654","co38671 ","norming","","","","","","",""
"null","../img/tt/1061tt.jpg","null","mooney2","image-keyboard-response","410","1385511","0.0-6.0-5.57","3008654","co38671 ","norming","","","","","","",""
"2697.9000000001397","","","post_reveal_questions","survey-likert","411","1388215","0.0-6.0-6.57","3008654","co38671 ","norming","","","{""aha"":2}","[0]","../img/tt/1061tt.jpg","",""
"null","<div style=""font-size:60px;""> </div>","null","fixation","html-keyboard-response","412","1388434","0.0-6.0-0.58","3008654","co38671 ","norming","","","","","","",""
"null","../img/tt/1181tt.jpg","null","mooney1","image-keyboard-response","413","1391446","0.0-6.0-1.58","3008654","co38671 ","norming","","","","","","",""
"4550.40000000014","","","post_mooney1_questions","survey-likert","414","1396000","0.0-6.0-2.58","3008654","co38671 ","norming","","","{""curiosity"":1,""confidence"":2}","[0,1]","../img/tt/1181tt.jpg","",""
"3749.899999999907","","","recognition","survey-text","415","1399753","0.0-6.0-3.58","3008654","co38671 ","norming","","","{""guess"":""vrienden""}","","../img/tt/1181tt.jpg","",""
"null","../img/gs/1181gs.jpg","null","reveal","image-keyboard-response","416","1401764","0.0-6.0-4.58","3008654","co38671 ","norming","","","","","","",""
"null","../img/tt/1181tt.jpg","null","mooney2","image-keyboard-response","417","1403762","0.0-6.0-5.58","3008654","co38671 ","norming","","","","","","",""
"6458.199999999953","","","post_reveal_questions","survey-likert","418","1410224","0.0-6.0-6.58","3008654","co38671 ","norming","","","{""aha"":1}","[0]","../img/tt/1181tt.jpg","",""
"null","<div style=""font-size:60px;""> </div>","null","fixation","html-keyboard-response","419","1410427","0.0-6.0-0.59","3008654","co38671 ","norming","","","","","","",""
"null","../img/tt/085tt.jpg","null","mooney1","image-keyboard-response","420","1413453","0.0-6.0-1.59","3008654","co38671 ","norming","","","","","","",""
"8119.399999999907","","","post_mooney1_questions","survey-likert","421","1421575","0.0-6.0-2.59","3008654","co38671 ","norming","","","{""curiosity"":1,""confidence"":1}","[0,1]","../img/tt/085tt.jpg","",""
"4229.800000000047","","","recognition","survey-text","422","1425809","0.0-6.0-3.59","3008654","co38671 ","norming","","","{""guess"":""giraf""}","","../img/tt/085tt.jpg","",""
"null","../img/gs/085gs.jpg","null","reveal","image-keyboard-response","423","1427834","0.0-6.0-4.59","3008654","co38671 ","norming","","","","","","",""
"null","../img/tt/085tt.jpg","null","mooney2","image-keyboard-response","424","1429816","0.0-6.0-5.59","3008654","co38671 ","norming","","","","","","",""
"3539.9000000001397","","","post_reveal_questions","survey-likert","425","1433360","0.0-6.0-6.59","3008654","co38671 ","norming","","","{""aha"":1}","[0]","../img/tt/085tt.jpg","",""
"null","<div style=""font-size:60px;""> </div>","null","fixation","html-keyboard-response","426","1433577","0.0-6.0-0.60","3008654","co38671 ","norming","","","","","","",""
"null","../img/tt/1260tt.jpg","null","mooney1","image-keyboard-response","427","1436595","0.0-6.0-1.60","3008654","co38671 ","norming","","","","","","",""
"7087.699999999953","","","post_mooney1_questions","survey-likert","428","1443687","0.0-6.0-2.60","3008654","co38671 ","norming","","","{""curiosity"":0,""confidence"":0}","[0,1]","../img/tt/1260tt.jpg","",""
"916.1999999999534","","","recognition","survey-text","429","1444608","0.0-6.0-3.60","3008654","co38671 ","norming","","","{""guess"":""""}","","../img/tt/1260tt.jpg","",""
"null","../img/gs/1260gs.jpg","null","reveal","image-keyboard-response","430","1446612","0.0-6.0-4.60","3008654","co38671 ","norming","","","","","","",""
"null","../img/tt/1260tt.jpg","null","mooney2","image-keyboard-response","431","1448608","0.0-6.0-5.60","3008654","co38671 ","norming","","","","","","",""
"2500.0999999998603","","","post_reveal_questions","survey-likert","432","1451111","0.0-6.0-6.60","3008654","co38671 ","norming","","","{""aha"":0}","[0]","../img/tt/1260tt.jpg","",""
"null","<div style=""font-size:60px;""> </div>","null","fixation","html-keyboard-response","433","1451325","0.0-6.0-0.61","3008654","co38671 ","norming","","","","","","",""
"null","../img/tt/1362tt.jpg","null","mooney1","image-keyboard-response","434","1454330","0.0-6.0-1.61","3008654","co38671 ","norming","","","","","","",""
"5266","","","post_mooney1_questions","survey-likert","435","1459600","0.0-6.0-2.61","3008654","co38671 ","norming","","","{""curiosity"":2,""confidence"":1}","[0,1]","../img/tt/1362tt.jpg","",""
"5748.100000000093","","","recognition","survey-text","436","1465353","0.0-6.0-3.61","3008654","co38671 ","norming","","","{""guess"":""ontbijttafel""}","","../img/tt/1362tt.jpg","",""
"null","../img/gs/1362gs.jpg","null","reveal","image-keyboard-response","437","1467371","0.0-6.0-4.61","3008654","co38671 ","norming","","","","","","",""
"null","../img/tt/1362tt.jpg","null","mooney2","image-keyboard-response","438","1469376","0.0-6.0-5.61","3008654","co38671 ","norming","","","","","","",""
"2252.1999999999534","","","post_reveal_questions","survey-likert","439","1471631","0.0-6.0-6.61","3008654","co38671 ","norming","","","{""aha"":3}","[0]","../img/tt/1362tt.jpg","",""
"null","<div style=""font-size:60px;""> </div>","null","fixation","html-keyboard-response","440","1471837","0.0-6.0-0.62","3008654","co38671 ","norming","","","","","","",""
"null","../img/tt/084tt.jpg","null","mooney1","image-keyboard-response","441","1474858","0.0-6.0-1.62","3008654","co38671 ","norming","","","","","","",""
"6298.800000000047","","","post_mooney1_questions","survey-likert","442","1481160","0.0-6.0-2.62","3008654","co38671 ","norming","","","{""curiosity"":2,""confidence"":5}","[0,1]","../img/tt/084tt.jpg","",""
"2053.899999999907","","","recognition","survey-text","443","1483217","0.0-6.0-3.62","3008654","co38671 ","norming","","","{""guess"":""eend""}","","../img/tt/084tt.jpg","",""
"null","../img/gs/084gs.jpg","null","reveal","image-keyboard-response","444","1485241","0.0-6.0-4.62","3008654","co38671 ","norming","","","","","","",""
"null","../img/tt/084tt.jpg","null","mooney2","image-keyboard-response","445","1487229","0.0-6.0-5.62","3008654","co38671 ","norming","","","","","","",""
"1527.1999999999534","","","post_reveal_questions","survey-likert","446","1488759","0.0-6.0-6.62","3008654","co38671 ","norming","","","{""aha"":1}","[0]","../img/tt/084tt.jpg","",""
"null","<div style=""font-size:60px;""> </div>","null","fixation","html-keyboard-response","447","1488965","0.0-6.0-0.63","3008654","co38671 ","norming","","","","","","",""
"null","../img/tt/1217tt.jpg","null","mooney1","image-keyboard-response","448","1491988","0.0-6.0-1.63","3008654","co38671 ","norming","","","","","","",""
"7840.5","","","post_mooney1_questions","survey-likert","449","1499832","0.0-6.0-2.63","3008654","co38671 ","norming","","","{""curiosity"":0,""confidence"":0}","[0,1]","../img/tt/1217tt.jpg","",""
"843.0999999998603","","","recognition","survey-text","450","1500680","0.0-6.0-3.63","3008654","co38671 ","norming","","","{""guess"":""""}","","../img/tt/1217tt.jpg","",""
"null","../img/gs/1217gs.jpg","null","reveal","image-keyboard-response","451","1502691","0.0-6.0-4.63","3008654","co38671 ","norming","","","","","","",""
"null","../img/tt/1217tt.jpg","null","mooney2","image-keyboard-response","452","1504693","0.0-6.0-5.63","3008654","co38671 ","norming","","","","","","",""
"2374.5","","","post_reveal_questions","survey-likert","453","1507071","0.0-6.0-6.63","3008654","co38671 ","norming","","","{""aha"":0}","[0]","../img/tt/1217tt.jpg","",""
"null","<div style=""font-size:60px;""> </div>","null","fixation","html-keyboard-response","454","1507279","0.0-6.0-0.64","3008654","co38671 ","norming","","","","","","",""
"null","../img/tt/315tt.jpg","null","mooney1","image-keyboard-response","455","1510298","0.0-6.0-1.64","3008654","co38671 ","norming","","","","","","",""
"4473.300000000047","","","post_mooney1_questions","survey-likert","456","1514776","0.0-6.0-2.64","3008654","co38671 ","norming","","","{""curiosity"":5,""confidence"":6}","[0,1]","../img/tt/315tt.jpg","",""
"7237","","","recognition","survey-text","457","1522017","0.0-6.0-3.64","3008654","co38671 ","norming","","","{""guess"":""vogel""}","","../img/tt/315tt.jpg","",""
"null","../img/gs/315gs.jpg","null","reveal","image-keyboard-response","458","1524034","0.0-6.0-4.64","3008654","co38671 ","norming","","","","","","",""
"null","../img/tt/315tt.jpg","null","mooney2","image-keyboard-response","459","1526041","0.0-6.0-5.64","3008654","co38671 ","norming","","","","","","",""
"3466.899999999907","","","post_reveal_questions","survey-likert","460","1529512","0.0-6.0-6.64","3008654","co38671 ","norming","","","{""aha"":4}","[0]","../img/tt/315tt.jpg","",""
"null","<div style=""font-size:60px;""> </div>","null","fixation","html-keyboard-response","461","1529720","0.0-6.0-0.65","3008654","co38671 ","norming","","","","","","",""
"null","../img/tt/318tt.jpg","null","mooney1","image-keyboard-response","462","1532729","0.0-6.0-1.65","3008654","co38671 ","norming","","","","","","",""
"5954.899999999907","","","post_mooney1_questions","survey-likert","463","1538688","0.0-6.0-2.65","3008654","co38671 ","norming","","","{""curiosity"":4,""confidence"":4}","[0,1]","../img/tt/318tt.jpg","",""
"4701.40000000014","","","recognition","survey-text","464","1543393","0.0-6.0-3.65","3008654","co38671 ","norming","","","{""guess"":""autostuur""}","","../img/tt/318tt.jpg","",""
"null","../img/gs/318gs.jpg","null","reveal","image-keyboard-response","465","1545392","0.0-6.0-4.65","3008654","co38671 ","norming","","","","","","",""
"null","../img/tt/318tt.jpg","null","mooney2","image-keyboard-response","466","1547412","0.0-6.0-5.65","3008654","co38671 ","norming","","","","","","",""
"1855.1000000000931","","","post_reveal_questions","survey-likert","467","1549271","0.0-6.0-6.65","3008654","co38671 ","norming","","","{""aha"":0}","[0]","../img/tt/318tt.jpg","",""
"null","<div style=""font-size:60px;""> </div>","null","fixation","html-keyboard-response","468","1549488","0.0-6.0-0.66","3008654","co38671 ","norming","","","","","","",""
"null","../img/tt/440tt.jpg","null","mooney1","image-keyboard-response","469","1552495","0.0-6.0-1.66","3008654","co38671 ","norming","","","","","","",""
"4556.59999999986","","","post_mooney1_questions","survey-likert","470","1557055","0.0-6.0-2.66","3008654","co38671 ","norming","","","{""curiosity"":4,""confidence"":4}","[0,1]","../img/tt/440tt.jpg","",""
"2428.8000000000465","","","recognition","survey-text","471","1559489","0.0-6.0-3.66","3008654","co38671 ","norming","","","{""guess"":""ppard""}","","../img/tt/440tt.jpg","",""
"null","../img/gs/440gs.jpg","null","reveal","image-keyboard-response","472","1561502","0.0-6.0-4.66","3008654","co38671 ","norming","","","","","","",""
"null","../img/tt/440tt.jpg","null","mooney2","image-keyboard-response","473","1563504","0.0-6.0-5.66","3008654","co38671 ","norming","","","","","","",""
"2587.8000000000465","","","post_reveal_questions","survey-likert","474","1566095","0.0-6.0-6.66","3008654","co38671 ","norming","","","{""aha"":0}","[0]","../img/tt/440tt.jpg","",""
"null","<div style=""font-size:60px;""> </div>","null","fixation","html-keyboard-response","475","1566308","0.0-6.0-0.67","3008654","co38671 ","norming","","","","","","",""
"null","../img/tt/1142tt.jpg","null","mooney1","image-keyboard-response","476","1569333","0.0-6.0-1.67","3008654","co38671 ","norming","","","","","","",""
"5286.59999999986","","","post_mooney1_questions","survey-likert","477","1574624","0.0-6.0-2.67","3008654","co38671 ","norming","","","{""curiosity"":4,""confidence"":5}","[0,1]","../img/tt/1142tt.jpg","",""
"8301.600000000093","","","recognition","survey-text","478","1582930","0.0-6.0-3.67","3008654","co38671 ","norming","","","{""guess"":""hoogspringster""}","","../img/tt/1142tt.jpg","",""
"null","../img/gs/1142gs.jpg","null","reveal","image-keyboard-response","479","1584942","0.0-6.0-4.67","3008654","co38671 ","norming","","","","","","",""
"null","../img/tt/1142tt.jpg","null","mooney2","image-keyboard-response","480","1586932","0.0-6.0-5.67","3008654","co38671 ","norming","","","","","","",""
"2319.399999999907","","","post_reveal_questions","survey-likert","481","1589255","0.0-6.0-6.67","3008654","co38671 ","norming","","","{""aha"":0}","[0]","../img/tt/1142tt.jpg","",""
"null","<div style=""font-size:60px;""> </div>","null","fixation","html-keyboard-response","482","1589463","0.0-6.0-0.68","3008654","co38671 ","norming","","","","","","",""
"null","../img/tt/1239tt.jpg","null","mooney1","image-keyboard-response","483","1592484","0.0-6.0-1.68","3008654","co38671 ","norming","","","","","","",""
"4743.600000000093","","","post_mooney1_questions","survey-likert","484","1597231","0.0-6.0-2.68","3008654","co38671 ","norming","","","{""curiosity"":3,""confidence"":4}","[0,1]","../img/tt/1239tt.jpg","",""
"3325.0999999998603","","","recognition","survey-text","485","1600560","0.0-6.0-3.68","3008654","co38671 ","norming","","","{""guess"":""hond""}","","../img/tt/1239tt.jpg","",""
"null","../img/gs/1239gs.jpg","null","reveal","image-keyboard-response","486","1602579","0.0-6.0-4.68","3008654","co38671 ","norming","","","","","","",""
"null","../img/tt/1239tt.jpg","null","mooney2","image-keyboard-response","487","1604579","0.0-6.0-5.68","3008654","co38671 ","norming","","","","","","",""
"1938.8000000000465","","","post_reveal_questions","survey-likert","488","1606519","0.0-6.0-6.68","3008654","co38671 ","norming","","","{""aha"":0}","[0]","../img/tt/1239tt.jpg","",""
"null","<div style=""font-size:60px;""> </div>","null","fixation","html-keyboard-response","489","1606740","0.0-6.0-0.69","3008654","co38671 ","norming","","","","","","",""
"null","../img/tt/121tt.jpg","null","mooney1","image-keyboard-response","490","1609764","0.0-6.0-1.69","3008654","co38671 ","norming","","","","","","",""
"5007.300000000047","","","post_mooney1_questions","survey-likert","491","1614777","0.0-6.0-2.69","3008654","co38671 ","norming","","","{""curiosity"":2,""confidence"":3}","[0,1]","../img/tt/121tt.jpg","",""
"4083.899999999907","","","recognition","survey-text","492","1618865","0.0-6.0-3.69","3008654","co38671 ","norming","","","{""guess"":""kangoeroe""}","","../img/tt/121tt.jpg","",""
"null","../img/gs/121gs.jpg","null","reveal","image-keyboard-response","493","1620891","0.0-6.0-4.69","3008654","co38671 ","norming","","","","","","",""
"null","../img/tt/121tt.jpg","null","mooney2","image-keyboard-response","494","1622877","0.0-6.0-5.69","3008654","co38671 ","norming","","","","","","",""
"2638","","","post_reveal_questions","survey-likert","495","1625519","0.0-6.0-6.69","3008654","co38671 ","norming","","","{""aha"":0}","[0]","../img/tt/121tt.jpg","",""
"null","<div style=""font-size:60px;""> </div>","null","fixation","html-keyboard-response","496","1625734","0.0-6.0-0.70","3008654","co38671 ","norming","","","","","","",""
"null","../img/tt/1128tt.jpg","null","mooney1","image-keyboard-response","497","1628756","0.0-6.0-1.70","3008654","co38671 ","norming","","","","","","",""
"5614.899999999907","","","post_mooney1_questions","survey-likert","498","1634375","0.0-6.0-2.70","3008654","co38671 ","norming","","","{""curiosity"":1,""confidence"":0}","[0,1]","../img/tt/1128tt.jpg","",""
"812","","","recognition","survey-text","499","1635191","0.0-6.0-3.70","3008654","co38671 ","norming","","","{""guess"":""""}","","../img/tt/1128tt.jpg","",""
"null","../img/gs/1128gs.jpg","null","reveal","image-keyboard-response","500","1637198","0.0-6.0-4.70","3008654","co38671 ","norming","","","","","","",""
"null","../img/tt/1128tt.jpg","null","mooney2","image-keyboard-response","501","1639196","0.0-6.0-5.70","3008654","co38671 ","norming","","","","","","",""
"9287.800000000046","","","post_reveal_questions","survey-likert","502","1648487","0.0-6.0-6.70","3008654","co38671 ","norming","","","{""aha"":2}","[0]","../img/tt/1128tt.jpg","",""
"null","<div style=""font-size:60px;""> </div>","null","fixation","html-keyboard-response","503","1648705","0.0-6.0-0.71","3008654","co38671 ","norming","","","","","","",""
"null","../img/tt/497tt.jpg","null","mooney1","image-keyboard-response","504","1651730","0.0-6.0-1.71","3008654","co38671 ","norming","","","","","","",""
"6049.399999999907","","","post_mooney1_questions","survey-likert","505","1657783","0.0-6.0-2.71","3008654","co38671 ","norming","","","{""curiosity"":3,""confidence"":2}","[0,1]","../img/tt/497tt.jpg","",""
"4781.09999999986","","","recognition","survey-text","506","1662568","0.0-6.0-3.71","3008654","co38671 ","norming","","","{""guess"":""rad""}","","../img/tt/497tt.jpg","",""
"null","../img/gs/497gs.jpg","null","reveal","image-keyboard-response","507","1664575","0.0-6.0-4.71","3008654","co38671 ","norming","","","","","","",""
"null","../img/tt/497tt.jpg","null","mooney2","image-keyboard-response","508","1666569","0.0-6.0-5.71","3008654","co38671 ","norming","","","","","","",""
"1939.6999999999534","","","post_reveal_questions","survey-likert","509","1668512","0.0-6.0-6.71","3008654","co38671 ","norming","","","{""aha"":2}","[0]","../img/tt/497tt.jpg","",""
"null","<div style=""font-size:60px;""> </div>","null","fixation","html-keyboard-response","510","1668721","0.0-6.0-0.72","3008654","co38671 ","norming","","","","","","",""
"null","../img/tt/406tt.jpg","null","mooney1","image-keyboard-response","511","1671725","0.0-6.0-1.72","3008654","co38671 ","norming","","","","","","",""
"5462.600000000093","","","post_mooney1_questions","survey-likert","512","1677191","0.0-6.0-2.72","3008654","co38671 ","norming","","","{""curiosity"":1,""confidence"":0}","[0,1]","../img/tt/406tt.jpg","",""
"1436.1000000000931","","","recognition","survey-text","513","1678632","0.0-6.0-3.72","3008654","co38671 ","norming","","","{""guess"":""""}","","../img/tt/406tt.jpg","",""
"null","../img/gs/406gs.jpg","null","reveal","image-keyboard-response","514","1680650","0.0-6.0-4.72","3008654","co38671 ","norming","","","","","","",""
"null","../img/tt/406tt.jpg","null","mooney2","image-keyboard-response","515","1682653","0.0-6.0-5.72","3008654","co38671 ","norming","","","","","","",""
"3094.1999999999534","","","post_reveal_questions","survey-likert","516","1685751","0.0-6.0-6.72","3008654","co38671 ","norming","","","{""aha"":1}","[0]","../img/tt/406tt.jpg","",""
"null","<div style=""font-size:60px;""> </div>","null","fixation","html-keyboard-response","517","1685964","0.0-6.0-0.73","3008654","co38671 ","norming","","","","","","",""
"null","../img/tt/438tt.jpg","null","mooney1","image-keyboard-response","518","1688975","0.0-6.0-1.73","3008654","co38671 ","norming","","","","","","",""
"5148.40000000014","","","post_mooney1_questions","survey-likert","519","1694127","0.0-6.0-2.73","3008654","co38671 ","norming","","","{""curiosity"":1,""confidence"":0}","[0,1]","../img/tt/438tt.jpg","",""
"1228.1000000000931","","","recognition","survey-text","520","1695360","0.0-6.0-3.73","3008654","co38671 ","norming","","","{""guess"":""""}","","../img/tt/438tt.jpg","",""
"null","../img/gs/438gs.jpg","null","reveal","image-keyboard-response","521","1697375","0.0-6.0-4.73","3008654","co38671 ","norming","","","","","","",""
"null","../img/tt/438tt.jpg","null","mooney2","image-keyboard-response","522","1699376","0.0-6.0-5.73","3008654","co38671 ","norming","","","","","","",""
"4939.600000000093","","","post_reveal_questions","survey-likert","523","1704319","0.0-6.0-6.73","3008654","co38671 ","norming","","","{""aha"":1}","[0]","../img/tt/438tt.jpg","",""
"null","<div style=""font-size:60px;""> </div>","null","fixation","html-keyboard-response","524","1704546","0.0-6.0-0.74","3008654","co38671 ","norming","","","","","","",""
"null","../img/tt/1006tt.jpg","null","mooney1","image-keyboard-response","525","1707570","0.0-6.0-1.74","3008654","co38671 ","norming","","","","","","",""
"5816.800000000047","","","post_mooney1_questions","survey-likert","526","1713390","0.0-6.0-2.74","3008654","co38671 ","norming","","","{""curiosity"":1,""confidence"":1}","[0,1]","../img/tt/1006tt.jpg","",""
"2429.6999999999534","","","recognition","survey-text","527","1715825","0.0-6.0-3.74","3008654","co38671 ","norming","","","{""guess"":""weide""}","","../img/tt/1006tt.jpg","",""
"null","../img/gs/1006gs.jpg","null","reveal","image-keyboard-response","528","1717840","0.0-6.0-4.74","3008654","co38671 ","norming","","","","","","",""
"null","../img/tt/1006tt.jpg","null","mooney2","image-keyboard-response","529","1719849","0.0-6.0-5.74","3008654","co38671 ","norming","","","","","","",""
"4122.800000000047","","","post_reveal_questions","survey-likert","530","1723975","0.0-6.0-6.74","3008654","co38671 ","norming","","","{""aha"":0}","[0]","../img/tt/1006tt.jpg","",""
"null","<div style=""font-size:60px;""> </div>","null","fixation","html-keyboard-response","531","1724199","0.0-6.0-0.75","3008654","co38671 ","norming","","","","","","",""
"null","../img/tt/010tt.jpg","null","mooney1","image-keyboard-response","532","1727204","0.0-6.0-1.75","3008654","co38671 ","norming","","","","","","",""
"3822.8000000000465","","","post_mooney1_questions","survey-likert","533","1731031","0.0-6.0-2.75","3008654","co38671 ","norming","","","{""curiosity"":1,""confidence"":1}","[0,1]","../img/tt/010tt.jpg","",""
"2860.600000000093","","","recognition","survey-text","534","1733897","0.0-6.0-3.75","3008654","co38671 ","norming","","","{""guess"":""troffee""}","","../img/tt/010tt.jpg","",""
"null","../img/gs/010gs.jpg","null","reveal","image-keyboard-response","535","1735904","0.0-6.0-4.75","3008654","co38671 ","norming","","","","","","",""
"null","../img/tt/010tt.jpg","null","mooney2","image-keyboard-response","536","1737907","0.0-6.0-5.75","3008654","co38671 ","norming","","","","","","",""
"3369.2999999998137","","","post_reveal_questions","survey-likert","537","1741279","0.0-6.0-6.75","3008654","co38671 ","norming","","","{""aha"":2}","[0]","../img/tt/010tt.jpg","",""
"null","<div style=""font-size:60px;""> </div>","null","fixation","html-keyboard-response","538","1741478","0.0-6.0-0.76","3008654","co38671 ","norming","","","","","","",""
"null","../img/tt/515tt.jpg","null","mooney1","image-keyboard-response","539","1744487","0.0-6.0-1.76","3008654","co38671 ","norming","","","","","","",""
"4724.90000000014","","","post_mooney1_questions","survey-likert","540","1749215","0.0-6.0-2.76","3008654","co38671 ","norming","","","{""curiosity"":0,""confidence"":0}","[0,1]","../img/tt/515tt.jpg","",""
"851.6000000000931","","","recognition","survey-text","541","1750071","0.0-6.0-3.76","3008654","co38671 ","norming","","","{""guess"":""""}","","../img/tt/515tt.jpg","",""
"null","../img/gs/515gs.jpg","null","reveal","image-keyboard-response","542","1752090","0.0-6.0-4.76","3008654","co38671 ","norming","","","","","","",""
"null","../img/tt/515tt.jpg","null","mooney2","image-keyboard-response","543","1754082","0.0-6.0-5.76","3008654","co38671 ","norming","","","","","","",""
"2635.399999999907","","","post_reveal_questions","survey-likert","544","1756719","0.0-6.0-6.76","3008654","co38671 ","norming","","","{""aha"":0}","[0]","../img/tt/515tt.jpg","",""
"null","<div style=""font-size:60px;""> </div>","null","fixation","html-keyboard-response","545","1756940","0.0-6.0-0.77","3008654","co38671 ","norming","","","","","","",""
"null","../img/tt/040tt.jpg","null","mooney1","image-keyboard-response","546","1759961","0.0-6.0-1.77","3008654","co38671 ","norming","","","","","","",""
"7323.600000000093","","","post_mooney1_questions","survey-likert","547","1767287","0.0-6.0-2.77","3008654","co38671 ","norming","","","{""curiosity"":0,""confidence"":1}","[0,1]","../img/tt/040tt.jpg","",""
"3661.399999999907","","","recognition","survey-text","548","1770953","0.0-6.0-3.77","3008654","co38671 ","norming","","","{""guess"":""muis""}","","../img/tt/040tt.jpg","",""
"null","../img/gs/040gs.jpg","null","reveal","image-keyboard-response","549","1772981","0.0-6.0-4.77","3008654","co38671 ","norming","","","","","","",""
"null","../img/tt/040tt.jpg","null","mooney2","image-keyboard-response","550","1774970","0.0-6.0-5.77","3008654","co38671 ","norming","","","","","","",""
"2297.1999999999534","","","post_reveal_questions","survey-likert","551","1777270","0.0-6.0-6.77","3008654","co38671 ","norming","","","{""aha"":1}","[0]","../img/tt/040tt.jpg","",""
"null","<div style=""font-size:60px;""> </div>","null","fixation","html-keyboard-response","552","1777486","0.0-6.0-0.78","3008654","co38671 ","norming","","","","","","",""
