"rt","stimulus","key_press","test_part","trial_type","trial_index","time_elapsed","internal_node_id","totalTime","subject","experiment_name","button_pressed","success","responses","question_order","currentStim","old","correct"
"3873.1649999972433","Welcome to the experiment. This is an online experiment so please don't close the tab/window until we say goodbye.  Press any key to begin.","32","instructions","html-keyboard-response","0","3896","0.0-0.0","2212883","co38347","norming","","","","","","",""
"3070.674999966286","<div style='word-wrap: break-word; width: 900px'><h3>Please consider this information carefully before deciding whether to participate in this research</h3><ul style='text-align: left; font-size: .8em;'><li><b>Purpose of the research</b>: To examine how people process images.</li><li><b>What you will do in this research</b>:  Stimuli (images) will be presented on the computer and you will be asked different questions about them.</li><li><b>Time required</b>: Participation will take between 45 and 60 minutes to complete.</li><li><b>Risks</b>:  There are no anticipated risks associated with participating in this study. The effects of participating should be comparable to those you would experience from viewing a computer monitor for 30 minutes and using a mouse or keyboard.</li><li><b>Benefits</b>:  This study provides no benefits to you individually except for the credit. The study provides important information about the nature of perception and learning.</li><li><b>Confidentiality</b>:  Your participation in this study will remain confidential. No personally identifiable information will be associated with your data. Your de-identified data may be shared with other researchers and used in future projects.</li><li><b>Participation and withdrawal</b>:  Your participation in this study is completely voluntary and you may refuse to participate or you may choose to withdraw at any time without penalty.</li><li><b>How to contact the researchers</b>: If you have questions or concerns about your participation or payment, or want to request a summary of research findings, please contact Sander Van de Cruys (KU Leuven), at sander.vandecruys@kuleuven.be.</li></ul><p>The nature and purpose of this research have been sufficiently explained and I agree to participate in this study.  I understand that I am free to withdraw at any time without incurring any penalty.</p><p>Please consent by clicking the button below to continue. Otherwise, please exit the study at this time.</p></div>","","instructions","html-button-response","1","6971","0.0-1.0","2212883","co38347","norming","0","","","","","",""
"","","","instructions","fullscreen","2","10623","0.0-2.0","2212883","co38347","norming","","true","","","","",""
"18436.214999994263","","","sona","survey-html-form","3","29067","0.0-3.0","2212883","co38347","norming","","","[{""name"":""sonaid"",""value"":""38347""},{""name"":""debrief"",""value"":""yes""},{""name"":""datajoin"",""value"":""yes""}]","","","",""
"18906.169999972917","<div style='word-wrap: break-word; width: 900px'><h3>Instructions</h3><p>This experiment will have 3 parts. In the first part you will see a series of distorted images like the one below on the left. As you can see in the righthand image, the distorted images are derived from actual photographs. In what follows, you will <strong>briefly</strong> be presented with <strong>only</strong> the distorted image.</p> <div style='float: left; margin-right: 20px;'><img src='../img/018tt.jpg' height='250' width='250'></img></div><div style='float: right; margin-left: 20px;'><img src='../img/018gs.jpg' height='250' width='250'></img></div><p>Subsequently you will be asked a few questions about the image: One question on how <strong>curious</strong> you are about the solution and one on how <strong>confident</strong> you are that you know the solution.</p>Next, we ask you to make a guess on what is in the image. Note that it is OK to name just the <strong>basic level category</strong>. For example when you see a parrot in the image, 'parrot' will obviously be a correct answer but also correct is 'bird'. However, 'animal' will <strong>not</strong> be counted as a correct response. For the example above, 'rose' would be correct or 'flower', but not 'plant'. When soccer players are depicted, 'soccer', 'football', 'soccer players' will be correct, but not 'humans', 'outdoors', or 'sports'. You do not need to describe the image in full, just name the main object in it <strong>in one or two words</strong>. All images depict objects from one of the following broad level categories: animals, inanimate objects, plants, sports, vehicles, and food. Recognizing means knowing <strong>more</strong> than these broad labels for a given image. But we always encourage you to <strong>make a guess</strong> if you can. Note that you are allowed to use <strong>Dutch and English</strong> in your answers, whatever comes easiest for you.</p><p>Press any key to continue.</p></div>","32","instructions","html-keyboard-response","4","47981","0.0-4.0","2212883","co38347","norming","","","","","","",""
"8637.365000031423","<div style='word-wrap: break-word; width: 900px'><h3>Instructions</h3> <p>Next, the solution image will be revealed to you and you'll be asked to indicate how strong your <strong>aha-experience</strong> was after seeing the solution. This describes the positive feeling of the 'click' you sometimes experience, when the pieces of the 'puzzle' fall together and you suddenly have 'insight' in the image.</p><img src='aha.jpg' height='188' width='250'></img><p>Note that there are no right or wrong answers. We are interested in what <strong>you</strong> see in the image and how <strong>you</strong> feel about it.</p><p>Press any key to start the experiment.</p></div>","32","instructions","html-keyboard-response","5","56622","0.0-5.0","2212883","co38347","norming","","","","","","",""
"null","<div style=""font-size:60px;""> </div>","null","fixation","html-keyboard-response","6","56826","0.0-6.0-0.0","2212883","co38347","norming","","","","","","",""
"null","../img/tt/020tt.jpg","null","mooney1","image-keyboard-response","7","59832","0.0-6.0-1.0","2212883","co38347","norming","","","","","","",""
"5375.0050000380725","","","post_mooney1_questions","survey-likert","8","65213","0.0-6.0-2.0","2212883","co38347","norming","","","{""curiosity"":4,""confidence"":5}","[0,1]","../img/tt/020tt.jpg","",""
"4118.439999991097","","","recognition","survey-text","9","69355","0.0-6.0-3.0","2212883","co38347","norming","","","{""guess"":""dog""}","","../img/tt/020tt.jpg","",""
"null","../img/gs/020gs.jpg","null","reveal","image-keyboard-response","10","71359","0.0-6.0-4.0","2212883","co38347","norming","","","","","","",""
"null","../img/tt/020tt.jpg","null","mooney2","image-keyboard-response","11","73362","0.0-6.0-5.0","2212883","co38347","norming","","","","","","",""
"6044.019999972079","","","post_reveal_questions","survey-likert","12","79409","0.0-6.0-6.0","2212883","co38347","norming","","","{""aha"":5}","[0]","../img/tt/020tt.jpg","",""
"null","<div style=""font-size:60px;""> </div>","null","fixation","html-keyboard-response","13","79615","0.0-6.0-0.1","2212883","co38347","norming","","","","","","",""
"null","../img/tt/584tt.jpg","null","mooney1","image-keyboard-response","14","82619","0.0-6.0-1.1","2212883","co38347","norming","","","","","","",""
"3951.1700000148267","","","post_mooney1_questions","survey-likert","15","86576","0.0-6.0-2.1","2212883","co38347","norming","","","{""curiosity"":6,""confidence"":1}","[0,1]","../img/tt/584tt.jpg","",""
"617.1550000435673","","","recognition","survey-text","16","87208","0.0-6.0-3.1","2212883","co38347","norming","","","{""guess"":""""}","","../img/tt/584tt.jpg","",""
"null","../img/gs/584gs.jpg","null","reveal","image-keyboard-response","17","89213","0.0-6.0-4.1","2212883","co38347","norming","","","","","","",""
"null","../img/tt/584tt.jpg","null","mooney2","image-keyboard-response","18","91217","0.0-6.0-5.1","2212883","co38347","norming","","","","","","",""
"3362.525000004098","","","post_reveal_questions","survey-likert","19","94583","0.0-6.0-6.1","2212883","co38347","norming","","","{""aha"":6}","[0]","../img/tt/584tt.jpg","",""
"null","<div style=""font-size:60px;""> </div>","null","fixation","html-keyboard-response","20","94787","0.0-6.0-0.2","2212883","co38347","norming","","","","","","",""
"null","../img/tt/056tt.jpg","null","mooney1","image-keyboard-response","21","97793","0.0-6.0-1.2","2212883","co38347","norming","","","","","","",""
"4561.660000006668","","","post_mooney1_questions","survey-likert","22","102358","0.0-6.0-2.2","2212883","co38347","norming","","","{""curiosity"":5,""confidence"":0}","[0,1]","../img/tt/056tt.jpg","",""
"935.4449999518692","","","recognition","survey-text","23","103317","0.0-6.0-3.2","2212883","co38347","norming","","","{""guess"":""""}","","../img/tt/056tt.jpg","",""
"null","../img/gs/056gs.jpg","null","reveal","image-keyboard-response","24","105322","0.0-6.0-4.2","2212883","co38347","norming","","","","","","",""
"null","../img/tt/056tt.jpg","null","mooney2","image-keyboard-response","25","107326","0.0-6.0-5.2","2212883","co38347","norming","","","","","","",""
"3043.8900000299327","","","post_reveal_questions","survey-likert","26","110373","0.0-6.0-6.2","2212883","co38347","norming","","","{""aha"":6}","[0]","../img/tt/056tt.jpg","",""
"null","<div style=""font-size:60px;""> </div>","null","fixation","html-keyboard-response","27","110578","0.0-6.0-0.3","2212883","co38347","norming","","","","","","",""
"null","../img/tt/1040tt.jpg","null","mooney1","image-keyboard-response","28","113585","0.0-6.0-1.3","2212883","co38347","norming","","","","","","",""
"3942.994999990333","","","post_mooney1_questions","survey-likert","29","117532","0.0-6.0-2.3","2212883","co38347","norming","","","{""curiosity"":6,""confidence"":0}","[0,1]","../img/tt/1040tt.jpg","",""
"1052.2000000346452","","","recognition","survey-text","30","118595","0.0-6.0-3.3","2212883","co38347","norming","","","{""guess"":""""}","","../img/tt/1040tt.jpg","",""
"null","../img/gs/1040gs.jpg","null","reveal","image-keyboard-response","31","120600","0.0-6.0-4.3","2212883","co38347","norming","","","","","","",""
"null","../img/tt/1040tt.jpg","null","mooney2","image-keyboard-response","32","122602","0.0-6.0-5.3","2212883","co38347","norming","","","","","","",""
"2173.2349999947473","","","post_reveal_questions","survey-likert","33","124779","0.0-6.0-6.3","2212883","co38347","norming","","","{""aha"":5}","[0]","../img/tt/1040tt.jpg","",""
"null","<div style=""font-size:60px;""> </div>","null","fixation","html-keyboard-response","34","124983","0.0-6.0-0.4","2212883","co38347","norming","","","","","","",""
"null","../img/tt/1307tt.jpg","null","mooney1","image-keyboard-response","35","127987","0.0-6.0-1.4","2212883","co38347","norming","","","","","","",""
"3869.059999997262","","","post_mooney1_questions","survey-likert","36","131859","0.0-6.0-2.4","2212883","co38347","norming","","","{""curiosity"":4,""confidence"":4}","[0,1]","../img/tt/1307tt.jpg","",""
"1688.2650000043213","","","recognition","survey-text","37","133573","0.0-6.0-3.4","2212883","co38347","norming","","","{""guess"":""wheel""}","","../img/tt/1307tt.jpg","",""
"null","../img/gs/1307gs.jpg","null","reveal","image-keyboard-response","38","135581","0.0-6.0-4.4","2212883","co38347","norming","","","","","","",""
"null","../img/tt/1307tt.jpg","null","mooney2","image-keyboard-response","39","137588","0.0-6.0-5.4","2212883","co38347","norming","","","","","","",""
"2633.635000034701","","","post_reveal_questions","survey-likert","40","140224","0.0-6.0-6.4","2212883","co38347","norming","","","{""aha"":4}","[0]","../img/tt/1307tt.jpg","",""
"null","<div style=""font-size:60px;""> </div>","null","fixation","html-keyboard-response","41","140430","0.0-6.0-0.5","2212883","co38347","norming","","","","","","",""
"null","../img/tt/1146tt.jpg","null","mooney1","image-keyboard-response","42","143435","0.0-6.0-1.5","2212883","co38347","norming","","","","","","",""
"2880.570000037551","","","post_mooney1_questions","survey-likert","43","146319","0.0-6.0-2.5","2212883","co38347","norming","","","{""curiosity"":4,""confidence"":3}","[0,1]","../img/tt/1146tt.jpg","",""
"11153.869999980088","","","recognition","survey-text","44","157485","0.0-6.0-3.5","2212883","co38347","norming","","","{""guess"":""shooting arrows""}","","../img/tt/1146tt.jpg","",""
"null","../img/gs/1146gs.jpg","null","reveal","image-keyboard-response","45","159492","0.0-6.0-4.5","2212883","co38347","norming","","","","","","",""
"null","../img/tt/1146tt.jpg","null","mooney2","image-keyboard-response","46","161495","0.0-6.0-5.5","2212883","co38347","norming","","","","","","",""
"1564.8899999796413","","","post_reveal_questions","survey-likert","47","163062","0.0-6.0-6.5","2212883","co38347","norming","","","{""aha"":0}","[0]","../img/tt/1146tt.jpg","",""
"null","<div style=""font-size:60px;""> </div>","null","fixation","html-keyboard-response","48","163268","0.0-6.0-0.6","2212883","co38347","norming","","","","","","",""
"null","../img/tt/036tt.jpg","null","mooney1","image-keyboard-response","49","166272","0.0-6.0-1.6","2212883","co38347","norming","","","","","","",""
"3094.860000011977","","","post_mooney1_questions","survey-likert","50","169374","0.0-6.0-2.6","2212883","co38347","norming","","","{""curiosity"":3,""confidence"":4}","[0,1]","../img/tt/036tt.jpg","",""
"2272.57999998983","","","recognition","survey-text","51","171670","0.0-6.0-3.6","2212883","co38347","norming","","","{""guess"":""lightning""}","","../img/tt/036tt.jpg","",""
"null","../img/gs/036gs.jpg","null","reveal","image-keyboard-response","52","173676","0.0-6.0-4.6","2212883","co38347","norming","","","","","","",""
"null","../img/tt/036tt.jpg","null","mooney2","image-keyboard-response","53","175678","0.0-6.0-5.6","2212883","co38347","norming","","","","","","",""
"1915.4899999848567","","","post_reveal_questions","survey-likert","54","177596","0.0-6.0-6.6","2212883","co38347","norming","","","{""aha"":0}","[0]","../img/tt/036tt.jpg","",""
"null","<div style=""font-size:60px;""> </div>","null","fixation","html-keyboard-response","55","177801","0.0-6.0-0.7","2212883","co38347","norming","","","","","","",""
"null","../img/tt/053tt.jpg","null","mooney1","image-keyboard-response","56","180805","0.0-6.0-1.7","2212883","co38347","norming","","","","","","",""
"3425.9999999776483","","","post_mooney1_questions","survey-likert","57","184235","0.0-6.0-2.7","2212883","co38347","norming","","","{""curiosity"":4,""confidence"":4}","[0,1]","../img/tt/053tt.jpg","",""
"16990.60499999905","","","recognition","survey-text","58","201236","0.0-6.0-3.7","2212883","co38347","norming","","","{""guess"":""glacier""}","","../img/tt/053tt.jpg","",""
"null","../img/gs/053gs.jpg","null","reveal","image-keyboard-response","59","203243","0.0-6.0-4.7","2212883","co38347","norming","","","","","","",""
"null","../img/tt/053tt.jpg","null","mooney2","image-keyboard-response","60","205245","0.0-6.0-5.7","2212883","co38347","norming","","","","","","",""
"1542.9250000161119","","","post_reveal_questions","survey-likert","61","206795","0.0-6.0-6.7","2212883","co38347","norming","","","{""aha"":5}","[0]","../img/tt/053tt.jpg","",""
"null","<div style=""font-size:60px;""> </div>","null","fixation","html-keyboard-response","62","206998","0.0-6.0-0.8","2212883","co38347","norming","","","","","","",""
"null","../img/tt/055tt.jpg","null","mooney1","image-keyboard-response","63","210002","0.0-6.0-1.8","2212883","co38347","norming","","","","","","",""
"7728.5549999796785","","","post_mooney1_questions","survey-likert","64","217734","0.0-6.0-2.8","2212883","co38347","norming","","","{""curiosity"":1,""confidence"":6}","[0,1]","../img/tt/055tt.jpg","",""
"1754.7100000083447","","","recognition","survey-text","65","219501","0.0-6.0-3.8","2212883","co38347","norming","","","{""guess"":""saddle""}","","../img/tt/055tt.jpg","",""
"null","../img/gs/055gs.jpg","null","reveal","image-keyboard-response","66","221507","0.0-6.0-4.8","2212883","co38347","norming","","","","","","",""
"null","../img/tt/055tt.jpg","null","mooney2","image-keyboard-response","67","223509","0.0-6.0-5.8","2212883","co38347","norming","","","","","","",""
"4203.014999977313","","","post_reveal_questions","survey-likert","68","227717","0.0-6.0-6.8","2212883","co38347","norming","","","{""aha"":0}","[0]","../img/tt/055tt.jpg","",""
"null","<div style=""font-size:60px;""> </div>","null","fixation","html-keyboard-response","69","227921","0.0-6.0-0.9","2212883","co38347","norming","","","","","","",""
"null","../img/tt/076tt.jpg","null","mooney1","image-keyboard-response","70","230925","0.0-6.0-1.9","2212883","co38347","norming","","","","","","",""
"3924.650000000838","","","post_mooney1_questions","survey-likert","71","234853","0.0-6.0-2.9","2212883","co38347","norming","","","{""curiosity"":2,""confidence"":4}","[0,1]","../img/tt/076tt.jpg","",""
"2501.8900000141","","","recognition","survey-text","72","237382","0.0-6.0-3.9","2212883","co38347","norming","","","{""guess"":""rollerskates""}","","../img/tt/076tt.jpg","",""
"null","../img/gs/076gs.jpg","null","reveal","image-keyboard-response","73","239392","0.0-6.0-4.9","2212883","co38347","norming","","","","","","",""
"null","../img/tt/076tt.jpg","null","mooney2","image-keyboard-response","74","241394","0.0-6.0-5.9","2212883","co38347","norming","","","","","","",""
"1374.584999983199","","","post_reveal_questions","survey-likert","75","242772","0.0-6.0-6.9","2212883","co38347","norming","","","{""aha"":0}","[0]","../img/tt/076tt.jpg","",""
"null","<div style=""font-size:60px;""> </div>","null","fixation","html-keyboard-response","76","242976","0.0-6.0-0.10","2212883","co38347","norming","","","","","","",""
"null","../img/tt/032tt.jpg","null","mooney1","image-keyboard-response","77","245981","0.0-6.0-1.10","2212883","co38347","norming","","","","","","",""
"3832.605000003241","","","post_mooney1_questions","survey-likert","78","249817","0.0-6.0-2.10","2212883","co38347","norming","","","{""curiosity"":5,""confidence"":2}","[0,1]","../img/tt/032tt.jpg","",""
"2815.810000000056","","","recognition","survey-text","79","252645","0.0-6.0-3.10","2212883","co38347","norming","","","{""guess"":""platypus""}","","../img/tt/032tt.jpg","",""
"null","../img/gs/032gs.jpg","null","reveal","image-keyboard-response","80","254650","0.0-6.0-4.10","2212883","co38347","norming","","","","","","",""
"null","../img/tt/032tt.jpg","null","mooney2","image-keyboard-response","81","256653","0.0-6.0-5.10","2212883","co38347","norming","","","","","","",""
"1879.8500000266358","","","post_reveal_questions","survey-likert","82","258537","0.0-6.0-6.10","2212883","co38347","norming","","","{""aha"":5}","[0]","../img/tt/032tt.jpg","",""
"null","<div style=""font-size:60px;""> </div>","null","fixation","html-keyboard-response","83","258739","0.0-6.0-0.11","2212883","co38347","norming","","","","","","",""
"null","../img/tt/1012tt.jpg","null","mooney1","image-keyboard-response","84","261745","0.0-6.0-1.11","2212883","co38347","norming","","","","","","",""
"3148.9050000091083","","","post_mooney1_questions","survey-likert","85","264897","0.0-6.0-2.11","2212883","co38347","norming","","","{""curiosity"":6,""confidence"":0}","[0,1]","../img/tt/1012tt.jpg","",""
"532.4949999921955","","","recognition","survey-text","86","265439","0.0-6.0-3.11","2212883","co38347","norming","","","{""guess"":""""}","","../img/tt/1012tt.jpg","",""
"null","../img/gs/1012gs.jpg","null","reveal","image-keyboard-response","87","267443","0.0-6.0-4.11","2212883","co38347","norming","","","","","","",""
"null","../img/tt/1012tt.jpg","null","mooney2","image-keyboard-response","88","269448","0.0-6.0-5.11","2212883","co38347","norming","","","","","","",""
"1827.5199999916367","","","post_reveal_questions","survey-likert","89","271279","0.0-6.0-6.11","2212883","co38347","norming","","","{""aha"":6}","[0]","../img/tt/1012tt.jpg","",""
"null","<div style=""font-size:60px;""> </div>","null","fixation","html-keyboard-response","90","271483","0.0-6.0-0.12","2212883","co38347","norming","","","","","","",""
"null","../img/tt/1126tt.jpg","null","mooney1","image-keyboard-response","91","274487","0.0-6.0-1.12","2212883","co38347","norming","","","","","","",""
"2819.8599999886937","","","post_mooney1_questions","survey-likert","92","277311","0.0-6.0-2.12","2212883","co38347","norming","","","{""curiosity"":4,""confidence"":2}","[0,1]","../img/tt/1126tt.jpg","",""
"855.5700000142679","","","recognition","survey-text","93","278190","0.0-6.0-3.12","2212883","co38347","norming","","","{""guess"":""""}","","../img/tt/1126tt.jpg","",""
"null","../img/gs/1126gs.jpg","null","reveal","image-keyboard-response","94","280195","0.0-6.0-4.12","2212883","co38347","norming","","","","","","",""
"null","../img/tt/1126tt.jpg","null","mooney2","image-keyboard-response","95","282198","0.0-6.0-5.12","2212883","co38347","norming","","","","","","",""
"3140.220000001136","","","post_reveal_questions","survey-likert","96","285341","0.0-6.0-6.12","2212883","co38347","norming","","","{""aha"":5}","[0]","../img/tt/1126tt.jpg","",""
"null","<div style=""font-size:60px;""> </div>","null","fixation","html-keyboard-response","97","285545","0.0-6.0-0.13","2212883","co38347","norming","","","","","","",""
"null","../img/tt/1154tt.jpg","null","mooney1","image-keyboard-response","98","288550","0.0-6.0-1.13","2212883","co38347","norming","","","","","","",""
"3259.7200000309385","","","post_mooney1_questions","survey-likert","99","291813","0.0-6.0-2.13","2212883","co38347","norming","","","{""curiosity"":4,""confidence"":4}","[0,1]","../img/tt/1154tt.jpg","",""
"1913.4299999568611","","","recognition","survey-text","100","293736","0.0-6.0-3.13","2212883","co38347","norming","","","{""guess"":""boat""}","","../img/tt/1154tt.jpg","",""
"null","../img/gs/1154gs.jpg","null","reveal","image-keyboard-response","101","295746","0.0-6.0-4.13","2212883","co38347","norming","","","","","","",""
"null","../img/tt/1154tt.jpg","null","mooney2","image-keyboard-response","102","297748","0.0-6.0-5.13","2212883","co38347","norming","","","","","","",""
"3300.8050000062212","","","post_reveal_questions","survey-likert","103","301052","0.0-6.0-6.13","2212883","co38347","norming","","","{""aha"":1}","[0]","../img/tt/1154tt.jpg","",""
"null","<div style=""font-size:60px;""> </div>","null","fixation","html-keyboard-response","104","301255","0.0-6.0-0.14","2212883","co38347","norming","","","","","","",""
"null","../img/tt/1004tt.jpg","null","mooney1","image-keyboard-response","105","304258","0.0-6.0-1.14","2212883","co38347","norming","","","","","","",""
"3956.5500000026077","","","post_mooney1_questions","survey-likert","106","308219","0.0-6.0-2.14","2212883","co38347","norming","","","{""curiosity"":6,""confidence"":0}","[0,1]","../img/tt/1004tt.jpg","",""
"622.2100000013597","","","recognition","survey-text","107","308866","0.0-6.0-3.14","2212883","co38347","norming","","","{""guess"":""""}","","../img/tt/1004tt.jpg","",""
"null","../img/gs/1004gs.jpg","null","reveal","image-keyboard-response","108","310871","0.0-6.0-4.14","2212883","co38347","norming","","","","","","",""
"null","../img/tt/1004tt.jpg","null","mooney2","image-keyboard-response","109","312879","0.0-6.0-5.14","2212883","co38347","norming","","","","","","",""
"1319.565000012517","","","post_reveal_questions","survey-likert","110","314202","0.0-6.0-6.14","2212883","co38347","norming","","","{""aha"":5}","[0]","../img/tt/1004tt.jpg","",""
"null","<div style=""font-size:60px;""> </div>","null","fixation","html-keyboard-response","111","314407","0.0-6.0-0.15","2212883","co38347","norming","","","","","","",""
"null","../img/tt/507tt.jpg","null","mooney1","image-keyboard-response","112","317412","0.0-6.0-1.15","2212883","co38347","norming","","","","","","",""
"4497.244999976829","","","post_mooney1_questions","survey-likert","113","321913","0.0-6.0-2.15","2212883","co38347","norming","","","{""curiosity"":4,""confidence"":4}","[0,1]","../img/tt/507tt.jpg","",""
"2217.614999972284","","","recognition","survey-text","114","324141","0.0-6.0-3.15","2212883","co38347","norming","","","{""guess"":""statue""}","","../img/tt/507tt.jpg","",""
"null","../img/gs/507gs.jpg","null","reveal","image-keyboard-response","115","326145","0.0-6.0-4.15","2212883","co38347","norming","","","","","","",""
"null","../img/tt/507tt.jpg","null","mooney2","image-keyboard-response","116","328147","0.0-6.0-5.15","2212883","co38347","norming","","","","","","",""
"3368.654999998398","","","post_reveal_questions","survey-likert","117","331520","0.0-6.0-6.15","2212883","co38347","norming","","","{""aha"":5}","[0]","../img/tt/507tt.jpg","",""
"null","<div style=""font-size:60px;""> </div>","null","fixation","html-keyboard-response","118","331723","0.0-6.0-0.16","2212883","co38347","norming","","","","","","",""
"null","../img/tt/1084tt.jpg","null","mooney1","image-keyboard-response","119","334728","0.0-6.0-1.16","2212883","co38347","norming","","","","","","",""
"4562.160000030417","","","post_mooney1_questions","survey-likert","120","339295","0.0-6.0-2.16","2212883","co38347","norming","","","{""curiosity"":5,""confidence"":0}","[0,1]","../img/tt/1084tt.jpg","",""
"827.5250000297092","","","recognition","survey-text","121","340134","0.0-6.0-3.16","2212883","co38347","norming","","","{""guess"":""""}","","../img/tt/1084tt.jpg","",""
"null","../img/gs/1084gs.jpg","null","reveal","image-keyboard-response","122","342138","0.0-6.0-4.16","2212883","co38347","norming","","","","","","",""
"null","../img/tt/1084tt.jpg","null","mooney2","image-keyboard-response","123","344142","0.0-6.0-5.16","2212883","co38347","norming","","","","","","",""
"2109.779999998864","","","post_reveal_questions","survey-likert","124","346255","0.0-6.0-6.16","2212883","co38347","norming","","","{""aha"":4}","[0]","../img/tt/1084tt.jpg","",""
"null","<div style=""font-size:60px;""> </div>","null","fixation","html-keyboard-response","125","346458","0.0-6.0-0.17","2212883","co38347","norming","","","","","","",""
"null","../img/tt/010tt.jpg","null","mooney1","image-keyboard-response","126","349464","0.0-6.0-1.17","2212883","co38347","norming","","","","","","",""
"8776.164999988396","","","post_mooney1_questions","survey-likert","127","358244","0.0-6.0-2.17","2212883","co38347","norming","","","{""curiosity"":4,""confidence"":0}","[0,1]","../img/tt/010tt.jpg","",""
"939.5850000437349","","","recognition","survey-text","128","359195","0.0-6.0-3.17","2212883","co38347","norming","","","{""guess"":""""}","","../img/tt/010tt.jpg","",""
"null","../img/gs/010gs.jpg","null","reveal","image-keyboard-response","129","361199","0.0-6.0-4.17","2212883","co38347","norming","","","","","","",""
"null","../img/tt/010tt.jpg","null","mooney2","image-keyboard-response","130","363205","0.0-6.0-5.17","2212883","co38347","norming","","","","","","",""
"6427.399999985937","","","post_reveal_questions","survey-likert","131","369636","0.0-6.0-6.17","2212883","co38347","norming","","","{""aha"":4}","[0]","../img/tt/010tt.jpg","",""
"null","<div style=""font-size:60px;""> </div>","null","fixation","html-keyboard-response","132","369840","0.0-6.0-0.18","2212883","co38347","norming","","","","","","",""
"null","../img/tt/1002tt.jpg","null","mooney1","image-keyboard-response","133","372845","0.0-6.0-1.18","2212883","co38347","norming","","","","","","",""
"2962.340000027325","","","post_mooney1_questions","survey-likert","134","375811","0.0-6.0-2.18","2212883","co38347","norming","","","{""curiosity"":5,""confidence"":0}","[0,1]","../img/tt/1002tt.jpg","",""
"889.095000049565","","","recognition","survey-text","135","376722","0.0-6.0-3.18","2212883","co38347","norming","","","{""guess"":""""}","","../img/tt/1002tt.jpg","",""
"null","../img/gs/1002gs.jpg","null","reveal","image-keyboard-response","136","378727","0.0-6.0-4.18","2212883","co38347","norming","","","","","","",""
"null","../img/tt/1002tt.jpg","null","mooney2","image-keyboard-response","137","380731","0.0-6.0-5.18","2212883","co38347","norming","","","","","","",""
"1890.7299999846146","","","post_reveal_questions","survey-likert","138","382625","0.0-6.0-6.18","2212883","co38347","norming","","","{""aha"":5}","[0]","../img/tt/1002tt.jpg","",""
"null","<div style=""font-size:60px;""> </div>","null","fixation","html-keyboard-response","139","382830","0.0-6.0-0.19","2212883","co38347","norming","","","","","","",""
"null","../img/tt/111tt.jpg","null","mooney1","image-keyboard-response","140","385834","0.0-6.0-1.19","2212883","co38347","norming","","","","","","",""
"3226.4349999604747","","","post_mooney1_questions","survey-likert","141","389064","0.0-6.0-2.19","2212883","co38347","norming","","","{""curiosity"":4,""confidence"":4}","[0,1]","../img/tt/111tt.jpg","",""
"2111.525000014808","","","recognition","survey-text","142","391203","0.0-6.0-3.19","2212883","co38347","norming","","","{""guess"":""singer""}","","../img/tt/111tt.jpg","",""
"null","../img/gs/111gs.jpg","null","reveal","image-keyboard-response","143","393209","0.0-6.0-4.19","2212883","co38347","norming","","","","","","",""
"null","../img/tt/111tt.jpg","null","mooney2","image-keyboard-response","144","395213","0.0-6.0-5.19","2212883","co38347","norming","","","","","","",""
"5286.149999999907","","","post_reveal_questions","survey-likert","145","400503","0.0-6.0-6.19","2212883","co38347","norming","","","{""aha"":4}","[0]","../img/tt/111tt.jpg","",""
"null","<div style=""font-size:60px;""> </div>","null","fixation","html-keyboard-response","146","400708","0.0-6.0-0.20","2212883","co38347","norming","","","","","","",""
"null","../img/tt/1217tt.jpg","null","mooney1","image-keyboard-response","147","403712","0.0-6.0-1.20","2212883","co38347","norming","","","","","","",""
"3049.890000023879","","","post_mooney1_questions","survey-likert","148","406766","0.0-6.0-2.20","2212883","co38347","norming","","","{""curiosity"":2,""confidence"":5}","[0,1]","../img/tt/1217tt.jpg","",""
"2184.0099999681115","","","recognition","survey-text","149","408977","0.0-6.0-3.20","2212883","co38347","norming","","","{""guess"":""football""}","","../img/tt/1217tt.jpg","",""
"null","../img/gs/1217gs.jpg","null","reveal","image-keyboard-response","150","410984","0.0-6.0-4.20","2212883","co38347","norming","","","","","","",""
"null","../img/tt/1217tt.jpg","null","mooney2","image-keyboard-response","151","412986","0.0-6.0-5.20","2212883","co38347","norming","","","","","","",""
"3255.490000010468","","","post_reveal_questions","survey-likert","152","416244","0.0-6.0-6.20","2212883","co38347","norming","","","{""aha"":1}","[0]","../img/tt/1217tt.jpg","",""
"null","<div style=""font-size:60px;""> </div>","null","fixation","html-keyboard-response","153","416447","0.0-6.0-0.21","2212883","co38347","norming","","","","","","",""
"null","../img/tt/1186tt.jpg","null","mooney1","image-keyboard-response","154","419453","0.0-6.0-1.21","2212883","co38347","norming","","","","","","",""
"18072.289999981876","","","post_mooney1_questions","survey-likert","155","437530","0.0-6.0-2.21","2212883","co38347","norming","","","{""curiosity"":4,""confidence"":0}","[0,1]","../img/tt/1186tt.jpg","",""
"863.80500002997","","","recognition","survey-text","156","438417","0.0-6.0-3.21","2212883","co38347","norming","","","{""guess"":""""}","","../img/tt/1186tt.jpg","",""
"null","../img/gs/1186gs.jpg","null","reveal","image-keyboard-response","157","440422","0.0-6.0-4.21","2212883","co38347","norming","","","","","","",""
"null","../img/tt/1186tt.jpg","null","mooney2","image-keyboard-response","158","442425","0.0-6.0-5.21","2212883","co38347","norming","","","","","","",""
"7380.754999991041","","","post_reveal_questions","survey-likert","159","449808","0.0-6.0-6.21","2212883","co38347","norming","","","{""aha"":2}","[0]","../img/tt/1186tt.jpg","",""
"null","<div style=""font-size:60px;""> </div>","null","fixation","html-keyboard-response","160","450013","0.0-6.0-0.22","2212883","co38347","norming","","","","","","",""
"null","../img/tt/1043tt.jpg","null","mooney1","image-keyboard-response","161","453018","0.0-6.0-1.22","2212883","co38347","norming","","","","","","",""
"6008.8449999457225","","","post_mooney1_questions","survey-likert","162","459031","0.0-6.0-2.22","2212883","co38347","norming","","","{""curiosity"":4,""confidence"":0}","[0,1]","../img/tt/1043tt.jpg","",""
"1391.8749999720603","","","recognition","survey-text","163","460430","0.0-6.0-3.22","2212883","co38347","norming","","","{""guess"":""""}","","../img/tt/1043tt.jpg","",""
"null","../img/gs/1043gs.jpg","null","reveal","image-keyboard-response","164","462435","0.0-6.0-4.22","2212883","co38347","norming","","","","","","",""
"null","../img/tt/1043tt.jpg","null","mooney2","image-keyboard-response","165","464438","0.0-6.0-5.22","2212883","co38347","norming","","","","","","",""
"2332.5300000142306","","","post_reveal_questions","survey-likert","166","466774","0.0-6.0-6.22","2212883","co38347","norming","","","{""aha"":5}","[0]","../img/tt/1043tt.jpg","",""
"null","<div style=""font-size:60px;""> </div>","null","fixation","html-keyboard-response","167","466979","0.0-6.0-0.23","2212883","co38347","norming","","","","","","",""
"null","../img/tt/060tt.jpg","null","mooney1","image-keyboard-response","168","469983","0.0-6.0-1.23","2212883","co38347","norming","","","","","","",""
"4402.6250000461005","","","post_mooney1_questions","survey-likert","169","474389","0.0-6.0-2.23","2212883","co38347","norming","","","{""curiosity"":5,""confidence"":2}","[0,1]","../img/tt/060tt.jpg","",""
"2484.7849999787286","","","recognition","survey-text","170","476898","0.0-6.0-3.23","2212883","co38347","norming","","","{""guess"":""taco""}","","../img/tt/060tt.jpg","",""
"null","../img/gs/060gs.jpg","null","reveal","image-keyboard-response","171","478906","0.0-6.0-4.23","2212883","co38347","norming","","","","","","",""
"null","../img/tt/060tt.jpg","null","mooney2","image-keyboard-response","172","480909","0.0-6.0-5.23","2212883","co38347","norming","","","","","","",""
"1898.975000018254","","","post_reveal_questions","survey-likert","173","482812","0.0-6.0-6.23","2212883","co38347","norming","","","{""aha"":4}","[0]","../img/tt/060tt.jpg","",""
"null","<div style=""font-size:60px;""> </div>","null","fixation","html-keyboard-response","174","483016","0.0-6.0-0.24","2212883","co38347","norming","","","","","","",""
"null","../img/tt/1173tt.jpg","null","mooney1","image-keyboard-response","175","486021","0.0-6.0-1.24","2212883","co38347","norming","","","","","","",""
"2771.145000006072","","","post_mooney1_questions","survey-likert","176","488796","0.0-6.0-2.24","2212883","co38347","norming","","","{""curiosity"":2,""confidence"":5}","[0,1]","../img/tt/1173tt.jpg","",""
"2051.7100000288337","","","recognition","survey-text","177","490871","0.0-6.0-3.24","2212883","co38347","norming","","","{""guess"":""hockey""}","","../img/tt/1173tt.jpg","",""
"null","../img/gs/1173gs.jpg","null","reveal","image-keyboard-response","178","492879","0.0-6.0-4.24","2212883","co38347","norming","","","","","","",""
"null","../img/tt/1173tt.jpg","null","mooney2","image-keyboard-response","179","494882","0.0-6.0-5.24","2212883","co38347","norming","","","","","","",""
"2356.6850000061095","","","post_reveal_questions","survey-likert","180","497242","0.0-6.0-6.24","2212883","co38347","norming","","","{""aha"":4}","[0]","../img/tt/1173tt.jpg","",""
"null","<div style=""font-size:60px;""> </div>","null","fixation","html-keyboard-response","181","497447","0.0-6.0-0.25","2212883","co38347","norming","","","","","","",""
"null","../img/tt/1037tt.jpg","null","mooney1","image-keyboard-response","182","500452","0.0-6.0-1.25","2212883","co38347","norming","","","","","","",""
"3298.9899999811314","","","post_mooney1_questions","survey-likert","183","503754","0.0-6.0-2.25","2212883","co38347","norming","","","{""curiosity"":5,""confidence"":0}","[0,1]","../img/tt/1037tt.jpg","",""
"509.67999995918944","","","recognition","survey-text","184","504289","0.0-6.0-3.25","2212883","co38347","norming","","","{""guess"":""""}","","../img/tt/1037tt.jpg","",""
"null","../img/gs/1037gs.jpg","null","reveal","image-keyboard-response","185","506293","0.0-6.0-4.25","2212883","co38347","norming","","","","","","",""
"null","../img/tt/1037tt.jpg","null","mooney2","image-keyboard-response","186","508296","0.0-6.0-5.25","2212883","co38347","norming","","","","","","",""
"2044.7449999628589","","","post_reveal_questions","survey-likert","187","510343","0.0-6.0-6.25","2212883","co38347","norming","","","{""aha"":5}","[0]","../img/tt/1037tt.jpg","",""
"null","<div style=""font-size:60px;""> </div>","null","fixation","html-keyboard-response","188","510546","0.0-6.0-0.26","2212883","co38347","norming","","","","","","",""
"null","../img/tt/296tt.jpg","null","mooney1","image-keyboard-response","189","513549","0.0-6.0-1.26","2212883","co38347","norming","","","","","","",""
"3902.330000011716","","","post_mooney1_questions","survey-likert","190","517455","0.0-6.0-2.26","2212883","co38347","norming","","","{""curiosity"":5,""confidence"":0}","[0,1]","../img/tt/296tt.jpg","",""
"965.7250000163913","","","recognition","survey-text","191","518430","0.0-6.0-3.26","2212883","co38347","norming","","","{""guess"":""""}","","../img/tt/296tt.jpg","",""
"null","../img/gs/296gs.jpg","null","reveal","image-keyboard-response","192","520434","0.0-6.0-4.26","2212883","co38347","norming","","","","","","",""
"null","../img/tt/296tt.jpg","null","mooney2","image-keyboard-response","193","522438","0.0-6.0-5.26","2212883","co38347","norming","","","","","","",""
"2396.9100000103936","","","post_reveal_questions","survey-likert","194","524838","0.0-6.0-6.26","2212883","co38347","norming","","","{""aha"":5}","[0]","../img/tt/296tt.jpg","",""
"null","<div style=""font-size:60px;""> </div>","null","fixation","html-keyboard-response","195","525041","0.0-6.0-0.27","2212883","co38347","norming","","","","","","",""
"null","../img/tt/081tt.jpg","null","mooney1","image-keyboard-response","196","528047","0.0-6.0-1.27","2212883","co38347","norming","","","","","","",""
"3076.1799999745563","","","post_mooney1_questions","survey-likert","197","531127","0.0-6.0-2.27","2212883","co38347","norming","","","{""curiosity"":5,""confidence"":0}","[0,1]","../img/tt/081tt.jpg","",""
"758.3900000317954","","","recognition","survey-text","198","531908","0.0-6.0-3.27","2212883","co38347","norming","","","{""guess"":""""}","","../img/tt/081tt.jpg","",""
"null","../img/gs/081gs.jpg","null","reveal","image-keyboard-response","199","533913","0.0-6.0-4.27","2212883","co38347","norming","","","","","","",""
"null","../img/tt/081tt.jpg","null","mooney2","image-keyboard-response","200","535916","0.0-6.0-5.27","2212883","co38347","norming","","","","","","",""
"1964.0650000073947","","","post_reveal_questions","survey-likert","201","537884","0.0-6.0-6.27","2212883","co38347","norming","","","{""aha"":5}","[0]","../img/tt/081tt.jpg","",""
"null","<div style=""font-size:60px;""> </div>","null","fixation","html-keyboard-response","202","538087","0.0-6.0-0.28","2212883","co38347","norming","","","","","","",""
"null","../img/tt/1255tt.jpg","null","mooney1","image-keyboard-response","203","541090","0.0-6.0-1.28","2212883","co38347","norming","","","","","","",""
"2765.4200000106357","","","post_mooney1_questions","survey-likert","204","543860","0.0-6.0-2.28","2212883","co38347","norming","","","{""curiosity"":4,""confidence"":1}","[0,1]","../img/tt/1255tt.jpg","",""
"3064.4749999628402","","","recognition","survey-text","205","546951","0.0-6.0-3.28","2212883","co38347","norming","","","{""guess"":""stone""}","","../img/tt/1255tt.jpg","",""
"null","../img/gs/1255gs.jpg","null","reveal","image-keyboard-response","206","548958","0.0-6.0-4.28","2212883","co38347","norming","","","","","","",""
"null","../img/tt/1255tt.jpg","null","mooney2","image-keyboard-response","207","550962","0.0-6.0-5.28","2212883","co38347","norming","","","","","","",""
"1453.2749999780208","","","post_reveal_questions","survey-likert","208","552418","0.0-6.0-6.28","2212883","co38347","norming","","","{""aha"":5}","[0]","../img/tt/1255tt.jpg","",""
"null","<div style=""font-size:60px;""> </div>","null","fixation","html-keyboard-response","209","552625","0.0-6.0-0.29","2212883","co38347","norming","","","","","","",""
"null","../img/tt/1191tt.jpg","null","mooney1","image-keyboard-response","210","555628","0.0-6.0-1.29","2212883","co38347","norming","","","","","","",""
"2880.1749999984168","","","post_mooney1_questions","survey-likert","211","558515","0.0-6.0-2.29","2212883","co38347","norming","","","{""curiosity"":4,""confidence"":2}","[0,1]","../img/tt/1191tt.jpg","",""
"3185.6649999972433","","","recognition","survey-text","212","561724","0.0-6.0-3.29","2212883","co38347","norming","","","{""guess"":""dance""}","","../img/tt/1191tt.jpg","",""
"null","../img/gs/1191gs.jpg","null","reveal","image-keyboard-response","213","563728","0.0-6.0-4.29","2212883","co38347","norming","","","","","","",""
"null","../img/tt/1191tt.jpg","null","mooney2","image-keyboard-response","214","565732","0.0-6.0-5.29","2212883","co38347","norming","","","","","","",""
"89949.27500002086","","","post_reveal_questions","survey-likert","215","655685","0.0-6.0-6.29","2212883","co38347","norming","","","{""aha"":4}","[0]","../img/tt/1191tt.jpg","",""
"null","<div style=""font-size:60px;""> </div>","null","fixation","html-keyboard-response","216","655890","0.0-6.0-0.30","2212883","co38347","norming","","","","","","",""
"null","../img/tt/1142tt.jpg","null","mooney1","image-keyboard-response","217","658894","0.0-6.0-1.30","2212883","co38347","norming","","","","","","",""
"4690.360000007786","","","post_mooney1_questions","survey-likert","218","663588","0.0-6.0-2.30","2212883","co38347","norming","","","{""curiosity"":2,""confidence"":6}","[0,1]","../img/tt/1142tt.jpg","",""
"2458.6850000196137","","","recognition","survey-text","219","666060","0.0-6.0-3.30","2212883","co38347","norming","","","{""guess"":""basketball""}","","../img/tt/1142tt.jpg","",""
"null","../img/gs/1142gs.jpg","null","reveal","image-keyboard-response","220","668067","0.0-6.0-4.30","2212883","co38347","norming","","","","","","",""
"null","../img/tt/1142tt.jpg","null","mooney2","image-keyboard-response","221","670069","0.0-6.0-5.30","2212883","co38347","norming","","","","","","",""
"2025.9500000393018","","","post_reveal_questions","survey-likert","222","672098","0.0-6.0-6.30","2212883","co38347","norming","","","{""aha"":4}","[0]","../img/tt/1142tt.jpg","",""
"null","<div style=""font-size:60px;""> </div>","null","fixation","html-keyboard-response","223","672302","0.0-6.0-0.31","2212883","co38347","norming","","","","","","",""
"null","../img/tt/123tt.jpg","null","mooney1","image-keyboard-response","224","675306","0.0-6.0-1.31","2212883","co38347","norming","","","","","","",""
"2890.5699999886565","","","post_mooney1_questions","survey-likert","225","678201","0.0-6.0-2.31","2212883","co38347","norming","","","{""curiosity"":2,""confidence"":4}","[0,1]","../img/tt/123tt.jpg","",""
"1951.0949999676086","","","recognition","survey-text","226","680164","0.0-6.0-3.31","2212883","co38347","norming","","","{""guess"":""theatre""}","","../img/tt/123tt.jpg","",""
"null","../img/gs/123gs.jpg","null","reveal","image-keyboard-response","227","682170","0.0-6.0-4.31","2212883","co38347","norming","","","","","","",""
"null","../img/tt/123tt.jpg","null","mooney2","image-keyboard-response","228","684171","0.0-6.0-5.31","2212883","co38347","norming","","","","","","",""
"2609.455000027083","","","post_reveal_questions","survey-likert","229","686784","0.0-6.0-6.31","2212883","co38347","norming","","","{""aha"":5}","[0]","../img/tt/123tt.jpg","",""
"null","<div style=""font-size:60px;""> </div>","null","fixation","html-keyboard-response","230","686988","0.0-6.0-0.32","2212883","co38347","norming","","","","","","",""
"null","../img/tt/118tt.jpg","null","mooney1","image-keyboard-response","231","689993","0.0-6.0-1.32","2212883","co38347","norming","","","","","","",""
"3179.2399999685585","","","post_mooney1_questions","survey-likert","232","693176","0.0-6.0-2.32","2212883","co38347","norming","","","{""curiosity"":5,""confidence"":1}","[0,1]","../img/tt/118tt.jpg","",""
"615.5749999452382","","","recognition","survey-text","233","693815","0.0-6.0-3.32","2212883","co38347","norming","","","{""guess"":""""}","","../img/tt/118tt.jpg","",""
"null","../img/gs/118gs.jpg","null","reveal","image-keyboard-response","234","695819","0.0-6.0-4.32","2212883","co38347","norming","","","","","","",""
"null","../img/tt/118tt.jpg","null","mooney2","image-keyboard-response","235","697821","0.0-6.0-5.32","2212883","co38347","norming","","","","","","",""
"4726.144999964163","","","post_reveal_questions","survey-likert","236","702551","0.0-6.0-6.32","2212883","co38347","norming","","","{""aha"":4}","[0]","../img/tt/118tt.jpg","",""
"null","<div style=""font-size:60px;""> </div>","null","fixation","html-keyboard-response","237","702755","0.0-6.0-0.33","2212883","co38347","norming","","","","","","",""
"null","../img/tt/1260tt.jpg","null","mooney1","image-keyboard-response","238","705758","0.0-6.0-1.33","2212883","co38347","norming","","","","","","",""
"4257.47999997111","","","post_mooney1_questions","survey-likert","239","710023","0.0-6.0-2.33","2212883","co38347","norming","","","{""curiosity"":2,""confidence"":5}","[0,1]","../img/tt/1260tt.jpg","",""
"1782.1650000405498","","","recognition","survey-text","240","711831","0.0-6.0-3.33","2212883","co38347","norming","","","{""guess"":""mice""}","","../img/tt/1260tt.jpg","",""
"null","../img/gs/1260gs.jpg","null","reveal","image-keyboard-response","241","713840","0.0-6.0-4.33","2212883","co38347","norming","","","","","","",""
"null","../img/tt/1260tt.jpg","null","mooney2","image-keyboard-response","242","715844","0.0-6.0-5.33","2212883","co38347","norming","","","","","","",""
"4212.989999970887","","","post_reveal_questions","survey-likert","243","720059","0.0-6.0-6.33","2212883","co38347","norming","","","{""aha"":4}","[0]","../img/tt/1260tt.jpg","",""
"null","<div style=""font-size:60px;""> </div>","null","fixation","html-keyboard-response","244","720263","0.0-6.0-0.34","2212883","co38347","norming","","","","","","",""
"null","../img/tt/126tt.jpg","null","mooney1","image-keyboard-response","245","723266","0.0-6.0-1.34","2212883","co38347","norming","","","","","","",""
"2582.2599999955855","","","post_mooney1_questions","survey-likert","246","725851","0.0-6.0-2.34","2212883","co38347","norming","","","{""curiosity"":1,""confidence"":6}","[0,1]","../img/tt/126tt.jpg","",""
"1410.5299999937415","","","recognition","survey-text","247","727286","0.0-6.0-3.34","2212883","co38347","norming","","","{""guess"":""cow""}","","../img/tt/126tt.jpg","",""
"null","../img/gs/126gs.jpg","null","reveal","image-keyboard-response","248","729292","0.0-6.0-4.34","2212883","co38347","norming","","","","","","",""
"null","../img/tt/126tt.jpg","null","mooney2","image-keyboard-response","249","731295","0.0-6.0-5.34","2212883","co38347","norming","","","","","","",""
"5350.425000011455","","","post_reveal_questions","survey-likert","250","736649","0.0-6.0-6.34","2212883","co38347","norming","","","{""aha"":1}","[0]","../img/tt/126tt.jpg","",""
"null","<div style=""font-size:60px;""> </div>","null","fixation","html-keyboard-response","251","736852","0.0-6.0-0.35","2212883","co38347","norming","","","","","","",""
"null","../img/tt/1236tt.jpg","null","mooney1","image-keyboard-response","252","739857","0.0-6.0-1.35","2212883","co38347","norming","","","","","","",""
"3764.560000039637","","","post_mooney1_questions","survey-likert","253","743625","0.0-6.0-2.35","2212883","co38347","norming","","","{""curiosity"":6,""confidence"":0}","[0,1]","../img/tt/1236tt.jpg","",""
"892.6199999987148","","","recognition","survey-text","254","744528","0.0-6.0-3.35","2212883","co38347","norming","","","{""guess"":""""}","","../img/tt/1236tt.jpg","",""
"null","../img/gs/1236gs.jpg","null","reveal","image-keyboard-response","255","746532","0.0-6.0-4.35","2212883","co38347","norming","","","","","","",""
"null","../img/tt/1236tt.jpg","null","mooney2","image-keyboard-response","256","748536","0.0-6.0-5.35","2212883","co38347","norming","","","","","","",""
"1980.5150000029244","","","post_reveal_questions","survey-likert","257","750519","0.0-6.0-6.35","2212883","co38347","norming","","","{""aha"":6}","[0]","../img/tt/1236tt.jpg","",""
"null","<div style=""font-size:60px;""> </div>","null","fixation","html-keyboard-response","258","750724","0.0-6.0-0.36","2212883","co38347","norming","","","","","","",""
"null","../img/tt/1053tt.jpg","null","mooney1","image-keyboard-response","259","753727","0.0-6.0-1.36","2212883","co38347","norming","","","","","","",""
"4371.335000032559","","","post_mooney1_questions","survey-likert","260","758103","0.0-6.0-2.36","2212883","co38347","norming","","","{""curiosity"":6,""confidence"":2}","[0,1]","../img/tt/1053tt.jpg","",""
"4562.12499999674","","","recognition","survey-text","261","762689","0.0-6.0-3.36","2212883","co38347","norming","","","{""guess"":""farmer""}","","../img/tt/1053tt.jpg","",""
"null","../img/gs/1053gs.jpg","null","reveal","image-keyboard-response","262","764694","0.0-6.0-4.36","2212883","co38347","norming","","","","","","",""
"null","../img/tt/1053tt.jpg","null","mooney2","image-keyboard-response","263","766699","0.0-6.0-5.36","2212883","co38347","norming","","","","","","",""
"1609.0349999722093","","","post_reveal_questions","survey-likert","264","768310","0.0-6.0-6.36","2212883","co38347","norming","","","{""aha"":5}","[0]","../img/tt/1053tt.jpg","",""
"null","<div style=""font-size:60px;""> </div>","null","fixation","html-keyboard-response","265","768515","0.0-6.0-0.37","2212883","co38347","norming","","","","","","",""
"null","../img/tt/1279tt.jpg","null","mooney1","image-keyboard-response","266","771518","0.0-6.0-1.37","2212883","co38347","norming","","","","","","",""
"3216.899999999441","","","post_mooney1_questions","survey-likert","267","774740","0.0-6.0-2.37","2212883","co38347","norming","","","{""curiosity"":6,""confidence"":0}","[0,1]","../img/tt/1279tt.jpg","",""
"700.8100000093691","","","recognition","survey-text","268","775452","0.0-6.0-3.37","2212883","co38347","norming","","","{""guess"":""""}","","../img/tt/1279tt.jpg","",""
"null","../img/gs/1279gs.jpg","null","reveal","image-keyboard-response","269","777455","0.0-6.0-4.37","2212883","co38347","norming","","","","","","",""
"null","../img/tt/1279tt.jpg","null","mooney2","image-keyboard-response","270","779459","0.0-6.0-5.37","2212883","co38347","norming","","","","","","",""
"5390.374999959022","","","post_reveal_questions","survey-likert","271","784852","0.0-6.0-6.37","2212883","co38347","norming","","","{""aha"":5}","[0]","../img/tt/1279tt.jpg","",""
"null","<div style=""font-size:60px;""> </div>","null","fixation","html-keyboard-response","272","785056","0.0-6.0-0.38","2212883","co38347","norming","","","","","","",""
"null","../img/tt/1044tt.jpg","null","mooney1","image-keyboard-response","273","788060","0.0-6.0-1.38","2212883","co38347","norming","","","","","","",""
"3698.8649999839254","","","post_mooney1_questions","survey-likert","274","791763","0.0-6.0-2.38","2212883","co38347","norming","","","{""curiosity"":5,""confidence"":0}","[0,1]","../img/tt/1044tt.jpg","",""
"672.0900000073016","","","recognition","survey-text","275","792458","0.0-6.0-3.38","2212883","co38347","norming","","","{""guess"":""""}","","../img/tt/1044tt.jpg","",""
"null","../img/gs/1044gs.jpg","null","reveal","image-keyboard-response","276","794462","0.0-6.0-4.38","2212883","co38347","norming","","","","","","",""
"null","../img/tt/1044tt.jpg","null","mooney2","image-keyboard-response","277","796465","0.0-6.0-5.38","2212883","co38347","norming","","","","","","",""
"7364.535000000615","","","post_reveal_questions","survey-likert","278","803833","0.0-6.0-6.38","2212883","co38347","norming","","","{""aha"":5}","[0]","../img/tt/1044tt.jpg","",""
"null","<div style=""font-size:60px;""> </div>","null","fixation","html-keyboard-response","279","804039","0.0-6.0-0.39","2212883","co38347","norming","","","","","","",""
"null","../img/tt/318tt.jpg","null","mooney1","image-keyboard-response","280","807046","0.0-6.0-1.39","2212883","co38347","norming","","","","","","",""
"2654.8450000118464","","","post_mooney1_questions","survey-likert","281","809706","0.0-6.0-2.39","2212883","co38347","norming","","","{""curiosity"":1,""confidence"":5}","[0,1]","../img/tt/318tt.jpg","",""
"1819.9899999890476","","","recognition","survey-text","282","811551","0.0-6.0-3.39","2212883","co38347","norming","","","{""guess"":""car""}","","../img/tt/318tt.jpg","",""
"null","../img/gs/318gs.jpg","null","reveal","image-keyboard-response","283","813554","0.0-6.0-4.39","2212883","co38347","norming","","","","","","",""
"null","../img/tt/318tt.jpg","null","mooney2","image-keyboard-response","284","815557","0.0-6.0-5.39","2212883","co38347","norming","","","","","","",""
"1469.9700000346638","","","post_reveal_questions","survey-likert","285","817032","0.0-6.0-6.39","2212883","co38347","norming","","","{""aha"":0}","[0]","../img/tt/318tt.jpg","",""
"null","<div style=""font-size:60px;""> </div>","null","fixation","html-keyboard-response","286","817235","0.0-6.0-0.40","2212883","co38347","norming","","","","","","",""
"null","../img/tt/580tt.jpg","null","mooney1","image-keyboard-response","287","820238","0.0-6.0-1.40","2212883","co38347","norming","","","","","","",""
"3349.5750000001863","","","post_mooney1_questions","survey-likert","288","823591","0.0-6.0-2.40","2212883","co38347","norming","","","{""curiosity"":5,""confidence"":0}","[0,1]","../img/tt/580tt.jpg","",""
"460.8599999919534","","","recognition","survey-text","289","824078","0.0-6.0-3.40","2212883","co38347","norming","","","{""guess"":""""}","","../img/tt/580tt.jpg","",""
"null","../img/gs/580gs.jpg","null","reveal","image-keyboard-response","290","826081","0.0-6.0-4.40","2212883","co38347","norming","","","","","","",""
"null","../img/tt/580tt.jpg","null","mooney2","image-keyboard-response","291","828086","0.0-6.0-5.40","2212883","co38347","norming","","","","","","",""
"3331.6300000296906","","","post_reveal_questions","survey-likert","292","831421","0.0-6.0-6.40","2212883","co38347","norming","","","{""aha"":5}","[0]","../img/tt/580tt.jpg","",""
"null","<div style=""font-size:60px;""> </div>","null","fixation","html-keyboard-response","293","831627","0.0-6.0-0.41","2212883","co38347","norming","","","","","","",""
"null","../img/tt/222tt.jpg","null","mooney1","image-keyboard-response","294","834629","0.0-6.0-1.41","2212883","co38347","norming","","","","","","",""
"3172.705000033602","","","post_mooney1_questions","survey-likert","295","837805","0.0-6.0-2.41","2212883","co38347","norming","","","{""curiosity"":6,""confidence"":0}","[0,1]","../img/tt/222tt.jpg","",""
"595.3350000199862","","","recognition","survey-text","296","838411","0.0-6.0-3.41","2212883","co38347","norming","","","{""guess"":""""}","","../img/tt/222tt.jpg","",""
"null","../img/gs/222gs.jpg","null","reveal","image-keyboard-response","297","840417","0.0-6.0-4.41","2212883","co38347","norming","","","","","","",""
"null","../img/tt/222tt.jpg","null","mooney2","image-keyboard-response","298","842419","0.0-6.0-5.41","2212883","co38347","norming","","","","","","",""
"1636.0599999898113","","","post_reveal_questions","survey-likert","299","844058","0.0-6.0-6.41","2212883","co38347","norming","","","{""aha"":5}","[0]","../img/tt/222tt.jpg","",""
"null","<div style=""font-size:60px;""> </div>","null","fixation","html-keyboard-response","300","844261","0.0-6.0-0.42","2212883","co38347","norming","","","","","","",""
"null","../img/tt/603tt.jpg","null","mooney1","image-keyboard-response","301","847269","0.0-6.0-1.42","2212883","co38347","norming","","","","","","",""
"2890.3949999948964","","","post_mooney1_questions","survey-likert","302","850164","0.0-6.0-2.42","2212883","co38347","norming","","","{""curiosity"":6,""confidence"":0}","[0,1]","../img/tt/603tt.jpg","",""
"614.415000018198","","","recognition","survey-text","303","850786","0.0-6.0-3.42","2212883","co38347","norming","","","{""guess"":""""}","","../img/tt/603tt.jpg","",""
"null","../img/gs/603gs.jpg","null","reveal","image-keyboard-response","304","852788","0.0-6.0-4.42","2212883","co38347","norming","","","","","","",""
"null","../img/tt/603tt.jpg","null","mooney2","image-keyboard-response","305","854794","0.0-6.0-5.42","2212883","co38347","norming","","","","","","",""
"1956.670000043232","","","post_reveal_questions","survey-likert","306","856754","0.0-6.0-6.42","2212883","co38347","norming","","","{""aha"":5}","[0]","../img/tt/603tt.jpg","",""
"null","<div style=""font-size:60px;""> </div>","null","fixation","html-keyboard-response","307","856958","0.0-6.0-0.43","2212883","co38347","norming","","","","","","",""
"null","../img/tt/1061tt.jpg","null","mooney1","image-keyboard-response","308","859972","0.0-6.0-1.43","2212883","co38347","norming","","","","","","",""
"3649.9150000163354","","","post_mooney1_questions","survey-likert","309","863625","0.0-6.0-2.43","2212883","co38347","norming","","","{""curiosity"":4,""confidence"":4}","[0,1]","../img/tt/1061tt.jpg","",""
"1995.7949999952689","","","recognition","survey-text","310","865632","0.0-6.0-3.43","2212883","co38347","norming","","","{""guess"":""dancing""}","","../img/tt/1061tt.jpg","",""
"null","../img/gs/1061gs.jpg","null","reveal","image-keyboard-response","311","867639","0.0-6.0-4.43","2212883","co38347","norming","","","","","","",""
"null","../img/tt/1061tt.jpg","null","mooney2","image-keyboard-response","312","869642","0.0-6.0-5.43","2212883","co38347","norming","","","","","","",""
"1945.7999999867752","","","post_reveal_questions","survey-likert","313","871591","0.0-6.0-6.43","2212883","co38347","norming","","","{""aha"":4}","[0]","../img/tt/1061tt.jpg","",""
"null","<div style=""font-size:60px;""> </div>","null","fixation","html-keyboard-response","314","871796","0.0-6.0-0.44","2212883","co38347","norming","","","","","","",""
"null","../img/tt/105tt.jpg","null","mooney1","image-keyboard-response","315","874800","0.0-6.0-1.44","2212883","co38347","norming","","","","","","",""
"4226.399999985006","","","post_mooney1_questions","survey-likert","316","879031","0.0-6.0-2.44","2212883","co38347","norming","","","{""curiosity"":2,""confidence"":2}","[0,1]","../img/tt/105tt.jpg","",""
"2454.1299999691546","","","recognition","survey-text","317","881496","0.0-6.0-3.44","2212883","co38347","norming","","","{""guess"":""shoes""}","","../img/tt/105tt.jpg","",""
"null","../img/gs/105gs.jpg","null","reveal","image-keyboard-response","318","883503","0.0-6.0-4.44","2212883","co38347","norming","","","","","","",""
"null","../img/tt/105tt.jpg","null","mooney2","image-keyboard-response","319","885506","0.0-6.0-5.44","2212883","co38347","norming","","","","","","",""
"1912.1999999624677","","","post_reveal_questions","survey-likert","320","887421","0.0-6.0-6.44","2212883","co38347","norming","","","{""aha"":4}","[0]","../img/tt/105tt.jpg","",""
"null","<div style=""font-size:60px;""> </div>","null","fixation","html-keyboard-response","321","887625","0.0-6.0-0.45","2212883","co38347","norming","","","","","","",""
"null","../img/tt/013tt.jpg","null","mooney1","image-keyboard-response","322","890631","0.0-6.0-1.45","2212883","co38347","norming","","","","","","",""
"4128.0550000374205","","","post_mooney1_questions","survey-likert","323","894765","0.0-6.0-2.45","2212883","co38347","norming","","","{""curiosity"":6,""confidence"":0}","[0,1]","../img/tt/013tt.jpg","",""
"628.3049999619834","","","recognition","survey-text","324","895404","0.0-6.0-3.45","2212883","co38347","norming","","","{""guess"":""""}","","../img/tt/013tt.jpg","",""
"null","../img/gs/013gs.jpg","null","reveal","image-keyboard-response","325","897408","0.0-6.0-4.45","2212883","co38347","norming","","","","","","",""
"null","../img/tt/013tt.jpg","null","mooney2","image-keyboard-response","326","899413","0.0-6.0-5.45","2212883","co38347","norming","","","","","","",""
"6817.335000028834","","","post_reveal_questions","survey-likert","327","906234","0.0-6.0-6.45","2212883","co38347","norming","","","{""aha"":5}","[0]","../img/tt/013tt.jpg","",""
"null","<div style=""font-size:60px;""> </div>","null","fixation","html-keyboard-response","328","906440","0.0-6.0-0.46","2212883","co38347","norming","","","","","","",""
"null","../img/tt/1211tt.jpg","null","mooney1","image-keyboard-response","329","909445","0.0-6.0-1.46","2212883","co38347","norming","","","","","","",""
"5129.320000007283","","","post_mooney1_questions","survey-likert","330","914578","0.0-6.0-2.46","2212883","co38347","norming","","","{""curiosity"":6,""confidence"":0}","[0,1]","../img/tt/1211tt.jpg","",""
"597.974999982398","","","recognition","survey-text","331","915185","0.0-6.0-3.46","2212883","co38347","norming","","","{""guess"":""""}","","../img/tt/1211tt.jpg","",""
"null","../img/gs/1211gs.jpg","null","reveal","image-keyboard-response","332","917190","0.0-6.0-4.46","2212883","co38347","norming","","","","","","",""
"null","../img/tt/1211tt.jpg","null","mooney2","image-keyboard-response","333","919193","0.0-6.0-5.46","2212883","co38347","norming","","","","","","",""
"10578.589999990072","","","post_reveal_questions","survey-likert","334","929775","0.0-6.0-6.46","2212883","co38347","norming","","","{""aha"":5}","[0]","../img/tt/1211tt.jpg","",""
"null","<div style=""font-size:60px;""> </div>","null","fixation","html-keyboard-response","335","929978","0.0-6.0-0.47","2212883","co38347","norming","","","","","","",""
"null","../img/tt/108tt.jpg","null","mooney1","image-keyboard-response","336","932983","0.0-6.0-1.47","2212883","co38347","norming","","","","","","",""
"3316.319999983534","","","post_mooney1_questions","survey-likert","337","936303","0.0-6.0-2.47","2212883","co38347","norming","","","{""curiosity"":5,""confidence"":0}","[0,1]","../img/tt/108tt.jpg","",""
"718.8500000047497","","","recognition","survey-text","338","937038","0.0-6.0-3.47","2212883","co38347","norming","","","{""guess"":""""}","","../img/tt/108tt.jpg","",""
"null","../img/gs/108gs.jpg","null","reveal","image-keyboard-response","339","939042","0.0-6.0-4.47","2212883","co38347","norming","","","","","","",""
"null","../img/tt/108tt.jpg","null","mooney2","image-keyboard-response","340","941046","0.0-6.0-5.47","2212883","co38347","norming","","","","","","",""
"7551.93999997573","","","post_reveal_questions","survey-likert","341","948605","0.0-6.0-6.47","2212883","co38347","norming","","","{""aha"":4}","[0]","../img/tt/108tt.jpg","",""
"null","<div style=""font-size:60px;""> </div>","null","fixation","html-keyboard-response","342","948808","0.0-6.0-0.48","2212883","co38347","norming","","","","","","",""
"null","../img/tt/1125tt.jpg","null","mooney1","image-keyboard-response","343","951811","0.0-6.0-1.48","2212883","co38347","norming","","","","","","",""
"5988.840000005439","","","post_mooney1_questions","survey-likert","344","957805","0.0-6.0-2.48","2212883","co38347","norming","","","{""curiosity"":5,""confidence"":0}","[0,1]","../img/tt/1125tt.jpg","",""
"614.995000010822","","","recognition","survey-text","345","958427","0.0-6.0-3.48","2212883","co38347","norming","","","{""guess"":""""}","","../img/tt/1125tt.jpg","",""
"null","../img/gs/1125gs.jpg","null","reveal","image-keyboard-response","346","960430","0.0-6.0-4.48","2212883","co38347","norming","","","","","","",""
"null","../img/tt/1125tt.jpg","null","mooney2","image-keyboard-response","347","962434","0.0-6.0-5.48","2212883","co38347","norming","","","","","","",""
"9389.7500000312","","","post_reveal_questions","survey-likert","348","971827","0.0-6.0-6.48","2212883","co38347","norming","","","{""aha"":5}","[0]","../img/tt/1125tt.jpg","",""
"null","<div style=""font-size:60px;""> </div>","null","fixation","html-keyboard-response","349","972031","0.0-6.0-0.49","2212883","co38347","norming","","","","","","",""
"null","../img/tt/1251tt.jpg","null","mooney1","image-keyboard-response","350","975035","0.0-6.0-1.49","2212883","co38347","norming","","","","","","",""
"4281.359999964479","","","post_mooney1_questions","survey-likert","351","979323","0.0-6.0-2.49","2212883","co38347","norming","","","{""curiosity"":2,""confidence"":6}","[0,1]","../img/tt/1251tt.jpg","",""
"1628.7000000011176","","","recognition","survey-text","352","980961","0.0-6.0-3.49","2212883","co38347","norming","","","{""guess"":""bear""}","","../img/tt/1251tt.jpg","",""
"null","../img/gs/1251gs.jpg","null","reveal","image-keyboard-response","353","982968","0.0-6.0-4.49","2212883","co38347","norming","","","","","","",""
"null","../img/tt/1251tt.jpg","null","mooney2","image-keyboard-response","354","984970","0.0-6.0-5.49","2212883","co38347","norming","","","","","","",""
"2714.2950000124983","","","post_reveal_questions","survey-likert","355","987688","0.0-6.0-6.49","2212883","co38347","norming","","","{""aha"":1}","[0]","../img/tt/1251tt.jpg","",""
"null","<div style=""font-size:60px;""> </div>","null","fixation","html-keyboard-response","356","987892","0.0-6.0-0.50","2212883","co38347","norming","","","","","","",""
"null","../img/tt/1181tt.jpg","null","mooney1","image-keyboard-response","357","990894","0.0-6.0-1.50","2212883","co38347","norming","","","","","","",""
"5669.615000020713","","","post_mooney1_questions","survey-likert","358","996567","0.0-6.0-2.50","2212883","co38347","norming","","","{""curiosity"":2,""confidence"":5}","[0,1]","../img/tt/1181tt.jpg","",""
"2031.7599999834783","","","recognition","survey-text","359","998625","0.0-6.0-3.50","2212883","co38347","norming","","","{""guess"":""crowd""}","","../img/tt/1181tt.jpg","",""
"null","../img/gs/1181gs.jpg","null","reveal","image-keyboard-response","360","1000630","0.0-6.0-4.50","2212883","co38347","norming","","","","","","",""
"null","../img/tt/1181tt.jpg","null","mooney2","image-keyboard-response","361","1002634","0.0-6.0-5.50","2212883","co38347","norming","","","","","","",""
"2889.565000019502","","","post_reveal_questions","survey-likert","362","1005526","0.0-6.0-6.50","2212883","co38347","norming","","","{""aha"":4}","[0]","../img/tt/1181tt.jpg","",""
"null","<div style=""font-size:60px;""> </div>","null","fixation","html-keyboard-response","363","1005731","0.0-6.0-0.51","2212883","co38347","norming","","","","","","",""
"null","../img/tt/1027tt.jpg","null","mooney1","image-keyboard-response","364","1008735","0.0-6.0-1.51","2212883","co38347","norming","","","","","","",""
"3666.5199999697506","","","post_mooney1_questions","survey-likert","365","1012405","0.0-6.0-2.51","2212883","co38347","norming","","","{""curiosity"":4,""confidence"":2}","[0,1]","../img/tt/1027tt.jpg","",""
"3945.17999998061","","","recognition","survey-text","366","1016363","0.0-6.0-3.51","2212883","co38347","norming","","","{""guess"":""animals""}","","../img/tt/1027tt.jpg","",""
"null","../img/gs/1027gs.jpg","null","reveal","image-keyboard-response","367","1018368","0.0-6.0-4.51","2212883","co38347","norming","","","","","","",""
"null","../img/tt/1027tt.jpg","null","mooney2","image-keyboard-response","368","1020372","0.0-6.0-5.51","2212883","co38347","norming","","","","","","",""
"3996.1650000186637","","","post_reveal_questions","survey-likert","369","1024370","0.0-6.0-6.51","2212883","co38347","norming","","","{""aha"":5}","[0]","../img/tt/1027tt.jpg","",""
"null","<div style=""font-size:60px;""> </div>","null","fixation","html-keyboard-response","370","1024574","0.0-6.0-0.52","2212883","co38347","norming","","","","","","",""
"null","../img/tt/1262tt.jpg","null","mooney1","image-keyboard-response","371","1027578","0.0-6.0-1.52","2212883","co38347","norming","","","","","","",""
"5116.575000050943","","","post_mooney1_questions","survey-likert","372","1032698","0.0-6.0-2.52","2212883","co38347","norming","","","{""curiosity"":4,""confidence"":2}","[0,1]","../img/tt/1262tt.jpg","",""
"1729.1599999880418","","","recognition","survey-text","373","1034440","0.0-6.0-3.52","2212883","co38347","norming","","","{""guess"":""rat""}","","../img/tt/1262tt.jpg","",""
"null","../img/gs/1262gs.jpg","null","reveal","image-keyboard-response","374","1036446","0.0-6.0-4.52","2212883","co38347","norming","","","","","","",""
"null","../img/tt/1262tt.jpg","null","mooney2","image-keyboard-response","375","1038449","0.0-6.0-5.52","2212883","co38347","norming","","","","","","",""
"3899.0349999512546","","","post_reveal_questions","survey-likert","376","1042354","0.0-6.0-6.52","2212883","co38347","norming","","","{""aha"":3}","[0]","../img/tt/1262tt.jpg","",""
"null","<div style=""font-size:60px;""> </div>","null","fixation","html-keyboard-response","377","1042558","0.0-6.0-0.53","2212883","co38347","norming","","","","","","",""
"null","../img/tt/1243tt.jpg","null","mooney1","image-keyboard-response","378","1045560","0.0-6.0-1.53","2212883","co38347","norming","","","","","","",""
"5020.045000012033","","","post_mooney1_questions","survey-likert","379","1050583","0.0-6.0-2.53","2212883","co38347","norming","","","{""curiosity"":2,""confidence"":3}","[0,1]","../img/tt/1243tt.jpg","",""
"1840.5299999867566","","","recognition","survey-text","380","1052437","0.0-6.0-3.53","2212883","co38347","norming","","","{""guess"":""zoo""}","","../img/tt/1243tt.jpg","",""
"null","../img/gs/1243gs.jpg","null","reveal","image-keyboard-response","381","1054445","0.0-6.0-4.53","2212883","co38347","norming","","","","","","",""
"null","../img/tt/1243tt.jpg","null","mooney2","image-keyboard-response","382","1056448","0.0-6.0-5.53","2212883","co38347","norming","","","","","","",""
"7465.204999956768","","","post_reveal_questions","survey-likert","383","1063919","0.0-6.0-6.53","2212883","co38347","norming","","","{""aha"":3}","[0]","../img/tt/1243tt.jpg","",""
"null","<div style=""font-size:60px;""> </div>","null","fixation","html-keyboard-response","384","1064124","0.0-6.0-0.54","2212883","co38347","norming","","","","","","",""
"null","../img/tt/1189tt.jpg","null","mooney1","image-keyboard-response","385","1067130","0.0-6.0-1.54","2212883","co38347","norming","","","","","","",""
"4840.855000016745","","","post_mooney1_questions","survey-likert","386","1071973","0.0-6.0-2.54","2212883","co38347","norming","","","{""curiosity"":4,""confidence"":1}","[0,1]","../img/tt/1189tt.jpg","",""
"533.0749999848194","","","recognition","survey-text","387","1072516","0.0-6.0-3.54","2212883","co38347","norming","","","{""guess"":""""}","","../img/tt/1189tt.jpg","",""
"null","../img/gs/1189gs.jpg","null","reveal","image-keyboard-response","388","1074520","0.0-6.0-4.54","2212883","co38347","norming","","","","","","",""
"null","../img/tt/1189tt.jpg","null","mooney2","image-keyboard-response","389","1076523","0.0-6.0-5.54","2212883","co38347","norming","","","","","","",""
"9188.130000024103","","","post_reveal_questions","survey-likert","390","1085714","0.0-6.0-6.54","2212883","co38347","norming","","","{""aha"":2}","[0]","../img/tt/1189tt.jpg","",""
"null","<div style=""font-size:60px;""> </div>","null","fixation","html-keyboard-response","391","1085920","0.0-6.0-0.55","2212883","co38347","norming","","","","","","",""
"null","../img/tt/515tt.jpg","null","mooney1","image-keyboard-response","392","1088924","0.0-6.0-1.55","2212883","co38347","norming","","","","","","",""
"2897.9200000176206","","","post_mooney1_questions","survey-likert","393","1091826","0.0-6.0-2.55","2212883","co38347","norming","","","{""curiosity"":5,""confidence"":0}","[0,1]","../img/tt/515tt.jpg","",""
"927.0050000050105","","","recognition","survey-text","394","1092762","0.0-6.0-3.55","2212883","co38347","norming","","","{""guess"":""""}","","../img/tt/515tt.jpg","",""
"null","../img/gs/515gs.jpg","null","reveal","image-keyboard-response","395","1094766","0.0-6.0-4.55","2212883","co38347","norming","","","","","","",""
"null","../img/tt/515tt.jpg","null","mooney2","image-keyboard-response","396","1096768","0.0-6.0-5.55","2212883","co38347","norming","","","","","","",""
"2133.0650000018068","","","post_reveal_questions","survey-likert","397","1098905","0.0-6.0-6.55","2212883","co38347","norming","","","{""aha"":2}","[0]","../img/tt/515tt.jpg","",""
"null","<div style=""font-size:60px;""> </div>","null","fixation","html-keyboard-response","398","1099108","0.0-6.0-0.56","2212883","co38347","norming","","","","","","",""
"null","../img/tt/1205tt.jpg","null","mooney1","image-keyboard-response","399","1102113","0.0-6.0-1.56","2212883","co38347","norming","","","","","","",""
"7890.720000024885","","","post_mooney1_questions","survey-likert","400","1110008","0.0-6.0-2.56","2212883","co38347","norming","","","{""curiosity"":5,""confidence"":1}","[0,1]","../img/tt/1205tt.jpg","",""
"1181.1800000141375","","","recognition","survey-text","401","1111199","0.0-6.0-3.56","2212883","co38347","norming","","","{""guess"":""""}","","../img/tt/1205tt.jpg","",""
"null","../img/gs/1205gs.jpg","null","reveal","image-keyboard-response","402","1113204","0.0-6.0-4.56","2212883","co38347","norming","","","","","","",""
"null","../img/tt/1205tt.jpg","null","mooney2","image-keyboard-response","403","1115208","0.0-6.0-5.56","2212883","co38347","norming","","","","","","",""
"3164.3499999772757","","","post_reveal_questions","survey-likert","404","1118375","0.0-6.0-6.56","2212883","co38347","norming","","","{""aha"":2}","[0]","../img/tt/1205tt.jpg","",""
"null","<div style=""font-size:60px;""> </div>","null","fixation","html-keyboard-response","405","1118579","0.0-6.0-0.57","2212883","co38347","norming","","","","","","",""
"null","../img/tt/044tt.jpg","null","mooney1","image-keyboard-response","406","1121584","0.0-6.0-1.57","2212883","co38347","norming","","","","","","",""
"3111.0500000067987","","","post_mooney1_questions","survey-likert","407","1124701","0.0-6.0-2.57","2212883","co38347","norming","","","{""curiosity"":6,""confidence"":0}","[0,1]","../img/tt/044tt.jpg","",""
"860.8099999837577","","","recognition","survey-text","408","1125573","0.0-6.0-3.57","2212883","co38347","norming","","","{""guess"":""""}","","../img/tt/044tt.jpg","",""
"null","../img/gs/044gs.jpg","null","reveal","image-keyboard-response","409","1127576","0.0-6.0-4.57","2212883","co38347","norming","","","","","","",""
"null","../img/tt/044tt.jpg","null","mooney2","image-keyboard-response","410","1129579","0.0-6.0-5.57","2212883","co38347","norming","","","","","","",""
"6244.554999982938","","","post_reveal_questions","survey-likert","411","1135827","0.0-6.0-6.57","2212883","co38347","norming","","","{""aha"":4}","[0]","../img/tt/044tt.jpg","",""
"null","<div style=""font-size:60px;""> </div>","null","fixation","html-keyboard-response","412","1136031","0.0-6.0-0.58","2212883","co38347","norming","","","","","","",""
"null","../img/tt/1261tt.jpg","null","mooney1","image-keyboard-response","413","1139036","0.0-6.0-1.58","2212883","co38347","norming","","","","","","",""
"4722.955000004731","","","post_mooney1_questions","survey-likert","414","1143763","0.0-6.0-2.58","2212883","co38347","norming","","","{""curiosity"":5,""confidence"":1}","[0,1]","../img/tt/1261tt.jpg","",""
"535.7049999875017","","","recognition","survey-text","415","1144308","0.0-6.0-3.58","2212883","co38347","norming","","","{""guess"":""""}","","../img/tt/1261tt.jpg","",""
"null","../img/gs/1261gs.jpg","null","reveal","image-keyboard-response","416","1146313","0.0-6.0-4.58","2212883","co38347","norming","","","","","","",""
"null","../img/tt/1261tt.jpg","null","mooney2","image-keyboard-response","417","1148314","0.0-6.0-5.58","2212883","co38347","norming","","","","","","",""
"1522.4249999737367","","","post_reveal_questions","survey-likert","418","1149843","0.0-6.0-6.58","2212883","co38347","norming","","","{""aha"":5}","[0]","../img/tt/1261tt.jpg","",""
"null","<div style=""font-size:60px;""> </div>","null","fixation","html-keyboard-response","419","1150047","0.0-6.0-0.59","2212883","co38347","norming","","","","","","",""
"null","../img/tt/1159tt.jpg","null","mooney1","image-keyboard-response","420","1153052","0.0-6.0-1.59","2212883","co38347","norming","","","","","","",""
"3194.294999993872","","","post_mooney1_questions","survey-likert","421","1156250","0.0-6.0-2.59","2212883","co38347","norming","","","{""curiosity"":5,""confidence"":0}","[0,1]","../img/tt/1159tt.jpg","",""
"903.649999992922","","","recognition","survey-text","422","1157177","0.0-6.0-3.59","2212883","co38347","norming","","","{""guess"":""""}","","../img/tt/1159tt.jpg","",""
"null","../img/gs/1159gs.jpg","null","reveal","image-keyboard-response","423","1159181","0.0-6.0-4.59","2212883","co38347","norming","","","","","","",""
"null","../img/tt/1159tt.jpg","null","mooney2","image-keyboard-response","424","1161185","0.0-6.0-5.59","2212883","co38347","norming","","","","","","",""
"11978.94499998074","","","post_reveal_questions","survey-likert","425","1173167","0.0-6.0-6.59","2212883","co38347","norming","","","{""aha"":5}","[0]","../img/tt/1159tt.jpg","",""
"null","<div style=""font-size:60px;""> </div>","null","fixation","html-keyboard-response","426","1173370","0.0-6.0-0.60","2212883","co38347","norming","","","","","","",""
"null","../img/tt/163tt.jpg","null","mooney1","image-keyboard-response","427","1176373","0.0-6.0-1.60","2212883","co38347","norming","","","","","","",""
"7733.119999989867","","","post_mooney1_questions","survey-likert","428","1184111","0.0-6.0-2.60","2212883","co38347","norming","","","{""curiosity"":6,""confidence"":0}","[0,1]","../img/tt/163tt.jpg","",""
"877.1249999990687","","","recognition","survey-text","429","1184997","0.0-6.0-3.60","2212883","co38347","norming","","","{""guess"":""""}","","../img/tt/163tt.jpg","",""
"null","../img/gs/163gs.jpg","null","reveal","image-keyboard-response","430","1187000","0.0-6.0-4.60","2212883","co38347","norming","","","","","","",""
"null","../img/tt/163tt.jpg","null","mooney2","image-keyboard-response","431","1189003","0.0-6.0-5.60","2212883","co38347","norming","","","","","","",""
"4613.624999998137","","","post_reveal_questions","survey-likert","432","1193620","0.0-6.0-6.60","2212883","co38347","norming","","","{""aha"":5}","[0]","../img/tt/163tt.jpg","",""
"null","<div style=""font-size:60px;""> </div>","null","fixation","html-keyboard-response","433","1193825","0.0-6.0-0.61","2212883","co38347","norming","","","","","","",""
"null","../img/tt/405tt.jpg","null","mooney1","image-keyboard-response","434","1196830","0.0-6.0-1.61","2212883","co38347","norming","","","","","","",""
"4010.360000014771","","","post_mooney1_questions","survey-likert","435","1200844","0.0-6.0-2.61","2212883","co38347","norming","","","{""curiosity"":5,""confidence"":0}","[0,1]","../img/tt/405tt.jpg","",""
"1479.0999999968335","","","recognition","survey-text","436","1202332","0.0-6.0-3.61","2212883","co38347","norming","","","{""guess"":""""}","","../img/tt/405tt.jpg","",""
"null","../img/gs/405gs.jpg","null","reveal","image-keyboard-response","437","1204336","0.0-6.0-4.61","2212883","co38347","norming","","","","","","",""
"null","../img/tt/405tt.jpg","null","mooney2","image-keyboard-response","438","1206339","0.0-6.0-5.61","2212883","co38347","norming","","","","","","",""
"4100.654999958351","","","post_reveal_questions","survey-likert","439","1210442","0.0-6.0-6.61","2212883","co38347","norming","","","{""aha"":4}","[0]","../img/tt/405tt.jpg","",""
"null","<div style=""font-size:60px;""> </div>","null","fixation","html-keyboard-response","440","1210646","0.0-6.0-0.62","2212883","co38347","norming","","","","","","",""
"null","../img/tt/270tt.jpg","null","mooney1","image-keyboard-response","441","1213650","0.0-6.0-1.62","2212883","co38347","norming","","","","","","",""
"2940.275000000838","","","post_mooney1_questions","survey-likert","442","1216594","0.0-6.0-2.62","2212883","co38347","norming","","","{""curiosity"":5,""confidence"":0}","[0,1]","../img/tt/270tt.jpg","",""
"923.4350000042468","","","recognition","survey-text","443","1217526","0.0-6.0-3.62","2212883","co38347","norming","","","{""guess"":""""}","","../img/tt/270tt.jpg","",""
"null","../img/gs/270gs.jpg","null","reveal","image-keyboard-response","444","1219530","0.0-6.0-4.62","2212883","co38347","norming","","","","","","",""
"null","../img/tt/270tt.jpg","null","mooney2","image-keyboard-response","445","1221535","0.0-6.0-5.62","2212883","co38347","norming","","","","","","",""
"18836.17999998387","","","post_reveal_questions","survey-likert","446","1240374","0.0-6.0-6.62","2212883","co38347","norming","","","{""aha"":5}","[0]","../img/tt/270tt.jpg","",""
"null","<div style=""font-size:60px;""> </div>","null","fixation","html-keyboard-response","447","1240580","0.0-6.0-0.63","2212883","co38347","norming","","","","","","",""
"null","../img/tt/315tt.jpg","null","mooney1","image-keyboard-response","448","1243585","0.0-6.0-1.63","2212883","co38347","norming","","","","","","",""
"3728.675000020303","","","post_mooney1_questions","survey-likert","449","1247318","0.0-6.0-2.63","2212883","co38347","norming","","","{""curiosity"":4,""confidence"":4}","[0,1]","../img/tt/315tt.jpg","",""
"2623.2249999884516","","","recognition","survey-text","450","1249965","0.0-6.0-3.63","2212883","co38347","norming","","","{""guess"":""cat""}","","../img/tt/315tt.jpg","",""
"null","../img/gs/315gs.jpg","null","reveal","image-keyboard-response","451","1251968","0.0-6.0-4.63","2212883","co38347","norming","","","","","","",""
"null","../img/tt/315tt.jpg","null","mooney2","image-keyboard-response","452","1253973","0.0-6.0-5.63","2212883","co38347","norming","","","","","","",""
"1644.300000043586","","","post_reveal_questions","survey-likert","453","1255621","0.0-6.0-6.63","2212883","co38347","norming","","","{""aha"":2}","[0]","../img/tt/315tt.jpg","",""
"null","<div style=""font-size:60px;""> </div>","null","fixation","html-keyboard-response","454","1255825","0.0-6.0-0.64","2212883","co38347","norming","","","","","","",""
"null","../img/tt/456tt.jpg","null","mooney1","image-keyboard-response","455","1258830","0.0-6.0-1.64","2212883","co38347","norming","","","","","","",""
"3282.0449999999255","","","post_mooney1_questions","survey-likert","456","1262118","0.0-6.0-2.64","2212883","co38347","norming","","","{""curiosity"":2,""confidence"":5}","[0,1]","../img/tt/456tt.jpg","",""
"2226.2549999868497","","","recognition","survey-text","457","1264367","0.0-6.0-3.64","2212883","co38347","norming","","","{""guess"":""bear""}","","../img/tt/456tt.jpg","",""
"null","../img/gs/456gs.jpg","null","reveal","image-keyboard-response","458","1266373","0.0-6.0-4.64","2212883","co38347","norming","","","","","","",""
"null","../img/tt/456tt.jpg","null","mooney2","image-keyboard-response","459","1268378","0.0-6.0-5.64","2212883","co38347","norming","","","","","","",""
"1477.2299999604002","","","post_reveal_questions","survey-likert","460","1269858","0.0-6.0-6.64","2212883","co38347","norming","","","{""aha"":2}","[0]","../img/tt/456tt.jpg","",""
"null","<div style=""font-size:60px;""> </div>","null","fixation","html-keyboard-response","461","1270061","0.0-6.0-0.65","2212883","co38347","norming","","","","","","",""
"null","../img/tt/1188tt.jpg","null","mooney1","image-keyboard-response","462","1273064","0.0-6.0-1.65","2212883","co38347","norming","","","","","","",""
"3510.5299999704584","","","post_mooney1_questions","survey-likert","463","1276580","0.0-6.0-2.65","2212883","co38347","norming","","","{""curiosity"":4,""confidence"":0}","[0,1]","../img/tt/1188tt.jpg","",""
"623.070000030566","","","recognition","survey-text","464","1277228","0.0-6.0-3.65","2212883","co38347","norming","","","{""guess"":""""}","","../img/tt/1188tt.jpg","",""
"null","../img/gs/1188gs.jpg","null","reveal","image-keyboard-response","465","1279234","0.0-6.0-4.65","2212883","co38347","norming","","","","","","",""
"null","../img/tt/1188tt.jpg","null","mooney2","image-keyboard-response","466","1281238","0.0-6.0-5.65","2212883","co38347","norming","","","","","","",""
"12165.849999990314","","","post_reveal_questions","survey-likert","467","1293407","0.0-6.0-6.65","2212883","co38347","norming","","","{""aha"":3}","[0]","../img/tt/1188tt.jpg","",""
"null","<div style=""font-size:60px;""> </div>","null","fixation","html-keyboard-response","468","1293610","0.0-6.0-0.66","2212883","co38347","norming","","","","","","",""
"null","../img/tt/1175tt.jpg","null","mooney1","image-keyboard-response","469","1296613","0.0-6.0-1.66","2212883","co38347","norming","","","","","","",""
"3852.9900000430644","","","post_mooney1_questions","survey-likert","470","1300472","0.0-6.0-2.66","2212883","co38347","norming","","","{""curiosity"":2,""confidence"":4}","[0,1]","../img/tt/1175tt.jpg","",""
"2703.6599999992177","","","recognition","survey-text","471","1303202","0.0-6.0-3.66","2212883","co38347","norming","","","{""guess"":""crowd""}","","../img/tt/1175tt.jpg","",""
"null","../img/gs/1175gs.jpg","null","reveal","image-keyboard-response","472","1305210","0.0-6.0-4.66","2212883","co38347","norming","","","","","","",""
"null","../img/tt/1175tt.jpg","null","mooney2","image-keyboard-response","473","1307214","0.0-6.0-5.66","2212883","co38347","norming","","","","","","",""
"17521.750000014435","","","post_reveal_questions","survey-likert","474","1324738","0.0-6.0-6.66","2212883","co38347","norming","","","{""aha"":4}","[0]","../img/tt/1175tt.jpg","",""
"null","<div style=""font-size:60px;""> </div>","null","fixation","html-keyboard-response","475","1324943","0.0-6.0-0.67","2212883","co38347","norming","","","","","","",""
"null","../img/tt/082tt.jpg","null","mooney1","image-keyboard-response","476","1327949","0.0-6.0-1.67","2212883","co38347","norming","","","","","","",""
"7801.220000023022","","","post_mooney1_questions","survey-likert","477","1335754","0.0-6.0-2.67","2212883","co38347","norming","","","{""curiosity"":5,""confidence"":1}","[0,1]","../img/tt/082tt.jpg","",""
"1358.0300000030547","","","recognition","survey-text","478","1337121","0.0-6.0-3.67","2212883","co38347","norming","","","{""guess"":""""}","","../img/tt/082tt.jpg","",""
"null","../img/gs/082gs.jpg","null","reveal","image-keyboard-response","479","1339126","0.0-6.0-4.67","2212883","co38347","norming","","","","","","",""
"null","../img/tt/082tt.jpg","null","mooney2","image-keyboard-response","480","1341130","0.0-6.0-5.67","2212883","co38347","norming","","","","","","",""
"3859.01500005275","","","post_reveal_questions","survey-likert","481","1344992","0.0-6.0-6.67","2212883","co38347","norming","","","{""aha"":4}","[0]","../img/tt/082tt.jpg","",""
"null","<div style=""font-size:60px;""> </div>","null","fixation","html-keyboard-response","482","1345197","0.0-6.0-0.68","2212883","co38347","norming","","","","","","",""
"null","../img/tt/1363tt.jpg","null","mooney1","image-keyboard-response","483","1348201","0.0-6.0-1.68","2212883","co38347","norming","","","","","","",""
"3292.120000056457","","","post_mooney1_questions","survey-likert","484","1351497","0.0-6.0-2.68","2212883","co38347","norming","","","{""curiosity"":1,""confidence"":3}","[0,1]","../img/tt/1363tt.jpg","",""
"2605.8549999725074","","","recognition","survey-text","485","1354130","0.0-6.0-3.68","2212883","co38347","norming","","","{""guess"":""candle""}","","../img/tt/1363tt.jpg","",""
"null","../img/gs/1363gs.jpg","null","reveal","image-keyboard-response","486","1356135","0.0-6.0-4.68","2212883","co38347","norming","","","","","","",""
"null","../img/tt/1363tt.jpg","null","mooney2","image-keyboard-response","487","1358140","0.0-6.0-5.68","2212883","co38347","norming","","","","","","",""
"5974.724999978207","","","post_reveal_questions","survey-likert","488","1364118","0.0-6.0-6.68","2212883","co38347","norming","","","{""aha"":2}","[0]","../img/tt/1363tt.jpg","",""
"null","<div style=""font-size:60px;""> </div>","null","fixation","html-keyboard-response","489","1364325","0.0-6.0-0.69","2212883","co38347","norming","","","","","","",""
"null","../img/tt/357tt.jpg","null","mooney1","image-keyboard-response","490","1367332","0.0-6.0-1.69","2212883","co38347","norming","","","","","","",""
"4643.98000005167","","","post_mooney1_questions","survey-likert","491","1371981","0.0-6.0-2.69","2212883","co38347","norming","","","{""curiosity"":5,""confidence"":0}","[0,1]","../img/tt/357tt.jpg","",""
"1174.31500001112","","","recognition","survey-text","492","1373165","0.0-6.0-3.69","2212883","co38347","norming","","","{""guess"":""""}","","../img/tt/357tt.jpg","",""
"null","../img/gs/357gs.jpg","null","reveal","image-keyboard-response","493","1375170","0.0-6.0-4.69","2212883","co38347","norming","","","","","","",""
"null","../img/tt/357tt.jpg","null","mooney2","image-keyboard-response","494","1377171","0.0-6.0-5.69","2212883","co38347","norming","","","","","","",""
"2037.3600000166334","","","post_reveal_questions","survey-likert","495","1379214","0.0-6.0-6.69","2212883","co38347","norming","","","{""aha"":5}","[0]","../img/tt/357tt.jpg","",""
"null","<div style=""font-size:60px;""> </div>","null","fixation","html-keyboard-response","496","1379420","0.0-6.0-0.70","2212883","co38347","norming","","","","","","",""
"null","../img/tt/1096tt.jpg","null","mooney1","image-keyboard-response","497","1382425","0.0-6.0-1.70","2212883","co38347","norming","","","","","","",""
"3182.840000023134","","","post_mooney1_questions","survey-likert","498","1385611","0.0-6.0-2.70","2212883","co38347","norming","","","{""curiosity"":4,""confidence"":2}","[0,1]","../img/tt/1096tt.jpg","",""
"2632.9050000058487","","","recognition","survey-text","499","1388256","0.0-6.0-3.70","2212883","co38347","norming","","","{""guess"":""workplace""}","","../img/tt/1096tt.jpg","",""
"null","../img/gs/1096gs.jpg","null","reveal","image-keyboard-response","500","1390264","0.0-6.0-4.70","2212883","co38347","norming","","","","","","",""
"null","../img/tt/1096tt.jpg","null","mooney2","image-keyboard-response","501","1392267","0.0-6.0-5.70","2212883","co38347","norming","","","","","","",""
"2747.124999994412","","","post_reveal_questions","survey-likert","502","1395017","0.0-6.0-6.70","2212883","co38347","norming","","","{""aha"":4}","[0]","../img/tt/1096tt.jpg","",""
"null","<div style=""font-size:60px;""> </div>","null","fixation","html-keyboard-response","503","1395222","0.0-6.0-0.71","2212883","co38347","norming","","","","","","",""
"null","../img/tt/307tt.jpg","null","mooney1","image-keyboard-response","504","1398225","0.0-6.0-1.71","2212883","co38347","norming","","","","","","",""
"2828.724999970291","","","post_mooney1_questions","survey-likert","505","1401057","0.0-6.0-2.71","2212883","co38347","norming","","","{""curiosity"":5,""confidence"":0}","[0,1]","../img/tt/307tt.jpg","",""
"1868.3799999998882","","","recognition","survey-text","506","1402952","0.0-6.0-3.71","2212883","co38347","norming","","","{""guess"":""""}","","../img/tt/307tt.jpg","",""
"null","../img/gs/307gs.jpg","null","reveal","image-keyboard-response","507","1404958","0.0-6.0-4.71","2212883","co38347","norming","","","","","","",""
"null","../img/tt/307tt.jpg","null","mooney2","image-keyboard-response","508","1406960","0.0-6.0-5.71","2212883","co38347","norming","","","","","","",""
"1731.5649999654852","","","post_reveal_questions","survey-likert","509","1408695","0.0-6.0-6.71","2212883","co38347","norming","","","{""aha"":4}","[0]","../img/tt/307tt.jpg","",""
"null","<div style=""font-size:60px;""> </div>","null","fixation","html-keyboard-response","510","1408903","0.0-6.0-0.72","2212883","co38347","norming","","","","","","",""
"null","../img/tt/1070tt.jpg","null","mooney1","image-keyboard-response","511","1411906","0.0-6.0-1.72","2212883","co38347","norming","","","","","","",""
"3134.5499999588355","","","post_mooney1_questions","survey-likert","512","1415047","0.0-6.0-2.72","2212883","co38347","norming","","","{""curiosity"":2,""confidence"":4}","[0,1]","../img/tt/1070tt.jpg","",""
"2512.6100000343286","","","recognition","survey-text","513","1417596","0.0-6.0-3.72","2212883","co38347","norming","","","{""guess"":""sandwich""}","","../img/tt/1070tt.jpg","",""
"null","../img/gs/1070gs.jpg","null","reveal","image-keyboard-response","514","1419603","0.0-6.0-4.72","2212883","co38347","norming","","","","","","",""
"null","../img/tt/1070tt.jpg","null","mooney2","image-keyboard-response","515","1421606","0.0-6.0-5.72","2212883","co38347","norming","","","","","","",""
"2068.250000011176","","","post_reveal_questions","survey-likert","516","1423678","0.0-6.0-6.72","2212883","co38347","norming","","","{""aha"":2}","[0]","../img/tt/1070tt.jpg","",""
"null","<div style=""font-size:60px;""> </div>","null","fixation","html-keyboard-response","517","1423882","0.0-6.0-0.73","2212883","co38347","norming","","","","","","",""
"null","../img/tt/084tt.jpg","null","mooney1","image-keyboard-response","518","1426886","0.0-6.0-1.73","2212883","co38347","norming","","","","","","",""
"4709.465000021737","","","post_mooney1_questions","survey-likert","519","1431599","0.0-6.0-2.73","2212883","co38347","norming","","","{""curiosity"":4,""confidence"":0}","[0,1]","../img/tt/084tt.jpg","",""
"613.1750000058673","","","recognition","survey-text","520","1432220","0.0-6.0-3.73","2212883","co38347","norming","","","{""guess"":""""}","","../img/tt/084tt.jpg","",""
"null","../img/gs/084gs.jpg","null","reveal","image-keyboard-response","521","1434226","0.0-6.0-4.73","2212883","co38347","norming","","","","","","",""
"null","../img/tt/084tt.jpg","null","mooney2","image-keyboard-response","522","1436227","0.0-6.0-5.73","2212883","co38347","norming","","","","","","",""
"1956.2950000399724","","","post_reveal_questions","survey-likert","523","1438187","0.0-6.0-6.73","2212883","co38347","norming","","","{""aha"":5}","[0]","../img/tt/084tt.jpg","",""
"null","<div style=""font-size:60px;""> </div>","null","fixation","html-keyboard-response","524","1438392","0.0-6.0-0.74","2212883","co38347","norming","","","","","","",""
"null","../img/tt/279tt.jpg","null","mooney1","image-keyboard-response","525","1441397","0.0-6.0-1.74","2212883","co38347","norming","","","","","","",""
"3242.1849999809638","","","post_mooney1_questions","survey-likert","526","1444644","0.0-6.0-2.74","2212883","co38347","norming","","","{""curiosity"":0,""confidence"":6}","[0,1]","../img/tt/279tt.jpg","",""
"2504.3099999893457","","","recognition","survey-text","527","1447159","0.0-6.0-3.74","2212883","co38347","norming","","","{""guess"":""koala""}","","../img/tt/279tt.jpg","",""
"null","../img/gs/279gs.jpg","null","reveal","image-keyboard-response","528","1449166","0.0-6.0-4.74","2212883","co38347","norming","","","","","","",""
"null","../img/tt/279tt.jpg","null","mooney2","image-keyboard-response","529","1451170","0.0-6.0-5.74","2212883","co38347","norming","","","","","","",""
"3629.0500000468455","","","post_reveal_questions","survey-likert","530","1454802","0.0-6.0-6.74","2212883","co38347","norming","","","{""aha"":0}","[0]","../img/tt/279tt.jpg","",""
"null","<div style=""font-size:60px;""> </div>","null","fixation","html-keyboard-response","531","1455005","0.0-6.0-0.75","2212883","co38347","norming","","","","","","",""
"null","../img/tt/418tt.jpg","null","mooney1","image-keyboard-response","532","1458010","0.0-6.0-1.75","2212883","co38347","norming","","","","","","",""
"4716.995000024326","","","post_mooney1_questions","survey-likert","533","1462731","0.0-6.0-2.75","2212883","co38347","norming","","","{""curiosity"":4,""confidence"":0}","[0,1]","../img/tt/418tt.jpg","",""
"983.1650000414811","","","recognition","survey-text","534","1463736","0.0-6.0-3.75","2212883","co38347","norming","","","{""guess"":""""}","","../img/tt/418tt.jpg","",""
"null","../img/gs/418gs.jpg","null","reveal","image-keyboard-response","535","1465740","0.0-6.0-4.75","2212883","co38347","norming","","","","","","",""
"null","../img/tt/418tt.jpg","null","mooney2","image-keyboard-response","536","1467743","0.0-6.0-5.75","2212883","co38347","norming","","","","","","",""
"2005.6900000199676","","","post_reveal_questions","survey-likert","537","1469752","0.0-6.0-6.75","2212883","co38347","norming","","","{""aha"":2}","[0]","../img/tt/418tt.jpg","",""
"null","<div style=""font-size:60px;""> </div>","null","fixation","html-keyboard-response","538","1469957","0.0-6.0-0.76","2212883","co38347","norming","","","","","","",""
"null","../img/tt/1247tt.jpg","null","mooney1","image-keyboard-response","539","1472960","0.0-6.0-1.76","2212883","co38347","norming","","","","","","",""
"3050.5600000033155","","","post_mooney1_questions","survey-likert","540","1476016","0.0-6.0-2.76","2212883","co38347","norming","","","{""curiosity"":4,""confidence"":0}","[0,1]","../img/tt/1247tt.jpg","",""
"732.5850000488572","","","recognition","survey-text","541","1476759","0.0-6.0-3.76","2212883","co38347","norming","","","{""guess"":""""}","","../img/tt/1247tt.jpg","",""
"null","../img/gs/1247gs.jpg","null","reveal","image-keyboard-response","542","1478763","0.0-6.0-4.76","2212883","co38347","norming","","","","","","",""
"null","../img/tt/1247tt.jpg","null","mooney2","image-keyboard-response","543","1480766","0.0-6.0-5.76","2212883","co38347","norming","","","","","","",""
"1517.4150000093505","","","post_reveal_questions","survey-likert","544","1482286","0.0-6.0-6.76","2212883","co38347","norming","","","{""aha"":4}","[0]","../img/tt/1247tt.jpg","",""
"null","<div style=""font-size:60px;""> </div>","null","fixation","html-keyboard-response","545","1482491","0.0-6.0-0.77","2212883","co38347","norming","","","","","","",""
"null","../img/tt/1089tt.jpg","null","mooney1","image-keyboard-response","546","1485500","0.0-6.0-1.77","2212883","co38347","norming","","","","","","",""
"3871.3800000259653","","","post_mooney1_questions","survey-likert","547","1489375","0.0-6.0-2.77","2212883","co38347","norming","","","{""curiosity"":4,""confidence"":0}","[0,1]","../img/tt/1089tt.jpg","",""
"799.9500000150874","","","recognition","survey-text","548","1490189","0.0-6.0-3.77","2212883","co38347","norming","","","{""guess"":""""}","","../img/tt/1089tt.jpg","",""
"null","../img/gs/1089gs.jpg","null","reveal","image-keyboard-response","549","1492193","0.0-6.0-4.77","2212883","co38347","norming","","","","","","",""
"null","../img/tt/1089tt.jpg","null","mooney2","image-keyboard-response","550","1494195","0.0-6.0-5.77","2212883","co38347","norming","","","","","","",""
"1855.184999993071","","","post_reveal_questions","survey-likert","551","1496054","0.0-6.0-6.77","2212883","co38347","norming","","","{""aha"":5}","[0]","../img/tt/1089tt.jpg","",""
"null","<div style=""font-size:60px;""> </div>","null","fixation","html-keyboard-response","552","1496262","0.0-6.0-0.78","2212883","co38347","norming","","","","","","",""
"null","../img/tt/1366tt.jpg","null","mooney1","image-keyboard-response","553","1499266","0.0-6.0-1.78","2212883","co38347","norming","","","","","","",""
