"rt","stimulus","key_press","test_part","trial_type","trial_index","time_elapsed","internal_node_id","totalTime","subject","experiment_name","button_pressed","success","responses","question_order","currentStim","old","correct"
"11675","Welcome to the experiment. This is an online experiment so please don't close the tab/window until we say goodbye.  Press any key to begin.","32","instructions","html-keyboard-response","0","11708","0.0-0.0","2372043","co38746","norming","","","","","","",""
"28666","<div style='word-wrap: break-word; width: 900px'><h3>Please consider this information carefully before deciding whether to participate in this research</h3><ul style='text-align: left; font-size: .8em;'><li><b>Purpose of the research</b>: To examine how people process images.</li><li><b>What you will do in this research</b>:  Stimuli (images) will be presented on the computer and you will be asked different questions about them.</li><li><b>Time required</b>: Participation will take between 45 and 60 minutes to complete.</li><li><b>Risks</b>:  There are no anticipated risks associated with participating in this study. The effects of participating should be comparable to those you would experience from viewing a computer monitor for 30 minutes and using a mouse or keyboard.</li><li><b>Benefits</b>:  This study provides no benefits to you individually except for the credit. The study provides important information about the nature of perception and learning.</li><li><b>Confidentiality</b>:  Your participation in this study will remain confidential. No personally identifiable information will be associated with your data. Your de-identified data may be shared with other researchers and used in future projects.</li><li><b>Participation and withdrawal</b>:  Your participation in this study is completely voluntary and you may refuse to participate or you may choose to withdraw at any time without penalty.</li><li><b>How to contact the researchers</b>: If you have questions or concerns about your participation or payment, or want to request a summary of research findings, please contact Sander Van de Cruys (KU Leuven), at sander.vandecruys@kuleuven.be.</li></ul><p>The nature and purpose of this research have been sufficiently explained and I agree to participate in this study.  I understand that I am free to withdraw at any time without incurring any penalty.</p><p>Please consent by clicking the button below to continue. Otherwise, please exit the study at this time.</p></div>","","instructions","html-button-response","1","40377","0.0-1.0","2372043","co38746","norming","0","","","","","",""
"","","","instructions","fullscreen","2","46510","0.0-2.0","2372043","co38746","norming","","true","","","","",""
"61007","","","sona","survey-html-form","3","107522","0.0-3.0","2372043","co38746","norming","","","[{""name"":""sonaid"",""value"":""38746""},{""name"":""debrief"",""value"":""no""},{""name"":""datajoin"",""value"":""yes""}]","","","",""
"66530","<div style='word-wrap: break-word; width: 900px'><h3>Instructions</h3><p>This experiment will have 3 parts. In the first part you will see a series of distorted images like the one below on the left. As you can see in the righthand image, the distorted images are derived from actual photographs. In what follows, you will <strong>briefly</strong> be presented with <strong>only</strong> the distorted image.</p> <div style='float: left; margin-right: 20px;'><img src='../img/018tt.jpg' height='250' width='250'></img></div><div style='float: right; margin-left: 20px;'><img src='../img/018gs.jpg' height='250' width='250'></img></div><p>Subsequently you will be asked a few questions about the image: One question on how <strong>curious</strong> you are about the solution and one on how <strong>confident</strong> you are that you know the solution.</p>Next, we ask you to make a guess on what is in the image. Note that it is OK to name just the <strong>basic level category</strong>. For example when you see a parrot in the image, 'parrot' will obviously be a correct answer but also correct is 'bird'. However, 'animal' will <strong>not</strong> be counted as a correct response. For the example above, 'rose' would be correct or 'flower', but not 'plant'. When soccer players are depicted, 'soccer', 'football', 'soccer players' will be correct, but not 'humans', 'outdoors', or 'sports'. You do not need to describe the image in full, just name the main object in it <strong>in one or two words</strong>. All images depict objects from one of the following broad level categories: animals, inanimate objects, plants, sports, vehicles, and food. Recognizing means knowing <strong>more</strong> than these broad labels for a given image. But we always encourage you to <strong>make a guess</strong> if you can. Note that you are allowed to use <strong>Dutch and English</strong> in your answers, whatever comes easiest for you.</p><p>Press any key to continue.</p></div>","32","instructions","html-keyboard-response","4","174057","0.0-4.0","2372043","co38746","norming","","","","","","",""
"23619","<div style='word-wrap: break-word; width: 900px'><h3>Instructions</h3> <p>Next, the solution image will be revealed to you and you'll be asked to indicate how strong your <strong>aha-experience</strong> was after seeing the solution. This describes the positive feeling of the 'click' you sometimes experience, when the pieces of the 'puzzle' fall together and you suddenly have 'insight' in the image.</p><img src='aha.jpg' height='188' width='250'></img><p>Note that there are no right or wrong answers. We are interested in what <strong>you</strong> see in the image and how <strong>you</strong> feel about it.</p><p>Press any key to start the experiment.</p></div>","32","instructions","html-keyboard-response","5","197679","0.0-5.0","2372043","co38746","norming","","","","","","",""
"null","<div style=""font-size:60px;""> </div>","null","fixation","html-keyboard-response","6","197882","0.0-6.0-0.0","2372043","co38746","norming","","","","","","",""
"null","../img/tt/1262tt.jpg","null","mooney1","image-keyboard-response","7","200885","0.0-6.0-1.0","2372043","co38746","norming","","","","","","",""
"10158","","","post_mooney1_questions","survey-likert","8","211047","0.0-6.0-2.0","2372043","co38746","norming","","","{""curiosity"":5,""confidence"":0}","[0,1]","../img/tt/1262tt.jpg","",""
"5729","","","recognition","survey-text","9","216783","0.0-6.0-3.0","2372043","co38746","norming","","","{""guess"":""""}","","../img/tt/1262tt.jpg","",""
"null","../img/gs/1262gs.jpg","null","reveal","image-keyboard-response","10","218786","0.0-6.0-4.0","2372043","co38746","norming","","","","","","",""
"null","../img/tt/1262tt.jpg","null","mooney2","image-keyboard-response","11","220788","0.0-6.0-5.0","2372043","co38746","norming","","","","","","",""
"3331","","","post_reveal_questions","survey-likert","12","224120","0.0-6.0-6.0","2372043","co38746","norming","","","{""aha"":5}","[0]","../img/tt/1262tt.jpg","",""
"null","<div style=""font-size:60px;""> </div>","null","fixation","html-keyboard-response","13","224325","0.0-6.0-0.1","2372043","co38746","norming","","","","","","",""
"null","../img/tt/477tt.jpg","null","mooney1","image-keyboard-response","14","227327","0.0-6.0-1.1","2372043","co38746","norming","","","","","","",""
"10440","","","post_mooney1_questions","survey-likert","15","237770","0.0-6.0-2.1","2372043","co38746","norming","","","{""curiosity"":4,""confidence"":2}","[0,1]","../img/tt/477tt.jpg","",""
"2519","","","recognition","survey-text","16","240297","0.0-6.0-3.1","2372043","co38746","norming","","","{""guess"":""Kat ""}","","../img/tt/477tt.jpg","",""
"null","../img/gs/477gs.jpg","null","reveal","image-keyboard-response","17","242299","0.0-6.0-4.1","2372043","co38746","norming","","","","","","",""
"null","../img/tt/477tt.jpg","null","mooney2","image-keyboard-response","18","244301","0.0-6.0-5.1","2372043","co38746","norming","","","","","","",""
"21184","","","post_reveal_questions","survey-likert","19","265488","0.0-6.0-6.1","2372043","co38746","norming","","","{""aha"":5}","[0]","../img/tt/477tt.jpg","",""
"null","<div style=""font-size:60px;""> </div>","null","fixation","html-keyboard-response","20","265692","0.0-6.0-0.2","2372043","co38746","norming","","","","","","",""
"null","../img/tt/140tt.jpg","null","mooney1","image-keyboard-response","21","268694","0.0-6.0-1.2","2372043","co38746","norming","","","","","","",""
"11387","","","post_mooney1_questions","survey-likert","22","280084","0.0-6.0-2.2","2372043","co38746","norming","","","{""curiosity"":1,""confidence"":0}","[0,1]","../img/tt/140tt.jpg","",""
"1831","","","recognition","survey-text","23","281923","0.0-6.0-3.2","2372043","co38746","norming","","","{""guess"":""Boot""}","","../img/tt/140tt.jpg","",""
"null","../img/gs/140gs.jpg","null","reveal","image-keyboard-response","24","283925","0.0-6.0-4.2","2372043","co38746","norming","","","","","","",""
"null","../img/tt/140tt.jpg","null","mooney2","image-keyboard-response","25","285927","0.0-6.0-5.2","2372043","co38746","norming","","","","","","",""
"2212","","","post_reveal_questions","survey-likert","26","288141","0.0-6.0-6.2","2372043","co38746","norming","","","{""aha"":6}","[0]","../img/tt/140tt.jpg","",""
"null","<div style=""font-size:60px;""> </div>","null","fixation","html-keyboard-response","27","288344","0.0-6.0-0.3","2372043","co38746","norming","","","","","","",""
"null","../img/tt/1276tt.jpg","null","mooney1","image-keyboard-response","28","291347","0.0-6.0-1.3","2372043","co38746","norming","","","","","","",""
"4249","","","post_mooney1_questions","survey-likert","29","295597","0.0-6.0-2.3","2372043","co38746","norming","","","{""curiosity"":4,""confidence"":1}","[0,1]","../img/tt/1276tt.jpg","",""
"1321","","","recognition","survey-text","30","296927","0.0-6.0-3.3","2372043","co38746","norming","","","{""guess"":""Koe""}","","../img/tt/1276tt.jpg","",""
"null","../img/gs/1276gs.jpg","null","reveal","image-keyboard-response","31","298929","0.0-6.0-4.3","2372043","co38746","norming","","","","","","",""
"null","../img/tt/1276tt.jpg","null","mooney2","image-keyboard-response","32","300931","0.0-6.0-5.3","2372043","co38746","norming","","","","","","",""
"2794","","","post_reveal_questions","survey-likert","33","303727","0.0-6.0-6.3","2372043","co38746","norming","","","{""aha"":1}","[0]","../img/tt/1276tt.jpg","",""
"null","<div style=""font-size:60px;""> </div>","null","fixation","html-keyboard-response","34","303930","0.0-6.0-0.4","2372043","co38746","norming","","","","","","",""
"null","../img/tt/1275tt.jpg","null","mooney1","image-keyboard-response","35","306933","0.0-6.0-1.4","2372043","co38746","norming","","","","","","",""
"4324","","","post_mooney1_questions","survey-likert","36","311260","0.0-6.0-2.4","2372043","co38746","norming","","","{""curiosity"":2,""confidence"":3}","[0,1]","../img/tt/1275tt.jpg","",""
"1315.9999999999418","","","recognition","survey-text","37","312584","0.0-6.0-3.4","2372043","co38746","norming","","","{""guess"":""Koe""}","","../img/tt/1275tt.jpg","",""
"null","../img/gs/1275gs.jpg","null","reveal","image-keyboard-response","38","314587","0.0-6.0-4.4","2372043","co38746","norming","","","","","","",""
"null","../img/tt/1275tt.jpg","null","mooney2","image-keyboard-response","39","316589","0.0-6.0-5.4","2372043","co38746","norming","","","","","","",""
"3801","","","post_reveal_questions","survey-likert","40","320392","0.0-6.0-6.4","2372043","co38746","norming","","","{""aha"":1}","[0]","../img/tt/1275tt.jpg","",""
"null","<div style=""font-size:60px;""> </div>","null","fixation","html-keyboard-response","41","320596","0.0-6.0-0.5","2372043","co38746","norming","","","","","","",""
"null","../img/tt/1063tt.jpg","null","mooney1","image-keyboard-response","42","323597","0.0-6.0-1.5","2372043","co38746","norming","","","","","","",""
"4772","","","post_mooney1_questions","survey-likert","43","328372","0.0-6.0-2.5","2372043","co38746","norming","","","{""curiosity"":5,""confidence"":1}","[0,1]","../img/tt/1063tt.jpg","",""
"6281","","","recognition","survey-text","44","334662","0.0-6.0-3.5","2372043","co38746","norming","","","{""guess"":""Kameel""}","","../img/tt/1063tt.jpg","",""
"null","../img/gs/1063gs.jpg","null","reveal","image-keyboard-response","45","336664","0.0-6.0-4.5","2372043","co38746","norming","","","","","","",""
"null","../img/tt/1063tt.jpg","null","mooney2","image-keyboard-response","46","338667","0.0-6.0-5.5","2372043","co38746","norming","","","","","","",""
"2684","","","post_reveal_questions","survey-likert","47","341353","0.0-6.0-6.5","2372043","co38746","norming","","","{""aha"":4}","[0]","../img/tt/1063tt.jpg","",""
"null","<div style=""font-size:60px;""> </div>","null","fixation","html-keyboard-response","48","341556","0.0-6.0-0.6","2372043","co38746","norming","","","","","","",""
"null","../img/tt/1033tt.jpg","null","mooney1","image-keyboard-response","49","344558","0.0-6.0-1.6","2372043","co38746","norming","","","","","","",""
"5407.999999999942","","","post_mooney1_questions","survey-likert","50","349969","0.0-6.0-2.6","2372043","co38746","norming","","","{""curiosity"":3,""confidence"":4}","[0,1]","../img/tt/1033tt.jpg","",""
"1923.0000000000582","","","recognition","survey-text","51","351899","0.0-6.0-3.6","2372043","co38746","norming","","","{""guess"":""Ruiter""}","","../img/tt/1033tt.jpg","",""
"null","../img/gs/1033gs.jpg","null","reveal","image-keyboard-response","52","353902","0.0-6.0-4.6","2372043","co38746","norming","","","","","","",""
"null","../img/tt/1033tt.jpg","null","mooney2","image-keyboard-response","53","355904","0.0-6.0-5.6","2372043","co38746","norming","","","","","","",""
"2048","","","post_reveal_questions","survey-likert","54","357954","0.0-6.0-6.6","2372043","co38746","norming","","","{""aha"":5}","[0]","../img/tt/1033tt.jpg","",""
"null","<div style=""font-size:60px;""> </div>","null","fixation","html-keyboard-response","55","358158","0.0-6.0-0.7","2372043","co38746","norming","","","","","","",""
"null","../img/tt/184tt.jpg","null","mooney1","image-keyboard-response","56","361160","0.0-6.0-1.7","2372043","co38746","norming","","","","","","",""
"4308.999999999942","","","post_mooney1_questions","survey-likert","57","365471","0.0-6.0-2.7","2372043","co38746","norming","","","{""curiosity"":5,""confidence"":0}","[0,1]","../img/tt/184tt.jpg","",""
"606","","","recognition","survey-text","58","366086","0.0-6.0-3.7","2372043","co38746","norming","","","{""guess"":""""}","","../img/tt/184tt.jpg","",""
"null","../img/gs/184gs.jpg","null","reveal","image-keyboard-response","59","368088","0.0-6.0-4.7","2372043","co38746","norming","","","","","","",""
"null","../img/tt/184tt.jpg","null","mooney2","image-keyboard-response","60","370090","0.0-6.0-5.7","2372043","co38746","norming","","","","","","",""
"3499","","","post_reveal_questions","survey-likert","61","373592","0.0-6.0-6.7","2372043","co38746","norming","","","{""aha"":0}","[0]","../img/tt/184tt.jpg","",""
"null","<div style=""font-size:60px;""> </div>","null","fixation","html-keyboard-response","62","373795","0.0-6.0-0.8","2372043","co38746","norming","","","","","","",""
"null","../img/tt/096tt.jpg","null","mooney1","image-keyboard-response","63","376797","0.0-6.0-1.8","2372043","co38746","norming","","","","","","",""
"4055.999999999942","","","post_mooney1_questions","survey-likert","64","380856","0.0-6.0-2.8","2372043","co38746","norming","","","{""curiosity"":4,""confidence"":4}","[0,1]","../img/tt/096tt.jpg","",""
"3414","","","recognition","survey-text","65","384277","0.0-6.0-3.8","2372043","co38746","norming","","","{""guess"":""Piano""}","","../img/tt/096tt.jpg","",""
"null","../img/gs/096gs.jpg","null","reveal","image-keyboard-response","66","386280","0.0-6.0-4.8","2372043","co38746","norming","","","","","","",""
"null","../img/tt/096tt.jpg","null","mooney2","image-keyboard-response","67","388283","0.0-6.0-5.8","2372043","co38746","norming","","","","","","",""
"2048","","","post_reveal_questions","survey-likert","68","390333","0.0-6.0-6.8","2372043","co38746","norming","","","{""aha"":1}","[0]","../img/tt/096tt.jpg","",""
"null","<div style=""font-size:60px;""> </div>","null","fixation","html-keyboard-response","69","390536","0.0-6.0-0.9","2372043","co38746","norming","","","","","","",""
"null","../img/tt/1234tt.jpg","null","mooney1","image-keyboard-response","70","393539","0.0-6.0-1.9","2372043","co38746","norming","","","","","","",""
"3925","","","post_mooney1_questions","survey-likert","71","397466","0.0-6.0-2.9","2372043","co38746","norming","","","{""curiosity"":2,""confidence"":4}","[0,1]","../img/tt/1234tt.jpg","",""
"1206","","","recognition","survey-text","72","398680","0.0-6.0-3.9","2372043","co38746","norming","","","{""guess"":""Boot""}","","../img/tt/1234tt.jpg","",""
"null","../img/gs/1234gs.jpg","null","reveal","image-keyboard-response","73","400682","0.0-6.0-4.9","2372043","co38746","norming","","","","","","",""
"null","../img/tt/1234tt.jpg","null","mooney2","image-keyboard-response","74","402685","0.0-6.0-5.9","2372043","co38746","norming","","","","","","",""
"2740","","","post_reveal_questions","survey-likert","75","405426","0.0-6.0-6.9","2372043","co38746","norming","","","{""aha"":4}","[0]","../img/tt/1234tt.jpg","",""
"null","<div style=""font-size:60px;""> </div>","null","fixation","html-keyboard-response","76","405629","0.0-6.0-0.10","2372043","co38746","norming","","","","","","",""
"null","../img/tt/222tt.jpg","null","mooney1","image-keyboard-response","77","408631","0.0-6.0-1.10","2372043","co38746","norming","","","","","","",""
"6751.000000000058","","","post_mooney1_questions","survey-likert","78","415384","0.0-6.0-2.10","2372043","co38746","norming","","","{""curiosity"":4,""confidence"":4}","[0,1]","../img/tt/222tt.jpg","",""
"2022","","","recognition","survey-text","79","417416","0.0-6.0-3.10","2372043","co38746","norming","","","{""guess"":""Man""}","","../img/tt/222tt.jpg","",""
"null","../img/gs/222gs.jpg","null","reveal","image-keyboard-response","80","419418","0.0-6.0-4.10","2372043","co38746","norming","","","","","","",""
"null","../img/tt/222tt.jpg","null","mooney2","image-keyboard-response","81","421421","0.0-6.0-5.10","2372043","co38746","norming","","","","","","",""
"2276","","","post_reveal_questions","survey-likert","82","423698","0.0-6.0-6.10","2372043","co38746","norming","","","{""aha"":4}","[0]","../img/tt/222tt.jpg","",""
"null","<div style=""font-size:60px;""> </div>","null","fixation","html-keyboard-response","83","423901","0.0-6.0-0.11","2372043","co38746","norming","","","","","","",""
"null","../img/tt/522tt.jpg","null","mooney1","image-keyboard-response","84","426903","0.0-6.0-1.11","2372043","co38746","norming","","","","","","",""
"6040","","","post_mooney1_questions","survey-likert","85","432946","0.0-6.0-2.11","2372043","co38746","norming","","","{""curiosity"":4,""confidence"":2}","[0,1]","../img/tt/522tt.jpg","",""
"5026","","","recognition","survey-text","86","437982","0.0-6.0-3.11","2372043","co38746","norming","","","{""guess"":""Brood""}","","../img/tt/522tt.jpg","",""
"null","../img/gs/522gs.jpg","null","reveal","image-keyboard-response","87","439984","0.0-6.0-4.11","2372043","co38746","norming","","","","","","",""
"null","../img/tt/522tt.jpg","null","mooney2","image-keyboard-response","88","441987","0.0-6.0-5.11","2372043","co38746","norming","","","","","","",""
"2831.000000000058","","","post_reveal_questions","survey-likert","89","444820","0.0-6.0-6.11","2372043","co38746","norming","","","{""aha"":6}","[0]","../img/tt/522tt.jpg","",""
"null","<div style=""font-size:60px;""> </div>","null","fixation","html-keyboard-response","90","445023","0.0-6.0-0.12","2372043","co38746","norming","","","","","","",""
"null","../img/tt/078tt.jpg","null","mooney1","image-keyboard-response","91","448025","0.0-6.0-1.12","2372043","co38746","norming","","","","","","",""
"4137.999999999942","","","post_mooney1_questions","survey-likert","92","452165","0.0-6.0-2.12","2372043","co38746","norming","","","{""curiosity"":5,""confidence"":4}","[0,1]","../img/tt/078tt.jpg","",""
"1780","","","recognition","survey-text","93","453953","0.0-6.0-3.12","2372043","co38746","norming","","","{""guess"":""Druiven""}","","../img/tt/078tt.jpg","",""
"null","../img/gs/078gs.jpg","null","reveal","image-keyboard-response","94","455956","0.0-6.0-4.12","2372043","co38746","norming","","","","","","",""
"null","../img/tt/078tt.jpg","null","mooney2","image-keyboard-response","95","457958","0.0-6.0-5.12","2372043","co38746","norming","","","","","","",""
"4742","","","post_reveal_questions","survey-likert","96","462702","0.0-6.0-6.12","2372043","co38746","norming","","","{""aha"":1}","[0]","../img/tt/078tt.jpg","",""
"null","<div style=""font-size:60px;""> </div>","null","fixation","html-keyboard-response","97","462905","0.0-6.0-0.13","2372043","co38746","norming","","","","","","",""
"null","../img/tt/1200tt.jpg","null","mooney1","image-keyboard-response","98","465907","0.0-6.0-1.13","2372043","co38746","norming","","","","","","",""
"4944","","","post_mooney1_questions","survey-likert","99","470853","0.0-6.0-2.13","2372043","co38746","norming","","","{""curiosity"":3,""confidence"":5}","[0,1]","../img/tt/1200tt.jpg","",""
"3286.999999999942","","","recognition","survey-text","100","474149","0.0-6.0-3.13","2372043","co38746","norming","","","{""guess"":""Race auto""}","","../img/tt/1200tt.jpg","",""
"null","../img/gs/1200gs.jpg","null","reveal","image-keyboard-response","101","476151","0.0-6.0-4.13","2372043","co38746","norming","","","","","","",""
"null","../img/tt/1200tt.jpg","null","mooney2","image-keyboard-response","102","478153","0.0-6.0-5.13","2372043","co38746","norming","","","","","","",""
"2215.000000000058","","","post_reveal_questions","survey-likert","103","480370","0.0-6.0-6.13","2372043","co38746","norming","","","{""aha"":5}","[0]","../img/tt/1200tt.jpg","",""
"null","<div style=""font-size:60px;""> </div>","null","fixation","html-keyboard-response","104","480574","0.0-6.0-0.14","2372043","co38746","norming","","","","","","",""
"null","../img/tt/1101tt.jpg","null","mooney1","image-keyboard-response","105","483575","0.0-6.0-1.14","2372043","co38746","norming","","","","","","",""
"3308","","","post_mooney1_questions","survey-likert","106","486886","0.0-6.0-2.14","2372043","co38746","norming","","","{""curiosity"":4,""confidence"":4}","[0,1]","../img/tt/1101tt.jpg","",""
"3089","","","recognition","survey-text","107","489982","0.0-6.0-3.14","2372043","co38746","norming","","","{""guess"":""Schaatsen""}","","../img/tt/1101tt.jpg","",""
"null","../img/gs/1101gs.jpg","null","reveal","image-keyboard-response","108","491984","0.0-6.0-4.14","2372043","co38746","norming","","","","","","",""
"null","../img/tt/1101tt.jpg","null","mooney2","image-keyboard-response","109","493988","0.0-6.0-5.14","2372043","co38746","norming","","","","","","",""
"1796","","","post_reveal_questions","survey-likert","110","495784","0.0-6.0-6.14","2372043","co38746","norming","","","{""aha"":5}","[0]","../img/tt/1101tt.jpg","",""
"null","<div style=""font-size:60px;""> </div>","null","fixation","html-keyboard-response","111","495987","0.0-6.0-0.15","2372043","co38746","norming","","","","","","",""
"null","../img/tt/1255tt.jpg","null","mooney1","image-keyboard-response","112","498990","0.0-6.0-1.15","2372043","co38746","norming","","","","","","",""
"4675","","","post_mooney1_questions","survey-likert","113","503667","0.0-6.0-2.15","2372043","co38746","norming","","","{""curiosity"":4,""confidence"":1}","[0,1]","../img/tt/1255tt.jpg","",""
"1543","","","recognition","survey-text","114","505218","0.0-6.0-3.15","2372043","co38746","norming","","","{""guess"":""BEer""}","","../img/tt/1255tt.jpg","",""
"null","../img/gs/1255gs.jpg","null","reveal","image-keyboard-response","115","507220","0.0-6.0-4.15","2372043","co38746","norming","","","","","","",""
"null","../img/tt/1255tt.jpg","null","mooney2","image-keyboard-response","116","509223","0.0-6.0-5.15","2372043","co38746","norming","","","","","","",""
"1953","","","post_reveal_questions","survey-likert","117","511177","0.0-6.0-6.15","2372043","co38746","norming","","","{""aha"":6}","[0]","../img/tt/1255tt.jpg","",""
"null","<div style=""font-size:60px;""> </div>","null","fixation","html-keyboard-response","118","511381","0.0-6.0-0.16","2372043","co38746","norming","","","","","","",""
"null","../img/tt/064tt.jpg","null","mooney1","image-keyboard-response","119","514383","0.0-6.0-1.16","2372043","co38746","norming","","","","","","",""
"3422.000000000058","","","post_mooney1_questions","survey-likert","120","517808","0.0-6.0-2.16","2372043","co38746","norming","","","{""curiosity"":5,""confidence"":0}","[0,1]","../img/tt/064tt.jpg","",""
"990.9999999999418","","","recognition","survey-text","121","518806","0.0-6.0-3.16","2372043","co38746","norming","","","{""guess"":""""}","","../img/tt/064tt.jpg","",""
"null","../img/gs/064gs.jpg","null","reveal","image-keyboard-response","122","520808","0.0-6.0-4.16","2372043","co38746","norming","","","","","","",""
"null","../img/tt/064tt.jpg","null","mooney2","image-keyboard-response","123","522810","0.0-6.0-5.16","2372043","co38746","norming","","","","","","",""
"4753","","","post_reveal_questions","survey-likert","124","527565","0.0-6.0-6.16","2372043","co38746","norming","","","{""aha"":6}","[0]","../img/tt/064tt.jpg","",""
"null","<div style=""font-size:60px;""> </div>","null","fixation","html-keyboard-response","125","527768","0.0-6.0-0.17","2372043","co38746","norming","","","","","","",""
"null","../img/tt/273tt.jpg","null","mooney1","image-keyboard-response","126","530772","0.0-6.0-1.17","2372043","co38746","norming","","","","","","",""
"4086","","","post_mooney1_questions","survey-likert","127","534860","0.0-6.0-2.17","2372043","co38746","norming","","","{""curiosity"":5,""confidence"":1}","[0,1]","../img/tt/273tt.jpg","",""
"1506","","","recognition","survey-text","128","536374","0.0-6.0-3.17","2372043","co38746","norming","","","{""guess"":""Handen""}","","../img/tt/273tt.jpg","",""
"null","../img/gs/273gs.jpg","null","reveal","image-keyboard-response","129","538375","0.0-6.0-4.17","2372043","co38746","norming","","","","","","",""
"null","../img/tt/273tt.jpg","null","mooney2","image-keyboard-response","130","540377","0.0-6.0-5.17","2372043","co38746","norming","","","","","","",""
"2695","","","post_reveal_questions","survey-likert","131","543074","0.0-6.0-6.17","2372043","co38746","norming","","","{""aha"":2}","[0]","../img/tt/273tt.jpg","",""
"null","<div style=""font-size:60px;""> </div>","null","fixation","html-keyboard-response","132","543277","0.0-6.0-0.18","2372043","co38746","norming","","","","","","",""
"null","../img/tt/481tt.jpg","null","mooney1","image-keyboard-response","133","546279","0.0-6.0-1.18","2372043","co38746","norming","","","","","","",""
"4340.999999999884","","","post_mooney1_questions","survey-likert","134","550622","0.0-6.0-2.18","2372043","co38746","norming","","","{""curiosity"":4,""confidence"":4}","[0,1]","../img/tt/481tt.jpg","",""
"1121","","","recognition","survey-text","135","551751","0.0-6.0-3.18","2372043","co38746","norming","","","{""guess"":""hond""}","","../img/tt/481tt.jpg","",""
"null","../img/gs/481gs.jpg","null","reveal","image-keyboard-response","136","553753","0.0-6.0-4.18","2372043","co38746","norming","","","","","","",""
"null","../img/tt/481tt.jpg","null","mooney2","image-keyboard-response","137","555756","0.0-6.0-5.18","2372043","co38746","norming","","","","","","",""
"2396.9999999998836","","","post_reveal_questions","survey-likert","138","558155","0.0-6.0-6.18","2372043","co38746","norming","","","{""aha"":4}","[0]","../img/tt/481tt.jpg","",""
"null","<div style=""font-size:60px;""> </div>","null","fixation","html-keyboard-response","139","558359","0.0-6.0-0.19","2372043","co38746","norming","","","","","","",""
"null","../img/tt/1181tt.jpg","null","mooney1","image-keyboard-response","140","561362","0.0-6.0-1.19","2372043","co38746","norming","","","","","","",""
"3736","","","post_mooney1_questions","survey-likert","141","565100","0.0-6.0-2.19","2372043","co38746","norming","","","{""curiosity"":4,""confidence"":4}","[0,1]","../img/tt/1181tt.jpg","",""
"1256","","","recognition","survey-text","142","566364","0.0-6.0-3.19","2372043","co38746","norming","","","{""guess"":""Manne""}","","../img/tt/1181tt.jpg","",""
"null","../img/gs/1181gs.jpg","null","reveal","image-keyboard-response","143","568366","0.0-6.0-4.19","2372043","co38746","norming","","","","","","",""
"null","../img/tt/1181tt.jpg","null","mooney2","image-keyboard-response","144","570368","0.0-6.0-5.19","2372043","co38746","norming","","","","","","",""
"4207","","","post_reveal_questions","survey-likert","145","574577","0.0-6.0-6.19","2372043","co38746","norming","","","{""aha"":2}","[0]","../img/tt/1181tt.jpg","",""
"null","<div style=""font-size:60px;""> </div>","null","fixation","html-keyboard-response","146","574781","0.0-6.0-0.20","2372043","co38746","norming","","","","","","",""
"null","../img/tt/1070tt.jpg","null","mooney1","image-keyboard-response","147","577783","0.0-6.0-1.20","2372043","co38746","norming","","","","","","",""
"3672","","","post_mooney1_questions","survey-likert","148","581457","0.0-6.0-2.20","2372043","co38746","norming","","","{""curiosity"":4,""confidence"":4}","[0,1]","../img/tt/1070tt.jpg","",""
"2636","","","recognition","survey-text","149","584101","0.0-6.0-3.20","2372043","co38746","norming","","","{""guess"":""zonnebank""}","","../img/tt/1070tt.jpg","",""
"null","../img/gs/1070gs.jpg","null","reveal","image-keyboard-response","150","586103","0.0-6.0-4.20","2372043","co38746","norming","","","","","","",""
"null","../img/tt/1070tt.jpg","null","mooney2","image-keyboard-response","151","588106","0.0-6.0-5.20","2372043","co38746","norming","","","","","","",""
"3076","","","post_reveal_questions","survey-likert","152","591184","0.0-6.0-6.20","2372043","co38746","norming","","","{""aha"":5}","[0]","../img/tt/1070tt.jpg","",""
"null","<div style=""font-size:60px;""> </div>","null","fixation","html-keyboard-response","153","591387","0.0-6.0-0.21","2372043","co38746","norming","","","","","","",""
"null","../img/tt/111tt.jpg","null","mooney1","image-keyboard-response","154","594390","0.0-6.0-1.21","2372043","co38746","norming","","","","","","",""
"3566","","","post_mooney1_questions","survey-likert","155","597958","0.0-6.0-2.21","2372043","co38746","norming","","","{""curiosity"":4,""confidence"":2}","[0,1]","../img/tt/111tt.jpg","",""
"3503","","","recognition","survey-text","156","601469","0.0-6.0-3.21","2372043","co38746","norming","","","{""guess"":""telefoon""}","","../img/tt/111tt.jpg","",""
"null","../img/gs/111gs.jpg","null","reveal","image-keyboard-response","157","603471","0.0-6.0-4.21","2372043","co38746","norming","","","","","","",""
"null","../img/tt/111tt.jpg","null","mooney2","image-keyboard-response","158","605474","0.0-6.0-5.21","2372043","co38746","norming","","","","","","",""
"2043","","","post_reveal_questions","survey-likert","159","607519","0.0-6.0-6.21","2372043","co38746","norming","","","{""aha"":6}","[0]","../img/tt/111tt.jpg","",""
"null","<div style=""font-size:60px;""> </div>","null","fixation","html-keyboard-response","160","607722","0.0-6.0-0.22","2372043","co38746","norming","","","","","","",""
"null","../img/tt/010tt.jpg","null","mooney1","image-keyboard-response","161","610725","0.0-6.0-1.22","2372043","co38746","norming","","","","","","",""
"4844","","","post_mooney1_questions","survey-likert","162","615572","0.0-6.0-2.22","2372043","co38746","norming","","","{""curiosity"":4,""confidence"":2}","[0,1]","../img/tt/010tt.jpg","",""
"2117","","","recognition","survey-text","163","617696","0.0-6.0-3.22","2372043","co38746","norming","","","{""guess"":""trofee""}","","../img/tt/010tt.jpg","",""
"null","../img/gs/010gs.jpg","null","reveal","image-keyboard-response","164","619698","0.0-6.0-4.22","2372043","co38746","norming","","","","","","",""
"null","../img/tt/010tt.jpg","null","mooney2","image-keyboard-response","165","621701","0.0-6.0-5.22","2372043","co38746","norming","","","","","","",""
"3283.0000000001164","","","post_reveal_questions","survey-likert","166","624986","0.0-6.0-6.22","2372043","co38746","norming","","","{""aha"":6}","[0]","../img/tt/010tt.jpg","",""
"null","<div style=""font-size:60px;""> </div>","null","fixation","html-keyboard-response","167","625189","0.0-6.0-0.23","2372043","co38746","norming","","","","","","",""
"null","../img/tt/053tt.jpg","null","mooney1","image-keyboard-response","168","628192","0.0-6.0-1.23","2372043","co38746","norming","","","","","","",""
"4786","","","post_mooney1_questions","survey-likert","169","632979","0.0-6.0-2.23","2372043","co38746","norming","","","{""curiosity"":4,""confidence"":5}","[0,1]","../img/tt/053tt.jpg","",""
"2467","","","recognition","survey-text","170","635454","0.0-6.0-3.23","2372043","co38746","norming","","","{""guess"":""kajaken""}","","../img/tt/053tt.jpg","",""
"null","../img/gs/053gs.jpg","null","reveal","image-keyboard-response","171","637456","0.0-6.0-4.23","2372043","co38746","norming","","","","","","",""
"null","../img/tt/053tt.jpg","null","mooney2","image-keyboard-response","172","639458","0.0-6.0-5.23","2372043","co38746","norming","","","","","","",""
"1996","","","post_reveal_questions","survey-likert","173","641456","0.0-6.0-6.23","2372043","co38746","norming","","","{""aha"":3}","[0]","../img/tt/053tt.jpg","",""
"null","<div style=""font-size:60px;""> </div>","null","fixation","html-keyboard-response","174","641660","0.0-6.0-0.24","2372043","co38746","norming","","","","","","",""
"null","../img/tt/044tt.jpg","null","mooney1","image-keyboard-response","175","644662","0.0-6.0-1.24","2372043","co38746","norming","","","","","","",""
"3046","","","post_mooney1_questions","survey-likert","176","647711","0.0-6.0-2.24","2372043","co38746","norming","","","{""curiosity"":5,""confidence"":2}","[0,1]","../img/tt/044tt.jpg","",""
"2891","","","recognition","survey-text","177","650610","0.0-6.0-3.24","2372043","co38746","norming","","","{""guess"":""orkest""}","","../img/tt/044tt.jpg","",""
"null","../img/gs/044gs.jpg","null","reveal","image-keyboard-response","178","652612","0.0-6.0-4.24","2372043","co38746","norming","","","","","","",""
"null","../img/tt/044tt.jpg","null","mooney2","image-keyboard-response","179","654615","0.0-6.0-5.24","2372043","co38746","norming","","","","","","",""
"2233","","","post_reveal_questions","survey-likert","180","656850","0.0-6.0-6.24","2372043","co38746","norming","","","{""aha"":5}","[0]","../img/tt/044tt.jpg","",""
"null","<div style=""font-size:60px;""> </div>","null","fixation","html-keyboard-response","181","657053","0.0-6.0-0.25","2372043","co38746","norming","","","","","","",""
"null","../img/tt/1146tt.jpg","null","mooney1","image-keyboard-response","182","660055","0.0-6.0-1.25","2372043","co38746","norming","","","","","","",""
"4088","","","post_mooney1_questions","survey-likert","183","664144","0.0-6.0-2.25","2372043","co38746","norming","","","{""curiosity"":5,""confidence"":3}","[0,1]","../img/tt/1146tt.jpg","",""
"1892","","","recognition","survey-text","184","666045","0.0-6.0-3.25","2372043","co38746","norming","","","{""guess"":""katapult""}","","../img/tt/1146tt.jpg","",""
"null","../img/gs/1146gs.jpg","null","reveal","image-keyboard-response","185","668048","0.0-6.0-4.25","2372043","co38746","norming","","","","","","",""
"null","../img/tt/1146tt.jpg","null","mooney2","image-keyboard-response","186","670050","0.0-6.0-5.25","2372043","co38746","norming","","","","","","",""
"5441","","","post_reveal_questions","survey-likert","187","675493","0.0-6.0-6.25","2372043","co38746","norming","","","{""aha"":3}","[0]","../img/tt/1146tt.jpg","",""
"null","<div style=""font-size:60px;""> </div>","null","fixation","html-keyboard-response","188","675697","0.0-6.0-0.26","2372043","co38746","norming","","","","","","",""
"null","../img/tt/118tt.jpg","null","mooney1","image-keyboard-response","189","678700","0.0-6.0-1.26","2372043","co38746","norming","","","","","","",""
"4240","","","post_mooney1_questions","survey-likert","190","682942","0.0-6.0-2.26","2372043","co38746","norming","","","{""curiosity"":3,""confidence"":1}","[0,1]","../img/tt/118tt.jpg","",""
"1230","","","recognition","survey-text","191","684180","0.0-6.0-3.26","2372043","co38746","norming","","","{""guess"":""trap""}","","../img/tt/118tt.jpg","",""
"null","../img/gs/118gs.jpg","null","reveal","image-keyboard-response","192","686182","0.0-6.0-4.26","2372043","co38746","norming","","","","","","",""
"null","../img/tt/118tt.jpg","null","mooney2","image-keyboard-response","193","688184","0.0-6.0-5.26","2372043","co38746","norming","","","","","","",""
"1798","","","post_reveal_questions","survey-likert","194","689984","0.0-6.0-6.26","2372043","co38746","norming","","","{""aha"":5}","[0]","../img/tt/118tt.jpg","",""
"null","<div style=""font-size:60px;""> </div>","null","fixation","html-keyboard-response","195","690187","0.0-6.0-0.27","2372043","co38746","norming","","","","","","",""
"null","../img/tt/1049tt.jpg","null","mooney1","image-keyboard-response","196","693189","0.0-6.0-1.27","2372043","co38746","norming","","","","","","",""
"3577","","","post_mooney1_questions","survey-likert","197","696768","0.0-6.0-2.27","2372043","co38746","norming","","","{""curiosity"":3,""confidence"":1}","[0,1]","../img/tt/1049tt.jpg","",""
"910","","","recognition","survey-text","198","697686","0.0-6.0-3.27","2372043","co38746","norming","","","{""guess"":""schaap""}","","../img/tt/1049tt.jpg","",""
"null","../img/gs/1049gs.jpg","null","reveal","image-keyboard-response","199","699689","0.0-6.0-4.27","2372043","co38746","norming","","","","","","",""
"null","../img/tt/1049tt.jpg","null","mooney2","image-keyboard-response","200","701690","0.0-6.0-5.27","2372043","co38746","norming","","","","","","",""
"2212","","","post_reveal_questions","survey-likert","201","703904","0.0-6.0-6.27","2372043","co38746","norming","","","{""aha"":5}","[0]","../img/tt/1049tt.jpg","",""
"null","<div style=""font-size:60px;""> </div>","null","fixation","html-keyboard-response","202","704107","0.0-6.0-0.28","2372043","co38746","norming","","","","","","",""
"null","../img/tt/1006tt.jpg","null","mooney1","image-keyboard-response","203","707110","0.0-6.0-1.28","2372043","co38746","norming","","","","","","",""
"3007","","","post_mooney1_questions","survey-likert","204","710119","0.0-6.0-2.28","2372043","co38746","norming","","","{""curiosity"":4,""confidence"":2}","[0,1]","../img/tt/1006tt.jpg","",""
"1550.9999999998836","","","recognition","survey-text","205","711678","0.0-6.0-3.28","2372043","co38746","norming","","","{""guess"":""schaap""}","","../img/tt/1006tt.jpg","",""
"null","../img/gs/1006gs.jpg","null","reveal","image-keyboard-response","206","713681","0.0-6.0-4.28","2372043","co38746","norming","","","","","","",""
"null","../img/tt/1006tt.jpg","null","mooney2","image-keyboard-response","207","715683","0.0-6.0-5.28","2372043","co38746","norming","","","","","","",""
"3678","","","post_reveal_questions","survey-likert","208","719364","0.0-6.0-6.28","2372043","co38746","norming","","","{""aha"":5}","[0]","../img/tt/1006tt.jpg","",""
"null","<div style=""font-size:60px;""> </div>","null","fixation","html-keyboard-response","209","719567","0.0-6.0-0.29","2372043","co38746","norming","","","","","","",""
"null","../img/tt/1226tt.jpg","null","mooney1","image-keyboard-response","210","722569","0.0-6.0-1.29","2372043","co38746","norming","","","","","","",""
"3884.0000000001164","","","post_mooney1_questions","survey-likert","211","726455","0.0-6.0-2.29","2372043","co38746","norming","","","{""curiosity"":4,""confidence"":1}","[0,1]","../img/tt/1226tt.jpg","",""
"1139","","","recognition","survey-text","212","727602","0.0-6.0-3.29","2372043","co38746","norming","","","{""guess"":""kip""}","","../img/tt/1226tt.jpg","",""
"null","../img/gs/1226gs.jpg","null","reveal","image-keyboard-response","213","729605","0.0-6.0-4.29","2372043","co38746","norming","","","","","","",""
"null","../img/tt/1226tt.jpg","null","mooney2","image-keyboard-response","214","731607","0.0-6.0-5.29","2372043","co38746","norming","","","","","","",""
"2510.9999999998836","","","post_reveal_questions","survey-likert","215","734120","0.0-6.0-6.29","2372043","co38746","norming","","","{""aha"":6}","[0]","../img/tt/1226tt.jpg","",""
"null","<div style=""font-size:60px;""> </div>","null","fixation","html-keyboard-response","216","734324","0.0-6.0-0.30","2372043","co38746","norming","","","","","","",""
"null","../img/tt/315tt.jpg","null","mooney1","image-keyboard-response","217","737326","0.0-6.0-1.30","2372043","co38746","norming","","","","","","",""
"2996","","","post_mooney1_questions","survey-likert","218","740324","0.0-6.0-2.30","2372043","co38746","norming","","","{""curiosity"":4,""confidence"":0}","[0,1]","../img/tt/315tt.jpg","",""
"804","","","recognition","survey-text","219","741136","0.0-6.0-3.30","2372043","co38746","norming","","","{""guess"":""""}","","../img/tt/315tt.jpg","",""
"null","../img/gs/315gs.jpg","null","reveal","image-keyboard-response","220","743139","0.0-6.0-4.30","2372043","co38746","norming","","","","","","",""
"null","../img/tt/315tt.jpg","null","mooney2","image-keyboard-response","221","745141","0.0-6.0-5.30","2372043","co38746","norming","","","","","","",""
"1742","","","post_reveal_questions","survey-likert","222","746885","0.0-6.0-6.30","2372043","co38746","norming","","","{""aha"":5}","[0]","../img/tt/315tt.jpg","",""
"null","<div style=""font-size:60px;""> </div>","null","fixation","html-keyboard-response","223","747089","0.0-6.0-0.31","2372043","co38746","norming","","","","","","",""
"null","../img/tt/567tt.jpg","null","mooney1","image-keyboard-response","224","750091","0.0-6.0-1.31","2372043","co38746","norming","","","","","","",""
"3737.0000000001164","","","post_mooney1_questions","survey-likert","225","753831","0.0-6.0-2.31","2372043","co38746","norming","","","{""curiosity"":4,""confidence"":0}","[0,1]","../img/tt/567tt.jpg","",""
"552","","","recognition","survey-text","226","754391","0.0-6.0-3.31","2372043","co38746","norming","","","{""guess"":""""}","","../img/tt/567tt.jpg","",""
"null","../img/gs/567gs.jpg","null","reveal","image-keyboard-response","227","756392","0.0-6.0-4.31","2372043","co38746","norming","","","","","","",""
"null","../img/tt/567tt.jpg","null","mooney2","image-keyboard-response","228","758395","0.0-6.0-5.31","2372043","co38746","norming","","","","","","",""
"2001","","","post_reveal_questions","survey-likert","229","760398","0.0-6.0-6.31","2372043","co38746","norming","","","{""aha"":5}","[0]","../img/tt/567tt.jpg","",""
"null","<div style=""font-size:60px;""> </div>","null","fixation","html-keyboard-response","230","760601","0.0-6.0-0.32","2372043","co38746","norming","","","","","","",""
"null","../img/tt/1143tt.jpg","null","mooney1","image-keyboard-response","231","763603","0.0-6.0-1.32","2372043","co38746","norming","","","","","","",""
"4590.999999999884","","","post_mooney1_questions","survey-likert","232","768196","0.0-6.0-2.32","2372043","co38746","norming","","","{""curiosity"":5,""confidence"":1}","[0,1]","../img/tt/1143tt.jpg","",""
"1723","","","recognition","survey-text","233","769928","0.0-6.0-3.32","2372043","co38746","norming","","","{""guess"":""mensen""}","","../img/tt/1143tt.jpg","",""
"null","../img/gs/1143gs.jpg","null","reveal","image-keyboard-response","234","771931","0.0-6.0-4.32","2372043","co38746","norming","","","","","","",""
"null","../img/tt/1143tt.jpg","null","mooney2","image-keyboard-response","235","773933","0.0-6.0-5.32","2372043","co38746","norming","","","","","","",""
"3000","","","post_reveal_questions","survey-likert","236","776935","0.0-6.0-6.32","2372043","co38746","norming","","","{""aha"":4}","[0]","../img/tt/1143tt.jpg","",""
"null","<div style=""font-size:60px;""> </div>","null","fixation","html-keyboard-response","237","777138","0.0-6.0-0.33","2372043","co38746","norming","","","","","","",""
"null","../img/tt/1102tt.jpg","null","mooney1","image-keyboard-response","238","780140","0.0-6.0-1.33","2372043","co38746","norming","","","","","","",""
"3266.0000000001164","","","post_mooney1_questions","survey-likert","239","783409","0.0-6.0-2.33","2372043","co38746","norming","","","{""curiosity"":4,""confidence"":0}","[0,1]","../img/tt/1102tt.jpg","",""
"699.0000000001164","","","recognition","survey-text","240","784116","0.0-6.0-3.33","2372043","co38746","norming","","","{""guess"":""""}","","../img/tt/1102tt.jpg","",""
"null","../img/gs/1102gs.jpg","null","reveal","image-keyboard-response","241","786118","0.0-6.0-4.33","2372043","co38746","norming","","","","","","",""
"null","../img/tt/1102tt.jpg","null","mooney2","image-keyboard-response","242","788120","0.0-6.0-5.33","2372043","co38746","norming","","","","","","",""
"2744","","","post_reveal_questions","survey-likert","243","790867","0.0-6.0-6.33","2372043","co38746","norming","","","{""aha"":4}","[0]","../img/tt/1102tt.jpg","",""
"null","<div style=""font-size:60px;""> </div>","null","fixation","html-keyboard-response","244","791071","0.0-6.0-0.34","2372043","co38746","norming","","","","","","",""
"null","../img/tt/091tt.jpg","null","mooney1","image-keyboard-response","245","794074","0.0-6.0-1.34","2372043","co38746","norming","","","","","","",""
"5285.000000000116","","","post_mooney1_questions","survey-likert","246","799361","0.0-6.0-2.34","2372043","co38746","norming","","","{""curiosity"":5,""confidence"":1}","[0,1]","../img/tt/091tt.jpg","",""
"1922","","","recognition","survey-text","247","801291","0.0-6.0-3.34","2372043","co38746","norming","","","{""guess"":""hond""}","","../img/tt/091tt.jpg","",""
"null","../img/gs/091gs.jpg","null","reveal","image-keyboard-response","248","803294","0.0-6.0-4.34","2372043","co38746","norming","","","","","","",""
"null","../img/tt/091tt.jpg","null","mooney2","image-keyboard-response","249","805296","0.0-6.0-5.34","2372043","co38746","norming","","","","","","",""
"1845","","","post_reveal_questions","survey-likert","250","807143","0.0-6.0-6.34","2372043","co38746","norming","","","{""aha"":5}","[0]","../img/tt/091tt.jpg","",""
"null","<div style=""font-size:60px;""> </div>","null","fixation","html-keyboard-response","251","807346","0.0-6.0-0.35","2372043","co38746","norming","","","","","","",""
"null","../img/tt/1261tt.jpg","null","mooney1","image-keyboard-response","252","810348","0.0-6.0-1.35","2372043","co38746","norming","","","","","","",""
"4452","","","post_mooney1_questions","survey-likert","253","814802","0.0-6.0-2.35","2372043","co38746","norming","","","{""curiosity"":5,""confidence"":1}","[0,1]","../img/tt/1261tt.jpg","",""
"3617","","","recognition","survey-text","254","818427","0.0-6.0-3.35","2372043","co38746","norming","","","{""guess"":""luchtrooster""}","","../img/tt/1261tt.jpg","",""
"null","../img/gs/1261gs.jpg","null","reveal","image-keyboard-response","255","820429","0.0-6.0-4.35","2372043","co38746","norming","","","","","","",""
"null","../img/tt/1261tt.jpg","null","mooney2","image-keyboard-response","256","822432","0.0-6.0-5.35","2372043","co38746","norming","","","","","","",""
"1780.9999999998836","","","post_reveal_questions","survey-likert","257","824215","0.0-6.0-6.35","2372043","co38746","norming","","","{""aha"":4}","[0]","../img/tt/1261tt.jpg","",""
"null","<div style=""font-size:60px;""> </div>","null","fixation","html-keyboard-response","258","824418","0.0-6.0-0.36","2372043","co38746","norming","","","","","","",""
"null","../img/tt/098tt.jpg","null","mooney1","image-keyboard-response","259","827420","0.0-6.0-1.36","2372043","co38746","norming","","","","","","",""
"3246","","","post_mooney1_questions","survey-likert","260","830668","0.0-6.0-2.36","2372043","co38746","norming","","","{""curiosity"":5,""confidence"":1}","[0,1]","../img/tt/098tt.jpg","",""
"3491","","","recognition","survey-text","261","834167","0.0-6.0-3.36","2372043","co38746","norming","","","{""guess"":""hamster""}","","../img/tt/098tt.jpg","",""
"null","../img/gs/098gs.jpg","null","reveal","image-keyboard-response","262","836169","0.0-6.0-4.36","2372043","co38746","norming","","","","","","",""
"null","../img/tt/098tt.jpg","null","mooney2","image-keyboard-response","263","838171","0.0-6.0-5.36","2372043","co38746","norming","","","","","","",""
"2501","","","post_reveal_questions","survey-likert","264","840674","0.0-6.0-6.36","2372043","co38746","norming","","","{""aha"":6}","[0]","../img/tt/098tt.jpg","",""
"null","<div style=""font-size:60px;""> </div>","null","fixation","html-keyboard-response","265","840877","0.0-6.0-0.37","2372043","co38746","norming","","","","","","",""
"null","../img/tt/1037tt.jpg","null","mooney1","image-keyboard-response","266","843880","0.0-6.0-1.37","2372043","co38746","norming","","","","","","",""
"3622","","","post_mooney1_questions","survey-likert","267","847504","0.0-6.0-2.37","2372043","co38746","norming","","","{""curiosity"":5,""confidence"":0}","[0,1]","../img/tt/1037tt.jpg","",""
"634","","","recognition","survey-text","268","848146","0.0-6.0-3.37","2372043","co38746","norming","","","{""guess"":""""}","","../img/tt/1037tt.jpg","",""
"null","../img/gs/1037gs.jpg","null","reveal","image-keyboard-response","269","850148","0.0-6.0-4.37","2372043","co38746","norming","","","","","","",""
"null","../img/tt/1037tt.jpg","null","mooney2","image-keyboard-response","270","852151","0.0-6.0-5.37","2372043","co38746","norming","","","","","","",""
"2649","","","post_reveal_questions","survey-likert","271","854801","0.0-6.0-6.37","2372043","co38746","norming","","","{""aha"":6}","[0]","../img/tt/1037tt.jpg","",""
"null","<div style=""font-size:60px;""> </div>","null","fixation","html-keyboard-response","272","855004","0.0-6.0-0.38","2372043","co38746","norming","","","","","","",""
"null","../img/tt/1123tt.jpg","null","mooney1","image-keyboard-response","273","858006","0.0-6.0-1.38","2372043","co38746","norming","","","","","","",""
"3599.0000000001164","","","post_mooney1_questions","survey-likert","274","861608","0.0-6.0-2.38","2372043","co38746","norming","","","{""curiosity"":5,""confidence"":2}","[0,1]","../img/tt/1123tt.jpg","",""
"1148","","","recognition","survey-text","275","862764","0.0-6.0-3.38","2372043","co38746","norming","","","{""guess"":""zon""}","","../img/tt/1123tt.jpg","",""
"null","../img/gs/1123gs.jpg","null","reveal","image-keyboard-response","276","864766","0.0-6.0-4.38","2372043","co38746","norming","","","","","","",""
"null","../img/tt/1123tt.jpg","null","mooney2","image-keyboard-response","277","866769","0.0-6.0-5.38","2372043","co38746","norming","","","","","","",""
"1663","","","post_reveal_questions","survey-likert","278","868433","0.0-6.0-6.38","2372043","co38746","norming","","","{""aha"":6}","[0]","../img/tt/1123tt.jpg","",""
"null","<div style=""font-size:60px;""> </div>","null","fixation","html-keyboard-response","279","868636","0.0-6.0-0.39","2372043","co38746","norming","","","","","","",""
"null","../img/tt/584tt.jpg","null","mooney1","image-keyboard-response","280","871638","0.0-6.0-1.39","2372043","co38746","norming","","","","","","",""
"3501","","","post_mooney1_questions","survey-likert","281","875141","0.0-6.0-2.39","2372043","co38746","norming","","","{""curiosity"":3,""confidence"":5}","[0,1]","../img/tt/584tt.jpg","",""
"2579.0000000001164","","","recognition","survey-text","282","877728","0.0-6.0-3.39","2372043","co38746","norming","","","{""guess"":""gereedschap""}","","../img/tt/584tt.jpg","",""
"null","../img/gs/584gs.jpg","null","reveal","image-keyboard-response","283","879730","0.0-6.0-4.39","2372043","co38746","norming","","","","","","",""
"null","../img/tt/584tt.jpg","null","mooney2","image-keyboard-response","284","881733","0.0-6.0-5.39","2372043","co38746","norming","","","","","","",""
"5920","","","post_reveal_questions","survey-likert","285","887654","0.0-6.0-6.39","2372043","co38746","norming","","","{""aha"":1}","[0]","../img/tt/584tt.jpg","",""
"null","<div style=""font-size:60px;""> </div>","null","fixation","html-keyboard-response","286","887857","0.0-6.0-0.40","2372043","co38746","norming","","","","","","",""
"null","../img/tt/1043tt.jpg","null","mooney1","image-keyboard-response","287","890860","0.0-6.0-1.40","2372043","co38746","norming","","","","","","",""
"3015","","","post_mooney1_questions","survey-likert","288","893877","0.0-6.0-2.40","2372043","co38746","norming","","","{""curiosity"":5,""confidence"":1}","[0,1]","../img/tt/1043tt.jpg","",""
"2145","","","recognition","survey-text","289","896030","0.0-6.0-3.40","2372043","co38746","norming","","","{""guess"":""auto""}","","../img/tt/1043tt.jpg","",""
"null","../img/gs/1043gs.jpg","null","reveal","image-keyboard-response","290","898032","0.0-6.0-4.40","2372043","co38746","norming","","","","","","",""
"null","../img/tt/1043tt.jpg","null","mooney2","image-keyboard-response","291","900034","0.0-6.0-5.40","2372043","co38746","norming","","","","","","",""
"2231","","","post_reveal_questions","survey-likert","292","902267","0.0-6.0-6.40","2372043","co38746","norming","","","{""aha"":4}","[0]","../img/tt/1043tt.jpg","",""
"null","<div style=""font-size:60px;""> </div>","null","fixation","html-keyboard-response","293","902470","0.0-6.0-0.41","2372043","co38746","norming","","","","","","",""
"null","../img/tt/1196tt.jpg","null","mooney1","image-keyboard-response","294","905472","0.0-6.0-1.41","2372043","co38746","norming","","","","","","",""
"4055","","","post_mooney1_questions","survey-likert","295","909529","0.0-6.0-2.41","2372043","co38746","norming","","","{""curiosity"":5,""confidence"":2}","[0,1]","../img/tt/1196tt.jpg","",""
"4973.999999999884","","","recognition","survey-text","296","914512","0.0-6.0-3.41","2372043","co38746","norming","","","{""guess"":""menselijke piramide""}","","../img/tt/1196tt.jpg","",""
"null","../img/gs/1196gs.jpg","null","reveal","image-keyboard-response","297","916514","0.0-6.0-4.41","2372043","co38746","norming","","","","","","",""
"null","../img/tt/1196tt.jpg","null","mooney2","image-keyboard-response","298","918516","0.0-6.0-5.41","2372043","co38746","norming","","","","","","",""
"1952","","","post_reveal_questions","survey-likert","299","920468","0.0-6.0-6.41","2372043","co38746","norming","","","{""aha"":3}","[0]","../img/tt/1196tt.jpg","",""
"null","<div style=""font-size:60px;""> </div>","null","fixation","html-keyboard-response","300","920671","0.0-6.0-0.42","2372043","co38746","norming","","","","","","",""
"null","../img/tt/279tt.jpg","null","mooney1","image-keyboard-response","301","923669","0.0-6.0-1.42","2372043","co38746","norming","","","","","","",""
"3168","","","post_mooney1_questions","survey-likert","302","926835","0.0-6.0-2.42","2372043","co38746","norming","","","{""curiosity"":5,""confidence"":2}","[0,1]","../img/tt/279tt.jpg","",""
"1196","","","recognition","survey-text","303","928038","0.0-6.0-3.42","2372043","co38746","norming","","","{""guess"":""panda""}","","../img/tt/279tt.jpg","",""
"null","../img/gs/279gs.jpg","null","reveal","image-keyboard-response","304","930039","0.0-6.0-4.42","2372043","co38746","norming","","","","","","",""
"null","../img/tt/279tt.jpg","null","mooney2","image-keyboard-response","305","932039","0.0-6.0-5.42","2372043","co38746","norming","","","","","","",""
"3041","","","post_reveal_questions","survey-likert","306","935080","0.0-6.0-6.42","2372043","co38746","norming","","","{""aha"":3}","[0]","../img/tt/279tt.jpg","",""
"null","<div style=""font-size:60px;""> </div>","null","fixation","html-keyboard-response","307","935284","0.0-6.0-0.43","2372043","co38746","norming","","","","","","",""
"null","../img/tt/1080tt.jpg","null","mooney1","image-keyboard-response","308","938285","0.0-6.0-1.43","2372043","co38746","norming","","","","","","",""
"4107","","","post_mooney1_questions","survey-likert","309","942392","0.0-6.0-2.43","2372043","co38746","norming","","","{""curiosity"":4,""confidence"":1}","[0,1]","../img/tt/1080tt.jpg","",""
"1604.9999999998836","","","recognition","survey-text","310","944004","0.0-6.0-3.43","2372043","co38746","norming","","","{""guess"":""stadion""}","","../img/tt/1080tt.jpg","",""
"null","../img/gs/1080gs.jpg","null","reveal","image-keyboard-response","311","946006","0.0-6.0-4.43","2372043","co38746","norming","","","","","","",""
"null","../img/tt/1080tt.jpg","null","mooney2","image-keyboard-response","312","948008","0.0-6.0-5.43","2372043","co38746","norming","","","","","","",""
"2210.9999999998836","","","post_reveal_questions","survey-likert","313","950219","0.0-6.0-6.43","2372043","co38746","norming","","","{""aha"":5}","[0]","../img/tt/1080tt.jpg","",""
"null","<div style=""font-size:60px;""> </div>","null","fixation","html-keyboard-response","314","950422","0.0-6.0-0.44","2372043","co38746","norming","","","","","","",""
"null","../img/tt/418tt.jpg","null","mooney1","image-keyboard-response","315","953423","0.0-6.0-1.44","2372043","co38746","norming","","","","","","",""
"4038","","","post_mooney1_questions","survey-likert","316","957462","0.0-6.0-2.44","2372043","co38746","norming","","","{""curiosity"":6,""confidence"":0}","[0,1]","../img/tt/418tt.jpg","",""
"771.9999999998836","","","recognition","survey-text","317","958241","0.0-6.0-3.44","2372043","co38746","norming","","","{""guess"":""""}","","../img/tt/418tt.jpg","",""
"null","../img/gs/418gs.jpg","null","reveal","image-keyboard-response","318","960243","0.0-6.0-4.44","2372043","co38746","norming","","","","","","",""
"null","../img/tt/418tt.jpg","null","mooney2","image-keyboard-response","319","962246","0.0-6.0-5.44","2372043","co38746","norming","","","","","","",""
"1949","","","post_reveal_questions","survey-likert","320","964196","0.0-6.0-6.44","2372043","co38746","norming","","","{""aha"":6}","[0]","../img/tt/418tt.jpg","",""
"null","<div style=""font-size:60px;""> </div>","null","fixation","html-keyboard-response","321","964400","0.0-6.0-0.45","2372043","co38746","norming","","","","","","",""
"null","../img/tt/1254tt.jpg","null","mooney1","image-keyboard-response","322","967402","0.0-6.0-1.45","2372043","co38746","norming","","","","","","",""
"4175","","","post_mooney1_questions","survey-likert","323","971579","0.0-6.0-2.45","2372043","co38746","norming","","","{""curiosity"":4,""confidence"":3}","[0,1]","../img/tt/1254tt.jpg","",""
"1907","","","recognition","survey-text","324","973494","0.0-6.0-3.45","2372043","co38746","norming","","","{""guess"":""konijn""}","","../img/tt/1254tt.jpg","",""
"null","../img/gs/1254gs.jpg","null","reveal","image-keyboard-response","325","975496","0.0-6.0-4.45","2372043","co38746","norming","","","","","","",""
"null","../img/tt/1254tt.jpg","null","mooney2","image-keyboard-response","326","977498","0.0-6.0-5.45","2372043","co38746","norming","","","","","","",""
"2553","","","post_reveal_questions","survey-likert","327","980053","0.0-6.0-6.45","2372043","co38746","norming","","","{""aha"":1}","[0]","../img/tt/1254tt.jpg","",""
"null","<div style=""font-size:60px;""> </div>","null","fixation","html-keyboard-response","328","980255","0.0-6.0-0.46","2372043","co38746","norming","","","","","","",""
"null","../img/tt/1066tt.jpg","null","mooney1","image-keyboard-response","329","983258","0.0-6.0-1.46","2372043","co38746","norming","","","","","","",""
"3599","","","post_mooney1_questions","survey-likert","330","986860","0.0-6.0-2.46","2372043","co38746","norming","","","{""curiosity"":4,""confidence"":4}","[0,1]","../img/tt/1066tt.jpg","",""
"1140.9999999998836","","","recognition","survey-text","331","988009","0.0-6.0-3.46","2372043","co38746","norming","","","{""guess"":""bus""}","","../img/tt/1066tt.jpg","",""
"null","../img/gs/1066gs.jpg","null","reveal","image-keyboard-response","332","990010","0.0-6.0-4.46","2372043","co38746","norming","","","","","","",""
"null","../img/tt/1066tt.jpg","null","mooney2","image-keyboard-response","333","992012","0.0-6.0-5.46","2372043","co38746","norming","","","","","","",""
"1278.0000000001164","","","post_reveal_questions","survey-likert","334","993291","0.0-6.0-6.46","2372043","co38746","norming","","","{""aha"":1}","[0]","../img/tt/1066tt.jpg","",""
"null","<div style=""font-size:60px;""> </div>","null","fixation","html-keyboard-response","335","993493","0.0-6.0-0.47","2372043","co38746","norming","","","","","","",""
"null","../img/tt/1235tt.jpg","null","mooney1","image-keyboard-response","336","996496","0.0-6.0-1.47","2372043","co38746","norming","","","","","","",""
"3210","","","post_mooney1_questions","survey-likert","337","999707","0.0-6.0-2.47","2372043","co38746","norming","","","{""curiosity"":4,""confidence"":1}","[0,1]","../img/tt/1235tt.jpg","",""
"1302.0000000001164","","","recognition","survey-text","338","1001017","0.0-6.0-3.47","2372043","co38746","norming","","","{""guess"":""kippen""}","","../img/tt/1235tt.jpg","",""
"null","../img/gs/1235gs.jpg","null","reveal","image-keyboard-response","339","1003019","0.0-6.0-4.47","2372043","co38746","norming","","","","","","",""
"null","../img/tt/1235tt.jpg","null","mooney2","image-keyboard-response","340","1005021","0.0-6.0-5.47","2372043","co38746","norming","","","","","","",""
"1928","","","post_reveal_questions","survey-likert","341","1006951","0.0-6.0-6.47","2372043","co38746","norming","","","{""aha"":6}","[0]","../img/tt/1235tt.jpg","",""
"null","<div style=""font-size:60px;""> </div>","null","fixation","html-keyboard-response","342","1007154","0.0-6.0-0.48","2372043","co38746","norming","","","","","","",""
"null","../img/tt/032tt.jpg","null","mooney1","image-keyboard-response","343","1010156","0.0-6.0-1.48","2372043","co38746","norming","","","","","","",""
"2916","","","post_mooney1_questions","survey-likert","344","1013073","0.0-6.0-2.48","2372043","co38746","norming","","","{""curiosity"":4,""confidence"":2}","[0,1]","../img/tt/032tt.jpg","",""
"939","","","recognition","survey-text","345","1014020","0.0-6.0-3.48","2372043","co38746","norming","","","{""guess"":""slang""}","","../img/tt/032tt.jpg","",""
"null","../img/gs/032gs.jpg","null","reveal","image-keyboard-response","346","1016022","0.0-6.0-4.48","2372043","co38746","norming","","","","","","",""
"null","../img/tt/032tt.jpg","null","mooney2","image-keyboard-response","347","1018024","0.0-6.0-5.48","2372043","co38746","norming","","","","","","",""
"1869","","","post_reveal_questions","survey-likert","348","1019894","0.0-6.0-6.48","2372043","co38746","norming","","","{""aha"":6}","[0]","../img/tt/032tt.jpg","",""
"null","<div style=""font-size:60px;""> </div>","null","fixation","html-keyboard-response","349","1020097","0.0-6.0-0.49","2372043","co38746","norming","","","","","","",""
"null","../img/tt/076tt.jpg","null","mooney1","image-keyboard-response","350","1023100","0.0-6.0-1.49","2372043","co38746","norming","","","","","","",""
"3562.9999999998836","","","post_mooney1_questions","survey-likert","351","1026665","0.0-6.0-2.49","2372043","co38746","norming","","","{""curiosity"":4,""confidence"":3}","[0,1]","../img/tt/076tt.jpg","",""
"2490","","","recognition","survey-text","352","1029163","0.0-6.0-3.49","2372043","co38746","norming","","","{""guess"":""schoenen""}","","../img/tt/076tt.jpg","",""
"null","../img/gs/076gs.jpg","null","reveal","image-keyboard-response","353","1031166","0.0-6.0-4.49","2372043","co38746","norming","","","","","","",""
"null","../img/tt/076tt.jpg","null","mooney2","image-keyboard-response","354","1033168","0.0-6.0-5.49","2372043","co38746","norming","","","","","","",""
"2368.9999999998836","","","post_reveal_questions","survey-likert","355","1035539","0.0-6.0-6.49","2372043","co38746","norming","","","{""aha"":5}","[0]","../img/tt/076tt.jpg","",""
"null","<div style=""font-size:60px;""> </div>","null","fixation","html-keyboard-response","356","1035742","0.0-6.0-0.50","2372043","co38746","norming","","","","","","",""
"null","../img/tt/1159tt.jpg","null","mooney1","image-keyboard-response","357","1038744","0.0-6.0-1.50","2372043","co38746","norming","","","","","","",""
"2674","","","post_mooney1_questions","survey-likert","358","1041420","0.0-6.0-2.50","2372043","co38746","norming","","","{""curiosity"":4,""confidence"":3}","[0,1]","../img/tt/1159tt.jpg","",""
"2410.9999999998836","","","recognition","survey-text","359","1043840","0.0-6.0-3.50","2372043","co38746","norming","","","{""guess"":""skaten""}","","../img/tt/1159tt.jpg","",""
"null","../img/gs/1159gs.jpg","null","reveal","image-keyboard-response","360","1045843","0.0-6.0-4.50","2372043","co38746","norming","","","","","","",""
"null","../img/tt/1159tt.jpg","null","mooney2","image-keyboard-response","361","1047845","0.0-6.0-5.50","2372043","co38746","norming","","","","","","",""
"2763","","","post_reveal_questions","survey-likert","362","1050610","0.0-6.0-6.50","2372043","co38746","norming","","","{""aha"":2}","[0]","../img/tt/1159tt.jpg","",""
"null","<div style=""font-size:60px;""> </div>","null","fixation","html-keyboard-response","363","1050813","0.0-6.0-0.51","2372043","co38746","norming","","","","","","",""
"null","../img/tt/121tt.jpg","null","mooney1","image-keyboard-response","364","1053816","0.0-6.0-1.51","2372043","co38746","norming","","","","","","",""
"5407","","","post_mooney1_questions","survey-likert","365","1059225","0.0-6.0-2.51","2372043","co38746","norming","","","{""curiosity"":4,""confidence"":1}","[0,1]","../img/tt/121tt.jpg","",""
"3950","","","recognition","survey-text","366","1063184","0.0-6.0-3.51","2372043","co38746","norming","","","{""guess"":""vliegtuig""}","","../img/tt/121tt.jpg","",""
"null","../img/gs/121gs.jpg","null","reveal","image-keyboard-response","367","1065187","0.0-6.0-4.51","2372043","co38746","norming","","","","","","",""
"null","../img/tt/121tt.jpg","null","mooney2","image-keyboard-response","368","1067189","0.0-6.0-5.51","2372043","co38746","norming","","","","","","",""
"2435","","","post_reveal_questions","survey-likert","369","1069625","0.0-6.0-6.51","2372043","co38746","norming","","","{""aha"":6}","[0]","../img/tt/121tt.jpg","",""
"null","<div style=""font-size:60px;""> </div>","null","fixation","html-keyboard-response","370","1069829","0.0-6.0-0.52","2372043","co38746","norming","","","","","","",""
"null","../img/tt/1236tt.jpg","null","mooney1","image-keyboard-response","371","1072831","0.0-6.0-1.52","2372043","co38746","norming","","","","","","",""
"2964","","","post_mooney1_questions","survey-likert","372","1075797","0.0-6.0-2.52","2372043","co38746","norming","","","{""curiosity"":3,""confidence"":1}","[0,1]","../img/tt/1236tt.jpg","",""
"1923.9999999997672","","","recognition","survey-text","373","1077729","0.0-6.0-3.52","2372043","co38746","norming","","","{""guess"":""voetpad""}","","../img/tt/1236tt.jpg","",""
"null","../img/gs/1236gs.jpg","null","reveal","image-keyboard-response","374","1079732","0.0-6.0-4.52","2372043","co38746","norming","","","","","","",""
"null","../img/tt/1236tt.jpg","null","mooney2","image-keyboard-response","375","1081734","0.0-6.0-5.52","2372043","co38746","norming","","","","","","",""
"1726","","","post_reveal_questions","survey-likert","376","1083462","0.0-6.0-6.52","2372043","co38746","norming","","","{""aha"":2}","[0]","../img/tt/1236tt.jpg","",""
"null","<div style=""font-size:60px;""> </div>","null","fixation","html-keyboard-response","377","1083665","0.0-6.0-0.53","2372043","co38746","norming","","","","","","",""
"null","../img/tt/1202tt.jpg","null","mooney1","image-keyboard-response","378","1086667","0.0-6.0-1.53","2372043","co38746","norming","","","","","","",""
"3694.000000000233","","","post_mooney1_questions","survey-likert","379","1090364","0.0-6.0-2.53","2372043","co38746","norming","","","{""curiosity"":4,""confidence"":0}","[0,1]","../img/tt/1202tt.jpg","",""
"592","","","recognition","survey-text","380","1090964","0.0-6.0-3.53","2372043","co38746","norming","","","{""guess"":""""}","","../img/tt/1202tt.jpg","",""
"null","../img/gs/1202gs.jpg","null","reveal","image-keyboard-response","381","1092966","0.0-6.0-4.53","2372043","co38746","norming","","","","","","",""
"null","../img/tt/1202tt.jpg","null","mooney2","image-keyboard-response","382","1094969","0.0-6.0-5.53","2372043","co38746","norming","","","","","","",""
"1737","","","post_reveal_questions","survey-likert","383","1096708","0.0-6.0-6.53","2372043","co38746","norming","","","{""aha"":6}","[0]","../img/tt/1202tt.jpg","",""
"null","<div style=""font-size:60px;""> </div>","null","fixation","html-keyboard-response","384","1096911","0.0-6.0-0.54","2372043","co38746","norming","","","","","","",""
"null","../img/tt/1268tt.jpg","null","mooney1","image-keyboard-response","385","1099914","0.0-6.0-1.54","2372043","co38746","norming","","","","","","",""
"3597","","","post_mooney1_questions","survey-likert","386","1103513","0.0-6.0-2.54","2372043","co38746","norming","","","{""curiosity"":4,""confidence"":1}","[0,1]","../img/tt/1268tt.jpg","",""
"1294","","","recognition","survey-text","387","1104815","0.0-6.0-3.54","2372043","co38746","norming","","","{""guess"":""schaduw""}","","../img/tt/1268tt.jpg","",""
"null","../img/gs/1268gs.jpg","null","reveal","image-keyboard-response","388","1106818","0.0-6.0-4.54","2372043","co38746","norming","","","","","","",""
"null","../img/tt/1268tt.jpg","null","mooney2","image-keyboard-response","389","1108820","0.0-6.0-5.54","2372043","co38746","norming","","","","","","",""
"1562.0000000002328","","","post_reveal_questions","survey-likert","390","1110383","0.0-6.0-6.54","2372043","co38746","norming","","","{""aha"":6}","[0]","../img/tt/1268tt.jpg","",""
"null","<div style=""font-size:60px;""> </div>","null","fixation","html-keyboard-response","391","1110586","0.0-6.0-0.55","2372043","co38746","norming","","","","","","",""
"null","../img/tt/1224tt.jpg","null","mooney1","image-keyboard-response","392","1113588","0.0-6.0-1.55","2372043","co38746","norming","","","","","","",""
"2851","","","post_mooney1_questions","survey-likert","393","1116441","0.0-6.0-2.55","2372043","co38746","norming","","","{""curiosity"":5,""confidence"":2}","[0,1]","../img/tt/1224tt.jpg","",""
"1928","","","recognition","survey-text","394","1118377","0.0-6.0-3.55","2372043","co38746","norming","","","{""guess"":""karate""}","","../img/tt/1224tt.jpg","",""
"null","../img/gs/1224gs.jpg","null","reveal","image-keyboard-response","395","1120379","0.0-6.0-4.55","2372043","co38746","norming","","","","","","",""
"null","../img/tt/1224tt.jpg","null","mooney2","image-keyboard-response","396","1122381","0.0-6.0-5.55","2372043","co38746","norming","","","","","","",""
"2874","","","post_reveal_questions","survey-likert","397","1125257","0.0-6.0-6.55","2372043","co38746","norming","","","{""aha"":5}","[0]","../img/tt/1224tt.jpg","",""
"null","<div style=""font-size:60px;""> </div>","null","fixation","html-keyboard-response","398","1125460","0.0-6.0-0.56","2372043","co38746","norming","","","","","","",""
"null","../img/tt/1044tt.jpg","null","mooney1","image-keyboard-response","399","1128462","0.0-6.0-1.56","2372043","co38746","norming","","","","","","",""
"3525","","","post_mooney1_questions","survey-likert","400","1131989","0.0-6.0-2.56","2372043","co38746","norming","","","{""curiosity"":4,""confidence"":1}","[0,1]","../img/tt/1044tt.jpg","",""
"1882","","","recognition","survey-text","401","1133880","0.0-6.0-3.56","2372043","co38746","norming","","","{""guess"":""hoed""}","","../img/tt/1044tt.jpg","",""
"null","../img/gs/1044gs.jpg","null","reveal","image-keyboard-response","402","1135882","0.0-6.0-4.56","2372043","co38746","norming","","","","","","",""
"null","../img/tt/1044tt.jpg","null","mooney2","image-keyboard-response","403","1137885","0.0-6.0-5.56","2372043","co38746","norming","","","","","","",""
"1719.0000000002328","","","post_reveal_questions","survey-likert","404","1139605","0.0-6.0-6.56","2372043","co38746","norming","","","{""aha"":0}","[0]","../img/tt/1044tt.jpg","",""
"null","<div style=""font-size:60px;""> </div>","null","fixation","html-keyboard-response","405","1139808","0.0-6.0-0.57","2372043","co38746","norming","","","","","","",""
"null","../img/tt/353tt.jpg","null","mooney1","image-keyboard-response","406","1142810","0.0-6.0-1.57","2372043","co38746","norming","","","","","","",""
"2754","","","post_mooney1_questions","survey-likert","407","1145566","0.0-6.0-2.57","2372043","co38746","norming","","","{""curiosity"":4,""confidence"":5}","[0,1]","../img/tt/353tt.jpg","",""
"2398","","","recognition","survey-text","408","1147973","0.0-6.0-3.57","2372043","co38746","norming","","","{""guess"":""pinguin""}","","../img/tt/353tt.jpg","",""
"null","../img/gs/353gs.jpg","null","reveal","image-keyboard-response","409","1149975","0.0-6.0-4.57","2372043","co38746","norming","","","","","","",""
"null","../img/tt/353tt.jpg","null","mooney2","image-keyboard-response","410","1151977","0.0-6.0-5.57","2372043","co38746","norming","","","","","","",""
"1220","","","post_reveal_questions","survey-likert","411","1153198","0.0-6.0-6.57","2372043","co38746","norming","","","{""aha"":0}","[0]","../img/tt/353tt.jpg","",""
"null","<div style=""font-size:60px;""> </div>","null","fixation","html-keyboard-response","412","1153401","0.0-6.0-0.58","2372043","co38746","norming","","","","","","",""
"null","../img/tt/1089tt.jpg","null","mooney1","image-keyboard-response","413","1156403","0.0-6.0-1.58","2372043","co38746","norming","","","","","","",""
"3337","","","post_mooney1_questions","survey-likert","414","1159741","0.0-6.0-2.58","2372043","co38746","norming","","","{""curiosity"":4,""confidence"":1}","[0,1]","../img/tt/1089tt.jpg","",""
"1876.9999999997672","","","recognition","survey-text","415","1161627","0.0-6.0-3.58","2372043","co38746","norming","","","{""guess"":""krokodil""}","","../img/tt/1089tt.jpg","",""
"null","../img/gs/1089gs.jpg","null","reveal","image-keyboard-response","416","1163629","0.0-6.0-4.58","2372043","co38746","norming","","","","","","",""
"null","../img/tt/1089tt.jpg","null","mooney2","image-keyboard-response","417","1165632","0.0-6.0-5.58","2372043","co38746","norming","","","","","","",""
"3773","","","post_reveal_questions","survey-likert","418","1169406","0.0-6.0-6.58","2372043","co38746","norming","","","{""aha"":4}","[0]","../img/tt/1089tt.jpg","",""
"null","<div style=""font-size:60px;""> </div>","null","fixation","html-keyboard-response","419","1169609","0.0-6.0-0.59","2372043","co38746","norming","","","","","","",""
"null","../img/tt/1250tt.jpg","null","mooney1","image-keyboard-response","420","1172611","0.0-6.0-1.59","2372043","co38746","norming","","","","","","",""
"3895","","","post_mooney1_questions","survey-likert","421","1176508","0.0-6.0-2.59","2372043","co38746","norming","","","{""curiosity"":6,""confidence"":1}","[0,1]","../img/tt/1250tt.jpg","",""
"1786","","","recognition","survey-text","422","1178302","0.0-6.0-3.59","2372043","co38746","norming","","","{""guess"":""pinguin""}","","../img/tt/1250tt.jpg","",""
"null","../img/gs/1250gs.jpg","null","reveal","image-keyboard-response","423","1180304","0.0-6.0-4.59","2372043","co38746","norming","","","","","","",""
"null","../img/tt/1250tt.jpg","null","mooney2","image-keyboard-response","424","1182306","0.0-6.0-5.59","2372043","co38746","norming","","","","","","",""
"2882","","","post_reveal_questions","survey-likert","425","1185190","0.0-6.0-6.59","2372043","co38746","norming","","","{""aha"":6}","[0]","../img/tt/1250tt.jpg","",""
"null","<div style=""font-size:60px;""> </div>","null","fixation","html-keyboard-response","426","1185392","0.0-6.0-0.60","2372043","co38746","norming","","","","","","",""
"null","../img/tt/056tt.jpg","null","mooney1","image-keyboard-response","427","1188395","0.0-6.0-1.60","2372043","co38746","norming","","","","","","",""
"3492","","","post_mooney1_questions","survey-likert","428","1191889","0.0-6.0-2.60","2372043","co38746","norming","","","{""curiosity"":5,""confidence"":2}","[0,1]","../img/tt/056tt.jpg","",""
"3612","","","recognition","survey-text","429","1195509","0.0-6.0-3.60","2372043","co38746","norming","","","{""guess"":""dronken man""}","","../img/tt/056tt.jpg","",""
"null","../img/gs/056gs.jpg","null","reveal","image-keyboard-response","430","1197510","0.0-6.0-4.60","2372043","co38746","norming","","","","","","",""
"null","../img/tt/056tt.jpg","null","mooney2","image-keyboard-response","431","1199513","0.0-6.0-5.60","2372043","co38746","norming","","","","","","",""
"1288","","","post_reveal_questions","survey-likert","432","1200802","0.0-6.0-6.60","2372043","co38746","norming","","","{""aha"":4}","[0]","../img/tt/056tt.jpg","",""
"null","<div style=""font-size:60px;""> </div>","null","fixation","html-keyboard-response","433","1201005","0.0-6.0-0.61","2372043","co38746","norming","","","","","","",""
"null","../img/tt/008tt.jpg","null","mooney1","image-keyboard-response","434","1204008","0.0-6.0-1.61","2372043","co38746","norming","","","","","","",""
"3739","","","post_mooney1_questions","survey-likert","435","1207749","0.0-6.0-2.61","2372043","co38746","norming","","","{""curiosity"":6,""confidence"":0}","[0,1]","../img/tt/008tt.jpg","",""
"625","","","recognition","survey-text","436","1208382","0.0-6.0-3.61","2372043","co38746","norming","","","{""guess"":""""}","","../img/tt/008tt.jpg","",""
"null","../img/gs/008gs.jpg","null","reveal","image-keyboard-response","437","1210384","0.0-6.0-4.61","2372043","co38746","norming","","","","","","",""
"null","../img/tt/008tt.jpg","null","mooney2","image-keyboard-response","438","1212386","0.0-6.0-5.61","2372043","co38746","norming","","","","","","",""
"2557","","","post_reveal_questions","survey-likert","439","1214945","0.0-6.0-6.61","2372043","co38746","norming","","","{""aha"":5}","[0]","../img/tt/008tt.jpg","",""
"null","<div style=""font-size:60px;""> </div>","null","fixation","html-keyboard-response","440","1215147","0.0-6.0-0.62","2372043","co38746","norming","","","","","","",""
"null","../img/tt/1278tt.jpg","null","mooney1","image-keyboard-response","441","1218150","0.0-6.0-1.62","2372043","co38746","norming","","","","","","",""
"3043","","","post_mooney1_questions","survey-likert","442","1221194","0.0-6.0-2.62","2372043","co38746","norming","","","{""curiosity"":5,""confidence"":1}","[0,1]","../img/tt/1278tt.jpg","",""
"754","","","recognition","survey-text","443","1221957","0.0-6.0-3.62","2372043","co38746","norming","","","{""guess"":""man""}","","../img/tt/1278tt.jpg","",""
"null","../img/gs/1278gs.jpg","null","reveal","image-keyboard-response","444","1223960","0.0-6.0-4.62","2372043","co38746","norming","","","","","","",""
"null","../img/tt/1278tt.jpg","null","mooney2","image-keyboard-response","445","1225962","0.0-6.0-5.62","2372043","co38746","norming","","","","","","",""
"2065.999999999767","","","post_reveal_questions","survey-likert","446","1228030","0.0-6.0-6.62","2372043","co38746","norming","","","{""aha"":0}","[0]","../img/tt/1278tt.jpg","",""
"null","<div style=""font-size:60px;""> </div>","null","fixation","html-keyboard-response","447","1228234","0.0-6.0-0.63","2372043","co38746","norming","","","","","","",""
"null","../img/tt/438tt.jpg","null","mooney1","image-keyboard-response","448","1231236","0.0-6.0-1.63","2372043","co38746","norming","","","","","","",""
"3102","","","post_mooney1_questions","survey-likert","449","1234341","0.0-6.0-2.63","2372043","co38746","norming","","","{""curiosity"":5,""confidence"":2}","[0,1]","../img/tt/438tt.jpg","",""
"795.9999999997672","","","recognition","survey-text","450","1235144","0.0-6.0-3.63","2372043","co38746","norming","","","{""guess"":""rits""}","","../img/tt/438tt.jpg","",""
"null","../img/gs/438gs.jpg","null","reveal","image-keyboard-response","451","1237147","0.0-6.0-4.63","2372043","co38746","norming","","","","","","",""
"null","../img/tt/438tt.jpg","null","mooney2","image-keyboard-response","452","1239149","0.0-6.0-5.63","2372043","co38746","norming","","","","","","",""
"1784","","","post_reveal_questions","survey-likert","453","1240934","0.0-6.0-6.63","2372043","co38746","norming","","","{""aha"":6}","[0]","../img/tt/438tt.jpg","",""
"null","<div style=""font-size:60px;""> </div>","null","fixation","html-keyboard-response","454","1241137","0.0-6.0-0.64","2372043","co38746","norming","","","","","","",""
"null","../img/tt/1053tt.jpg","null","mooney1","image-keyboard-response","455","1244139","0.0-6.0-1.64","2372043","co38746","norming","","","","","","",""
"2922","","","post_mooney1_questions","survey-likert","456","1247064","0.0-6.0-2.64","2372043","co38746","norming","","","{""curiosity"":5,""confidence"":3}","[0,1]","../img/tt/1053tt.jpg","",""
"3032","","","recognition","survey-text","457","1250103","0.0-6.0-3.64","2372043","co38746","norming","","","{""guess"":""koe""}","","../img/tt/1053tt.jpg","",""
"null","../img/gs/1053gs.jpg","null","reveal","image-keyboard-response","458","1252106","0.0-6.0-4.64","2372043","co38746","norming","","","","","","",""
"null","../img/tt/1053tt.jpg","null","mooney2","image-keyboard-response","459","1254108","0.0-6.0-5.64","2372043","co38746","norming","","","","","","",""
"1732","","","post_reveal_questions","survey-likert","460","1255841","0.0-6.0-6.64","2372043","co38746","norming","","","{""aha"":1}","[0]","../img/tt/1053tt.jpg","",""
"null","<div style=""font-size:60px;""> </div>","null","fixation","html-keyboard-response","461","1256044","0.0-6.0-0.65","2372043","co38746","norming","","","","","","",""
"null","../img/tt/307tt.jpg","null","mooney1","image-keyboard-response","462","1259047","0.0-6.0-1.65","2372043","co38746","norming","","","","","","",""
"2738","","","post_mooney1_questions","survey-likert","463","1261786","0.0-6.0-2.65","2372043","co38746","norming","","","{""curiosity"":5,""confidence"":1}","[0,1]","../img/tt/307tt.jpg","",""
"2470.000000000233","","","recognition","survey-text","464","1264263","0.0-6.0-3.65","2372043","co38746","norming","","","{""guess"":""schilpad""}","","../img/tt/307tt.jpg","",""
"null","../img/gs/307gs.jpg","null","reveal","image-keyboard-response","465","1266266","0.0-6.0-4.65","2372043","co38746","norming","","","","","","",""
"null","../img/tt/307tt.jpg","null","mooney2","image-keyboard-response","466","1268268","0.0-6.0-5.65","2372043","co38746","norming","","","","","","",""
"1546","","","post_reveal_questions","survey-likert","467","1269815","0.0-6.0-6.65","2372043","co38746","norming","","","{""aha"":5}","[0]","../img/tt/307tt.jpg","",""
"null","<div style=""font-size:60px;""> </div>","null","fixation","html-keyboard-response","468","1270018","0.0-6.0-0.66","2372043","co38746","norming","","","","","","",""
"null","../img/tt/300tt.jpg","null","mooney1","image-keyboard-response","469","1273020","0.0-6.0-1.66","2372043","co38746","norming","","","","","","",""
"3711","","","post_mooney1_questions","survey-likert","470","1276732","0.0-6.0-2.66","2372043","co38746","norming","","","{""curiosity"":4,""confidence"":4}","[0,1]","../img/tt/300tt.jpg","",""
"954","","","recognition","survey-text","471","1277694","0.0-6.0-3.66","2372043","co38746","norming","","","{""guess"":""aap""}","","../img/tt/300tt.jpg","",""
"null","../img/gs/300gs.jpg","null","reveal","image-keyboard-response","472","1279696","0.0-6.0-4.66","2372043","co38746","norming","","","","","","",""
"null","../img/tt/300tt.jpg","null","mooney2","image-keyboard-response","473","1281699","0.0-6.0-5.66","2372043","co38746","norming","","","","","","",""
"3734","","","post_reveal_questions","survey-likert","474","1285434","0.0-6.0-6.66","2372043","co38746","norming","","","{""aha"":6}","[0]","../img/tt/300tt.jpg","",""
"null","<div style=""font-size:60px;""> </div>","null","fixation","html-keyboard-response","475","1285637","0.0-6.0-0.67","2372043","co38746","norming","","","","","","",""
"null","../img/tt/1309tt.jpg","null","mooney1","image-keyboard-response","476","1288640","0.0-6.0-1.67","2372043","co38746","norming","","","","","","",""
"3128","","","post_mooney1_questions","survey-likert","477","1291770","0.0-6.0-2.67","2372043","co38746","norming","","","{""curiosity"":5,""confidence"":4}","[0,1]","../img/tt/1309tt.jpg","",""
"953","","","recognition","survey-text","478","1292731","0.0-6.0-3.67","2372043","co38746","norming","","","{""guess"":""auto""}","","../img/tt/1309tt.jpg","",""
"null","../img/gs/1309gs.jpg","null","reveal","image-keyboard-response","479","1294733","0.0-6.0-4.67","2372043","co38746","norming","","","","","","",""
"null","../img/tt/1309tt.jpg","null","mooney2","image-keyboard-response","480","1296736","0.0-6.0-5.67","2372043","co38746","norming","","","","","","",""
"1463","","","post_reveal_questions","survey-likert","481","1298200","0.0-6.0-6.67","2372043","co38746","norming","","","{""aha"":1}","[0]","../img/tt/1309tt.jpg","",""
"null","<div style=""font-size:60px;""> </div>","null","fixation","html-keyboard-response","482","1298403","0.0-6.0-0.68","2372043","co38746","norming","","","","","","",""
"null","../img/tt/1228tt.jpg","null","mooney1","image-keyboard-response","483","1301405","0.0-6.0-1.68","2372043","co38746","norming","","","","","","",""
"3381","","","post_mooney1_questions","survey-likert","484","1304789","0.0-6.0-2.68","2372043","co38746","norming","","","{""curiosity"":3,""confidence"":4}","[0,1]","../img/tt/1228tt.jpg","",""
"2971","","","recognition","survey-text","485","1307767","0.0-6.0-3.68","2372043","co38746","norming","","","{""guess"":""vogel""}","","../img/tt/1228tt.jpg","",""
"null","../img/gs/1228gs.jpg","null","reveal","image-keyboard-response","486","1309769","0.0-6.0-4.68","2372043","co38746","norming","","","","","","",""
"null","../img/tt/1228tt.jpg","null","mooney2","image-keyboard-response","487","1311772","0.0-6.0-5.68","2372043","co38746","norming","","","","","","",""
"2685.999999999767","","","post_reveal_questions","survey-likert","488","1314459","0.0-6.0-6.68","2372043","co38746","norming","","","{""aha"":4}","[0]","../img/tt/1228tt.jpg","",""
"null","<div style=""font-size:60px;""> </div>","null","fixation","html-keyboard-response","489","1314662","0.0-6.0-0.69","2372043","co38746","norming","","","","","","",""
"null","../img/tt/1188tt.jpg","null","mooney1","image-keyboard-response","490","1317665","0.0-6.0-1.69","2372043","co38746","norming","","","","","","",""
"2383","","","post_mooney1_questions","survey-likert","491","1320050","0.0-6.0-2.69","2372043","co38746","norming","","","{""curiosity"":4,""confidence"":2}","[0,1]","../img/tt/1188tt.jpg","",""
"5736.000000000233","","","recognition","survey-text","492","1325794","0.0-6.0-3.69","2372043","co38746","norming","","","{""guess"":""honkbal speler""}","","../img/tt/1188tt.jpg","",""
"null","../img/gs/1188gs.jpg","null","reveal","image-keyboard-response","493","1327796","0.0-6.0-4.69","2372043","co38746","norming","","","","","","",""
"null","../img/tt/1188tt.jpg","null","mooney2","image-keyboard-response","494","1329799","0.0-6.0-5.69","2372043","co38746","norming","","","","","","",""
"1795","","","post_reveal_questions","survey-likert","495","1331595","0.0-6.0-6.69","2372043","co38746","norming","","","{""aha"":5}","[0]","../img/tt/1188tt.jpg","",""
"null","<div style=""font-size:60px;""> </div>","null","fixation","html-keyboard-response","496","1331799","0.0-6.0-0.70","2372043","co38746","norming","","","","","","",""
"null","../img/tt/358tt.jpg","null","mooney1","image-keyboard-response","497","1334802","0.0-6.0-1.70","2372043","co38746","norming","","","","","","",""
"3190","","","post_mooney1_questions","survey-likert","498","1337994","0.0-6.0-2.70","2372043","co38746","norming","","","{""curiosity"":6,""confidence"":0}","[0,1]","../img/tt/358tt.jpg","",""
"610.0000000002328","","","recognition","survey-text","499","1338611","0.0-6.0-3.70","2372043","co38746","norming","","","{""guess"":""""}","","../img/tt/358tt.jpg","",""
"null","../img/gs/358gs.jpg","null","reveal","image-keyboard-response","500","1340613","0.0-6.0-4.70","2372043","co38746","norming","","","","","","",""
"null","../img/tt/358tt.jpg","null","mooney2","image-keyboard-response","501","1342615","0.0-6.0-5.70","2372043","co38746","norming","","","","","","",""
"1284","","","post_reveal_questions","survey-likert","502","1343900","0.0-6.0-6.70","2372043","co38746","norming","","","{""aha"":6}","[0]","../img/tt/358tt.jpg","",""
"null","<div style=""font-size:60px;""> </div>","null","fixation","html-keyboard-response","503","1344103","0.0-6.0-0.71","2372043","co38746","norming","","","","","","",""
"null","../img/tt/1128tt.jpg","null","mooney1","image-keyboard-response","504","1347105","0.0-6.0-1.71","2372043","co38746","norming","","","","","","",""
"2592","","","post_mooney1_questions","survey-likert","505","1349699","0.0-6.0-2.71","2372043","co38746","norming","","","{""curiosity"":5,""confidence"":1}","[0,1]","../img/tt/1128tt.jpg","",""
"1405.0000000002328","","","recognition","survey-text","506","1351112","0.0-6.0-3.71","2372043","co38746","norming","","","{""guess"":""aapje""}","","../img/tt/1128tt.jpg","",""
"null","../img/gs/1128gs.jpg","null","reveal","image-keyboard-response","507","1353114","0.0-6.0-4.71","2372043","co38746","norming","","","","","","",""
"null","../img/tt/1128tt.jpg","null","mooney2","image-keyboard-response","508","1355116","0.0-6.0-5.71","2372043","co38746","norming","","","","","","",""
"1413","","","post_reveal_questions","survey-likert","509","1356531","0.0-6.0-6.71","2372043","co38746","norming","","","{""aha"":6}","[0]","../img/tt/1128tt.jpg","",""
"null","<div style=""font-size:60px;""> </div>","null","fixation","html-keyboard-response","510","1356733","0.0-6.0-0.72","2372043","co38746","norming","","","","","","",""
"null","../img/tt/1175tt.jpg","null","mooney1","image-keyboard-response","511","1359736","0.0-6.0-1.72","2372043","co38746","norming","","","","","","",""
"3069","","","post_mooney1_questions","survey-likert","512","1362807","0.0-6.0-2.72","2372043","co38746","norming","","","{""curiosity"":6,""confidence"":0}","[0,1]","../img/tt/1175tt.jpg","",""
"724.9999999997672","","","recognition","survey-text","513","1363538","0.0-6.0-3.72","2372043","co38746","norming","","","{""guess"":""""}","","../img/tt/1175tt.jpg","",""
"null","../img/gs/1175gs.jpg","null","reveal","image-keyboard-response","514","1365541","0.0-6.0-4.72","2372043","co38746","norming","","","","","","",""
"null","../img/tt/1175tt.jpg","null","mooney2","image-keyboard-response","515","1367543","0.0-6.0-5.72","2372043","co38746","norming","","","","","","",""
"1401.9999999997672","","","post_reveal_questions","survey-likert","516","1368947","0.0-6.0-6.72","2372043","co38746","norming","","","{""aha"":0}","[0]","../img/tt/1175tt.jpg","",""
"null","<div style=""font-size:60px;""> </div>","null","fixation","html-keyboard-response","517","1369150","0.0-6.0-0.73","2372043","co38746","norming","","","","","","",""
"null","../img/tt/436tt.jpg","null","mooney1","image-keyboard-response","518","1372153","0.0-6.0-1.73","2372043","co38746","norming","","","","","","",""
"3686","","","post_mooney1_questions","survey-likert","519","1375841","0.0-6.0-2.73","2372043","co38746","norming","","","{""curiosity"":4,""confidence"":2}","[0,1]","../img/tt/436tt.jpg","",""
"1607","","","recognition","survey-text","520","1377456","0.0-6.0-3.73","2372043","co38746","norming","","","{""guess"":""zebra""}","","../img/tt/436tt.jpg","",""
"null","../img/gs/436gs.jpg","null","reveal","image-keyboard-response","521","1379459","0.0-6.0-4.73","2372043","co38746","norming","","","","","","",""
"null","../img/tt/436tt.jpg","null","mooney2","image-keyboard-response","522","1381461","0.0-6.0-5.73","2372043","co38746","norming","","","","","","",""
"1342.0000000002328","","","post_reveal_questions","survey-likert","523","1382804","0.0-6.0-6.73","2372043","co38746","norming","","","{""aha"":6}","[0]","../img/tt/436tt.jpg","",""
"null","<div style=""font-size:60px;""> </div>","null","fixation","html-keyboard-response","524","1383007","0.0-6.0-0.74","2372043","co38746","norming","","","","","","",""
"null","../img/tt/163tt.jpg","null","mooney1","image-keyboard-response","525","1386009","0.0-6.0-1.74","2372043","co38746","norming","","","","","","",""
"3684","","","post_mooney1_questions","survey-likert","526","1389696","0.0-6.0-2.74","2372043","co38746","norming","","","{""curiosity"":4,""confidence"":1}","[0,1]","../img/tt/163tt.jpg","",""
"2195","","","recognition","survey-text","527","1391899","0.0-6.0-3.74","2372043","co38746","norming","","","{""guess"":""bloem""}","","../img/tt/163tt.jpg","",""
"null","../img/gs/163gs.jpg","null","reveal","image-keyboard-response","528","1393901","0.0-6.0-4.74","2372043","co38746","norming","","","","","","",""
"null","../img/tt/163tt.jpg","null","mooney2","image-keyboard-response","529","1395903","0.0-6.0-5.74","2372043","co38746","norming","","","","","","",""
"1249","","","post_reveal_questions","survey-likert","530","1397154","0.0-6.0-6.74","2372043","co38746","norming","","","{""aha"":5}","[0]","../img/tt/163tt.jpg","",""
"null","<div style=""font-size:60px;""> </div>","null","fixation","html-keyboard-response","531","1397357","0.0-6.0-0.75","2372043","co38746","norming","","","","","","",""
"null","../img/tt/1142tt.jpg","null","mooney1","image-keyboard-response","532","1400359","0.0-6.0-1.75","2372043","co38746","norming","","","","","","",""
"2672","","","post_mooney1_questions","survey-likert","533","1403033","0.0-6.0-2.75","2372043","co38746","norming","","","{""curiosity"":4,""confidence"":2}","[0,1]","../img/tt/1142tt.jpg","",""
"995.0000000002328","","","recognition","survey-text","534","1404036","0.0-6.0-3.75","2372043","co38746","norming","","","{""guess"":""atleet""}","","../img/tt/1142tt.jpg","",""
"null","../img/gs/1142gs.jpg","null","reveal","image-keyboard-response","535","1406039","0.0-6.0-4.75","2372043","co38746","norming","","","","","","",""
"null","../img/tt/1142tt.jpg","null","mooney2","image-keyboard-response","536","1408041","0.0-6.0-5.75","2372043","co38746","norming","","","","","","",""
"2741","","","post_reveal_questions","survey-likert","537","1410784","0.0-6.0-6.75","2372043","co38746","norming","","","{""aha"":4}","[0]","../img/tt/1142tt.jpg","",""
"null","<div style=""font-size:60px;""> </div>","null","fixation","html-keyboard-response","538","1410987","0.0-6.0-0.76","2372043","co38746","norming","","","","","","",""
"null","../img/tt/1269tt.jpg","null","mooney1","image-keyboard-response","539","1413989","0.0-6.0-1.76","2372043","co38746","norming","","","","","","",""
"5242","","","post_mooney1_questions","survey-likert","540","1419233","0.0-6.0-2.76","2372043","co38746","norming","","","{""curiosity"":5,""confidence"":3}","[0,1]","../img/tt/1269tt.jpg","",""
"2523","","","recognition","survey-text","541","1421763","0.0-6.0-3.76","2372043","co38746","norming","","","{""guess"":""eekhoorn""}","","../img/tt/1269tt.jpg","",""
"null","../img/gs/1269gs.jpg","null","reveal","image-keyboard-response","542","1423766","0.0-6.0-4.76","2372043","co38746","norming","","","","","","",""
"null","../img/tt/1269tt.jpg","null","mooney2","image-keyboard-response","543","1425768","0.0-6.0-5.76","2372043","co38746","norming","","","","","","",""
"1568","","","post_reveal_questions","survey-likert","544","1427338","0.0-6.0-6.76","2372043","co38746","norming","","","{""aha"":1}","[0]","../img/tt/1269tt.jpg","",""
"null","<div style=""font-size:60px;""> </div>","null","fixation","html-keyboard-response","545","1427541","0.0-6.0-0.77","2372043","co38746","norming","","","","","","",""
"null","../img/tt/517tt.jpg","null","mooney1","image-keyboard-response","546","1430544","0.0-6.0-1.77","2372043","co38746","norming","","","","","","",""
"4027","","","post_mooney1_questions","survey-likert","547","1434573","0.0-6.0-2.77","2372043","co38746","norming","","","{""curiosity"":5,""confidence"":1}","[0,1]","../img/tt/517tt.jpg","",""
"3111","","","recognition","survey-text","548","1437692","0.0-6.0-3.77","2372043","co38746","norming","","","{""guess"":""klein diertje""}","","../img/tt/517tt.jpg","",""
"null","../img/gs/517gs.jpg","null","reveal","image-keyboard-response","549","1439695","0.0-6.0-4.77","2372043","co38746","norming","","","","","","",""
"null","../img/tt/517tt.jpg","null","mooney2","image-keyboard-response","550","1441697","0.0-6.0-5.77","2372043","co38746","norming","","","","","","",""
"2965","","","post_reveal_questions","survey-likert","551","1444664","0.0-6.0-6.77","2372043","co38746","norming","","","{""aha"":4}","[0]","../img/tt/517tt.jpg","",""
"null","<div style=""font-size:60px;""> </div>","null","fixation","html-keyboard-response","552","1444867","0.0-6.0-0.78","2372043","co38746","norming","","","","","","",""
"null","../img/tt/1242tt.jpg","null","mooney1","image-keyboard-response","553","1447870","0.0-6.0-1.78","2372043","co38746","norming","","","","","","",""
"2949","","","post_mooney1_questions","survey-likert","554","1450821","0.0-6.0-2.78","2372043","co38746","norming","","","{""curiosity"":6,""confidence"":0}","[0,1]","../img/tt/1242tt.jpg","",""
"706","","","recognition","survey-text","555","1451535","0.0-6.0-3.78","2372043","co38746","norming","","","{""guess"":""""}","","../img/tt/1242tt.jpg","",""
"null","../img/gs/1242gs.jpg","null","reveal","image-keyboard-response","556","1453537","0.0-6.0-4.78","2372043","co38746","norming","","","","","","",""
"null","../img/tt/1242tt.jpg","null","mooney2","image-keyboard-response","557","1455538","0.0-6.0-5.78","2372043","co38746","norming","","","","","","",""
"1409","","","post_reveal_questions","survey-likert","558","1456949","0.0-6.0-6.78","2372043","co38746","norming","","","{""aha"":3}","[0]","../img/tt/1242tt.jpg","",""
"null","<div style=""font-size:60px;""> </div>","null","fixation","html-keyboard-response","559","1457152","0.0-6.0-0.79","2372043","co38746","norming","","","","","","",""
"null","../img/tt/378tt.jpg","null","mooney1","image-keyboard-response","560","1460154","0.0-6.0-1.79","2372043","co38746","norming","","","","","","",""
"4402","","","post_mooney1_questions","survey-likert","561","1464558","0.0-6.0-2.79","2372043","co38746","norming","","","{""curiosity"":4,""confidence"":1}","[0,1]","../img/tt/378tt.jpg","",""
"1840","","","recognition","survey-text","562","1466406","0.0-6.0-3.79","2372043","co38746","norming","","","{""guess"":""vogel""}","","../img/tt/378tt.jpg","",""
"null","../img/gs/378gs.jpg","null","reveal","image-keyboard-response","563","1468408","0.0-6.0-4.79","2372043","co38746","norming","","","","","","",""
"null","../img/tt/378tt.jpg","null","mooney2","image-keyboard-response","564","1470411","0.0-6.0-5.79","2372043","co38746","norming","","","","","","",""
"1484","","","post_reveal_questions","survey-likert","565","1471896","0.0-6.0-6.79","2372043","co38746","norming","","","{""aha"":4}","[0]","../img/tt/378tt.jpg","",""
