"rt","stimulus","key_press","test_part","trial_type","trial_index","time_elapsed","internal_node_id","totalTime","subject","experiment_name","button_pressed","success","responses","question_order","currentStim","old","correct"
"5441.999999999999","Welcome to the experiment. This is an online experiment so please don't close the tab/window until we say goodbye.  Press any key to begin.","32","instructions","html-keyboard-response","0","5486","0.0-0.0","3352626","co38239","norming","","","","","","",""
"62717","<div style='word-wrap: break-word; width: 900px'><h3>Please consider this information carefully before deciding whether to participate in this research</h3><ul style='text-align: left; font-size: .8em;'><li><b>Purpose of the research</b>: To examine how people process images.</li><li><b>What you will do in this research</b>:  Stimuli (images) will be presented on the computer and you will be asked different questions about them.</li><li><b>Time required</b>: Participation will take between 45 and 60 minutes to complete.</li><li><b>Risks</b>:  There are no anticipated risks associated with participating in this study. The effects of participating should be comparable to those you would experience from viewing a computer monitor for 30 minutes and using a mouse or keyboard.</li><li><b>Benefits</b>:  This study provides no benefits to you individually except for the credit. The study provides important information about the nature of perception and learning.</li><li><b>Confidentiality</b>:  Your participation in this study will remain confidential. No personally identifiable information will be associated with your data. Your de-identified data may be shared with other researchers and used in future projects.</li><li><b>Participation and withdrawal</b>:  Your participation in this study is completely voluntary and you may refuse to participate or you may choose to withdraw at any time without penalty.</li><li><b>How to contact the researchers</b>: If you have questions or concerns about your participation or payment, or want to request a summary of research findings, please contact Sander Van de Cruys (KU Leuven), at sander.vandecruys@kuleuven.be.</li></ul><p>The nature and purpose of this research have been sufficiently explained and I agree to participate in this study.  I understand that I am free to withdraw at any time without incurring any penalty.</p><p>Please consent by clicking the button below to continue. Otherwise, please exit the study at this time.</p></div>","","instructions","html-button-response","1","68206","0.0-1.0","3352626","co38239","norming","0","","","","","",""
"","","","instructions","fullscreen","2","72384","0.0-2.0","3352626","co38239","norming","","true","","","","",""
"46752","","","sona","survey-html-form","3","119141","0.0-3.0","3352626","co38239","norming","","","[{""name"":""sonaid"",""value"":""38239""},{""name"":""debrief"",""value"":""yes""},{""name"":""datajoin"",""value"":""yes""}]","","","",""
"72205","<div style='word-wrap: break-word; width: 900px'><h3>Instructions</h3><p>This experiment will have 3 parts. In the first part you will see a series of distorted images like the one below on the left. As you can see in the righthand image, the distorted images are derived from actual photographs. In what follows, you will <strong>briefly</strong> be presented with <strong>only</strong> the distorted image.</p> <div style='float: left; margin-right: 20px;'><img src='../img/018tt.jpg' height='250' width='250'></img></div><div style='float: right; margin-left: 20px;'><img src='../img/018gs.jpg' height='250' width='250'></img></div><p>Subsequently you will be asked a few questions about the image: One question on how <strong>curious</strong> you are about the solution and one on how <strong>confident</strong> you are that you know the solution.</p>Next, we ask you to make a guess on what is in the image. Note that it is OK to name just the <strong>basic level category</strong>. For example when you see a parrot in the image, 'parrot' will obviously be a correct answer but also correct is 'bird'. However, 'animal' will <strong>not</strong> be counted as a correct response. For the example above, 'rose' would be correct or 'flower', but not 'plant'. When soccer players are depicted, 'soccer', 'football', 'soccer players' will be correct, but not 'humans', 'outdoors', or 'sports'. You do not need to describe the image in full, just name the main object in it <strong>in one or two words</strong>. All images depict objects from one of the following broad level categories: animals, inanimate objects, plants, sports, vehicles, and food. Recognizing means knowing <strong>more</strong> than these broad labels for a given image. But we always encourage you to <strong>make a guess</strong> if you can. Note that you are allowed to use <strong>Dutch and English</strong> in your answers, whatever comes easiest for you.</p><p>Press any key to continue.</p></div>","32","instructions","html-keyboard-response","4","191349","0.0-4.0","3352626","co38239","norming","","","","","","",""
"16085","<div style='word-wrap: break-word; width: 900px'><h3>Instructions</h3> <p>Next, the solution image will be revealed to you and you'll be asked to indicate how strong your <strong>aha-experience</strong> was after seeing the solution. This describes the positive feeling of the 'click' you sometimes experience, when the pieces of the 'puzzle' fall together and you suddenly have 'insight' in the image.</p><img src='aha.jpg' height='188' width='250'></img><p>Note that there are no right or wrong answers. We are interested in what <strong>you</strong> see in the image and how <strong>you</strong> feel about it.</p><p>Press any key to start the experiment.</p></div>","32","instructions","html-keyboard-response","5","207435","0.0-5.0","3352626","co38239","norming","","","","","","",""
"null","<div style=""font-size:60px;""> </div>","null","fixation","html-keyboard-response","6","207636","0.0-6.0-0.0","3352626","co38239","norming","","","","","","",""
"null","../img/tt/1046tt.jpg","null","mooney1","image-keyboard-response","7","210639","0.0-6.0-1.0","3352626","co38239","norming","","","","","","",""
"14419","","","post_mooney1_questions","survey-likert","8","225061","0.0-6.0-2.0","3352626","co38239","norming","","","{""curiosity"":5,""confidence"":2}","[0,1]","../img/tt/1046tt.jpg","",""
"4956","","","recognition","survey-text","9","230025","0.0-6.0-3.0","3352626","co38239","norming","","","{""guess"":""panda""}","","../img/tt/1046tt.jpg","",""
"null","../img/gs/1046gs.jpg","null","reveal","image-keyboard-response","10","232028","0.0-6.0-4.0","3352626","co38239","norming","","","","","","",""
"null","../img/tt/1046tt.jpg","null","mooney2","image-keyboard-response","11","234029","0.0-6.0-5.0","3352626","co38239","norming","","","","","","",""
"5735","","","post_reveal_questions","survey-likert","12","239765","0.0-6.0-6.0","3352626","co38239","norming","","","{""aha"":6}","[0]","../img/tt/1046tt.jpg","",""
"null","<div style=""font-size:60px;""> </div>","null","fixation","html-keyboard-response","13","239967","0.0-6.0-0.1","3352626","co38239","norming","","","","","","",""
"null","../img/tt/1049tt.jpg","null","mooney1","image-keyboard-response","14","242969","0.0-6.0-1.1","3352626","co38239","norming","","","","","","",""
"5607","","","post_mooney1_questions","survey-likert","15","248579","0.0-6.0-2.1","3352626","co38239","norming","","","{""curiosity"":5,""confidence"":1}","[0,1]","../img/tt/1049tt.jpg","",""
"10567","","","recognition","survey-text","16","259155","0.0-6.0-3.1","3352626","co38239","norming","","","{""guess"":""carrot""}","","../img/tt/1049tt.jpg","",""
"null","../img/gs/1049gs.jpg","null","reveal","image-keyboard-response","17","261156","0.0-6.0-4.1","3352626","co38239","norming","","","","","","",""
"null","../img/tt/1049tt.jpg","null","mooney2","image-keyboard-response","18","263157","0.0-6.0-5.1","3352626","co38239","norming","","","","","","",""
"2823","","","post_reveal_questions","survey-likert","19","265982","0.0-6.0-6.1","3352626","co38239","norming","","","{""aha"":5}","[0]","../img/tt/1049tt.jpg","",""
"null","<div style=""font-size:60px;""> </div>","null","fixation","html-keyboard-response","20","266184","0.0-6.0-0.2","3352626","co38239","norming","","","","","","",""
"null","../img/tt/1247tt.jpg","null","mooney1","image-keyboard-response","21","269186","0.0-6.0-1.2","3352626","co38239","norming","","","","","","",""
"11461","","","post_mooney1_questions","survey-likert","22","280648","0.0-6.0-2.2","3352626","co38239","norming","","","{""curiosity"":5,""confidence"":0}","[0,1]","../img/tt/1247tt.jpg","",""
"40432","","","recognition","survey-text","23","321087","0.0-6.0-3.2","3352626","co38239","norming","","","{""guess"":""football player""}","","../img/tt/1247tt.jpg","",""
"null","../img/gs/1247gs.jpg","null","reveal","image-keyboard-response","24","323089","0.0-6.0-4.2","3352626","co38239","norming","","","","","","",""
"null","../img/tt/1247tt.jpg","null","mooney2","image-keyboard-response","25","325091","0.0-6.0-5.2","3352626","co38239","norming","","","","","","",""
"2696","","","post_reveal_questions","survey-likert","26","327788","0.0-6.0-6.2","3352626","co38239","norming","","","{""aha"":5}","[0]","../img/tt/1247tt.jpg","",""
"null","<div style=""font-size:60px;""> </div>","null","fixation","html-keyboard-response","27","327991","0.0-6.0-0.3","3352626","co38239","norming","","","","","","",""
"null","../img/tt/1269tt.jpg","null","mooney1","image-keyboard-response","28","330993","0.0-6.0-1.3","3352626","co38239","norming","","","","","","",""
"12049","","","post_mooney1_questions","survey-likert","29","343044","0.0-6.0-2.3","3352626","co38239","norming","","","{""curiosity"":5,""confidence"":2}","[0,1]","../img/tt/1269tt.jpg","",""
"5608","","","recognition","survey-text","30","348658","0.0-6.0-3.3","3352626","co38239","norming","","","{""guess"":""koala""}","","../img/tt/1269tt.jpg","",""
"null","../img/gs/1269gs.jpg","null","reveal","image-keyboard-response","31","350660","0.0-6.0-4.3","3352626","co38239","norming","","","","","","",""
"null","../img/tt/1269tt.jpg","null","mooney2","image-keyboard-response","32","352663","0.0-6.0-5.3","3352626","co38239","norming","","","","","","",""
"4528","","","post_reveal_questions","survey-likert","33","357192","0.0-6.0-6.3","3352626","co38239","norming","","","{""aha"":2}","[0]","../img/tt/1269tt.jpg","",""
"null","<div style=""font-size:60px;""> </div>","null","fixation","html-keyboard-response","34","357394","0.0-6.0-0.4","3352626","co38239","norming","","","","","","",""
"null","../img/tt/1012tt.jpg","null","mooney1","image-keyboard-response","35","360395","0.0-6.0-1.4","3352626","co38239","norming","","","","","","",""
"6427","","","post_mooney1_questions","survey-likert","36","366823","0.0-6.0-2.4","3352626","co38239","norming","","","{""curiosity"":4,""confidence"":1}","[0,1]","../img/tt/1012tt.jpg","",""
"2402","","","recognition","survey-text","37","369233","0.0-6.0-3.4","3352626","co38239","norming","","","{""guess"":""horse""}","","../img/tt/1012tt.jpg","",""
"null","../img/gs/1012gs.jpg","null","reveal","image-keyboard-response","38","371234","0.0-6.0-4.4","3352626","co38239","norming","","","","","","",""
"null","../img/tt/1012tt.jpg","null","mooney2","image-keyboard-response","39","373236","0.0-6.0-5.4","3352626","co38239","norming","","","","","","",""
"2856","","","post_reveal_questions","survey-likert","40","376093","0.0-6.0-6.4","3352626","co38239","norming","","","{""aha"":1}","[0]","../img/tt/1012tt.jpg","",""
"null","<div style=""font-size:60px;""> </div>","null","fixation","html-keyboard-response","41","376296","0.0-6.0-0.5","3352626","co38239","norming","","","","","","",""
"null","../img/tt/1069tt.jpg","null","mooney1","image-keyboard-response","42","379298","0.0-6.0-1.5","3352626","co38239","norming","","","","","","",""
"4775","","","post_mooney1_questions","survey-likert","43","384074","0.0-6.0-2.5","3352626","co38239","norming","","","{""curiosity"":5,""confidence"":0}","[0,1]","../img/tt/1069tt.jpg","",""
"4112","","","recognition","survey-text","44","388193","0.0-6.0-3.5","3352626","co38239","norming","","","{""guess"":""pinguïn""}","","../img/tt/1069tt.jpg","",""
"null","../img/gs/1069gs.jpg","null","reveal","image-keyboard-response","45","390195","0.0-6.0-4.5","3352626","co38239","norming","","","","","","",""
"null","../img/tt/1069tt.jpg","null","mooney2","image-keyboard-response","46","392195","0.0-6.0-5.5","3352626","co38239","norming","","","","","","",""
"11036","","","post_reveal_questions","survey-likert","47","403232","0.0-6.0-6.5","3352626","co38239","norming","","","{""aha"":4}","[0]","../img/tt/1069tt.jpg","",""
"null","<div style=""font-size:60px;""> </div>","null","fixation","html-keyboard-response","48","403435","0.0-6.0-0.6","3352626","co38239","norming","","","","","","",""
"null","../img/tt/1353tt.jpg","null","mooney1","image-keyboard-response","49","406437","0.0-6.0-1.6","3352626","co38239","norming","","","","","","",""
"5380.000000000058","","","post_mooney1_questions","survey-likert","50","411817","0.0-6.0-2.6","3352626","co38239","norming","","","{""curiosity"":6,""confidence"":1}","[0,1]","../img/tt/1353tt.jpg","",""
"4071.000000000058","","","recognition","survey-text","51","415894","0.0-6.0-3.6","3352626","co38239","norming","","","{""guess"":""ballet dancer""}","","../img/tt/1353tt.jpg","",""
"null","../img/gs/1353gs.jpg","null","reveal","image-keyboard-response","52","417896","0.0-6.0-4.6","3352626","co38239","norming","","","","","","",""
"null","../img/tt/1353tt.jpg","null","mooney2","image-keyboard-response","53","419897","0.0-6.0-5.6","3352626","co38239","norming","","","","","","",""
"4453","","","post_reveal_questions","survey-likert","54","424350","0.0-6.0-6.6","3352626","co38239","norming","","","{""aha"":5}","[0]","../img/tt/1353tt.jpg","",""
"null","<div style=""font-size:60px;""> </div>","null","fixation","html-keyboard-response","55","424553","0.0-6.0-0.7","3352626","co38239","norming","","","","","","",""
"null","../img/tt/019tt.jpg","null","mooney1","image-keyboard-response","56","427554","0.0-6.0-1.7","3352626","co38239","norming","","","","","","",""
"5834","","","post_mooney1_questions","survey-likert","57","433389","0.0-6.0-2.7","3352626","co38239","norming","","","{""curiosity"":3,""confidence"":4}","[0,1]","../img/tt/019tt.jpg","",""
"2660","","","recognition","survey-text","58","436059","0.0-6.0-3.7","3352626","co38239","norming","","","{""guess"":""pen""}","","../img/tt/019tt.jpg","",""
"null","../img/gs/019gs.jpg","null","reveal","image-keyboard-response","59","438061","0.0-6.0-4.7","3352626","co38239","norming","","","","","","",""
"null","../img/tt/019tt.jpg","null","mooney2","image-keyboard-response","60","440062","0.0-6.0-5.7","3352626","co38239","norming","","","","","","",""
"3585","","","post_reveal_questions","survey-likert","61","443649","0.0-6.0-6.7","3352626","co38239","norming","","","{""aha"":4}","[0]","../img/tt/019tt.jpg","",""
"null","<div style=""font-size:60px;""> </div>","null","fixation","html-keyboard-response","62","443852","0.0-6.0-0.8","3352626","co38239","norming","","","","","","",""
"null","../img/tt/1250tt.jpg","null","mooney1","image-keyboard-response","63","446854","0.0-6.0-1.8","3352626","co38239","norming","","","","","","",""
"4784","","","post_mooney1_questions","survey-likert","64","451639","0.0-6.0-2.8","3352626","co38239","norming","","","{""curiosity"":4,""confidence"":2}","[0,1]","../img/tt/1250tt.jpg","",""
"2811","","","recognition","survey-text","65","454463","0.0-6.0-3.8","3352626","co38239","norming","","","{""guess"":""seals""}","","../img/tt/1250tt.jpg","",""
"null","../img/gs/1250gs.jpg","null","reveal","image-keyboard-response","66","456466","0.0-6.0-4.8","3352626","co38239","norming","","","","","","",""
"null","../img/tt/1250tt.jpg","null","mooney2","image-keyboard-response","67","458467","0.0-6.0-5.8","3352626","co38239","norming","","","","","","",""
"3965.999999999942","","","post_reveal_questions","survey-likert","68","462433","0.0-6.0-6.8","3352626","co38239","norming","","","{""aha"":3}","[0]","../img/tt/1250tt.jpg","",""
"null","<div style=""font-size:60px;""> </div>","null","fixation","html-keyboard-response","69","462636","0.0-6.0-0.9","3352626","co38239","norming","","","","","","",""
"null","../img/tt/1027tt.jpg","null","mooney1","image-keyboard-response","70","465638","0.0-6.0-1.9","3352626","co38239","norming","","","","","","",""
"7748","","","post_mooney1_questions","survey-likert","71","473387","0.0-6.0-2.9","3352626","co38239","norming","","","{""curiosity"":4,""confidence"":2}","[0,1]","../img/tt/1027tt.jpg","",""
"5417.000000000058","","","recognition","survey-text","72","478812","0.0-6.0-3.9","3352626","co38239","norming","","","{""guess"":""people kissing""}","","../img/tt/1027tt.jpg","",""
"null","../img/gs/1027gs.jpg","null","reveal","image-keyboard-response","73","480814","0.0-6.0-4.9","3352626","co38239","norming","","","","","","",""
"null","../img/tt/1027tt.jpg","null","mooney2","image-keyboard-response","74","482815","0.0-6.0-5.9","3352626","co38239","norming","","","","","","",""
"4422","","","post_reveal_questions","survey-likert","75","487238","0.0-6.0-6.9","3352626","co38239","norming","","","{""aha"":6}","[0]","../img/tt/1027tt.jpg","",""
"null","<div style=""font-size:60px;""> </div>","null","fixation","html-keyboard-response","76","487440","0.0-6.0-0.10","3352626","co38239","norming","","","","","","",""
"null","../img/tt/1243tt.jpg","null","mooney1","image-keyboard-response","77","490441","0.0-6.0-1.10","3352626","co38239","norming","","","","","","",""
"7289","","","post_mooney1_questions","survey-likert","78","497732","0.0-6.0-2.10","3352626","co38239","norming","","","{""curiosity"":4,""confidence"":4}","[0,1]","../img/tt/1243tt.jpg","",""
"2104.000000000058","","","recognition","survey-text","79","499844","0.0-6.0-3.10","3352626","co38239","norming","","","{""guess"":""gorilla""}","","../img/tt/1243tt.jpg","",""
"null","../img/gs/1243gs.jpg","null","reveal","image-keyboard-response","80","501845","0.0-6.0-4.10","3352626","co38239","norming","","","","","","",""
"null","../img/tt/1243tt.jpg","null","mooney2","image-keyboard-response","81","503847","0.0-6.0-5.10","3352626","co38239","norming","","","","","","",""
"3585.999999999942","","","post_reveal_questions","survey-likert","82","507435","0.0-6.0-6.10","3352626","co38239","norming","","","{""aha"":4}","[0]","../img/tt/1243tt.jpg","",""
"null","<div style=""font-size:60px;""> </div>","null","fixation","html-keyboard-response","83","507641","0.0-6.0-0.11","3352626","co38239","norming","","","","","","",""
"null","../img/tt/1048tt.jpg","null","mooney1","image-keyboard-response","84","510643","0.0-6.0-1.11","3352626","co38239","norming","","","","","","",""
"8457","","","post_mooney1_questions","survey-likert","85","519102","0.0-6.0-2.11","3352626","co38239","norming","","","{""curiosity"":3,""confidence"":3}","[0,1]","../img/tt/1048tt.jpg","",""
"1627","","","recognition","survey-text","86","520737","0.0-6.0-3.11","3352626","co38239","norming","","","{""guess"":""tree""}","","../img/tt/1048tt.jpg","",""
"null","../img/gs/1048gs.jpg","null","reveal","image-keyboard-response","87","522738","0.0-6.0-4.11","3352626","co38239","norming","","","","","","",""
"null","../img/tt/1048tt.jpg","null","mooney2","image-keyboard-response","88","524740","0.0-6.0-5.11","3352626","co38239","norming","","","","","","",""
"3032.0000000001164","","","post_reveal_questions","survey-likert","89","527774","0.0-6.0-6.11","3352626","co38239","norming","","","{""aha"":3}","[0]","../img/tt/1048tt.jpg","",""
"null","<div style=""font-size:60px;""> </div>","null","fixation","html-keyboard-response","90","527975","0.0-6.0-0.12","3352626","co38239","norming","","","","","","",""
"null","../img/tt/1024tt.jpg","null","mooney1","image-keyboard-response","91","530978","0.0-6.0-1.12","3352626","co38239","norming","","","","","","",""
"6058","","","post_mooney1_questions","survey-likert","92","537037","0.0-6.0-2.12","3352626","co38239","norming","","","{""curiosity"":4,""confidence"":5}","[0,1]","../img/tt/1024tt.jpg","",""
"4635","","","recognition","survey-text","93","541679","0.0-6.0-3.12","3352626","co38239","norming","","","{""guess"":""tennis player""}","","../img/tt/1024tt.jpg","",""
"null","../img/gs/1024gs.jpg","null","reveal","image-keyboard-response","94","543681","0.0-6.0-4.12","3352626","co38239","norming","","","","","","",""
"null","../img/tt/1024tt.jpg","null","mooney2","image-keyboard-response","95","545682","0.0-6.0-5.12","3352626","co38239","norming","","","","","","",""
"3278.9999999998836","","","post_reveal_questions","survey-likert","96","548962","0.0-6.0-6.12","3352626","co38239","norming","","","{""aha"":1}","[0]","../img/tt/1024tt.jpg","",""
"null","<div style=""font-size:60px;""> </div>","null","fixation","html-keyboard-response","97","549164","0.0-6.0-0.13","3352626","co38239","norming","","","","","","",""
"null","../img/tt/1143tt.jpg","null","mooney1","image-keyboard-response","98","552166","0.0-6.0-1.13","3352626","co38239","norming","","","","","","",""
"5772","","","post_mooney1_questions","survey-likert","99","557941","0.0-6.0-2.13","3352626","co38239","norming","","","{""curiosity"":4,""confidence"":3}","[0,1]","../img/tt/1143tt.jpg","",""
"3452","","","recognition","survey-text","100","561398","0.0-6.0-3.13","3352626","co38239","norming","","","{""guess"":""hometrainer""}","","../img/tt/1143tt.jpg","",""
"null","../img/gs/1143gs.jpg","null","reveal","image-keyboard-response","101","563399","0.0-6.0-4.13","3352626","co38239","norming","","","","","","",""
"null","../img/tt/1143tt.jpg","null","mooney2","image-keyboard-response","102","565400","0.0-6.0-5.13","3352626","co38239","norming","","","","","","",""
"1903","","","post_reveal_questions","survey-likert","103","567304","0.0-6.0-6.13","3352626","co38239","norming","","","{""aha"":1}","[0]","../img/tt/1143tt.jpg","",""
"null","<div style=""font-size:60px;""> </div>","null","fixation","html-keyboard-response","104","567507","0.0-6.0-0.14","3352626","co38239","norming","","","","","","",""
"null","../img/tt/603tt.jpg","null","mooney1","image-keyboard-response","105","570508","0.0-6.0-1.14","3352626","co38239","norming","","","","","","",""
"5605","","","post_mooney1_questions","survey-likert","106","576114","0.0-6.0-2.14","3352626","co38239","norming","","","{""curiosity"":5,""confidence"":2}","[0,1]","../img/tt/603tt.jpg","",""
"1236.0000000001164","","","recognition","survey-text","107","577357","0.0-6.0-3.14","3352626","co38239","norming","","","{""guess"":""cat""}","","../img/tt/603tt.jpg","",""
"null","../img/gs/603gs.jpg","null","reveal","image-keyboard-response","108","579358","0.0-6.0-4.14","3352626","co38239","norming","","","","","","",""
"null","../img/tt/603tt.jpg","null","mooney2","image-keyboard-response","109","581360","0.0-6.0-5.14","3352626","co38239","norming","","","","","","",""
"3723","","","post_reveal_questions","survey-likert","110","585085","0.0-6.0-6.14","3352626","co38239","norming","","","{""aha"":1}","[0]","../img/tt/603tt.jpg","",""
"null","<div style=""font-size:60px;""> </div>","null","fixation","html-keyboard-response","111","585287","0.0-6.0-0.15","3352626","co38239","norming","","","","","","",""
"null","../img/tt/1224tt.jpg","null","mooney1","image-keyboard-response","112","588288","0.0-6.0-1.15","3352626","co38239","norming","","","","","","",""
"7241","","","post_mooney1_questions","survey-likert","113","595532","0.0-6.0-2.15","3352626","co38239","norming","","","{""curiosity"":5,""confidence"":3}","[0,1]","../img/tt/1224tt.jpg","",""
"4128","","","recognition","survey-text","114","599667","0.0-6.0-3.15","3352626","co38239","norming","","","{""guess"":""volleybal player""}","","../img/tt/1224tt.jpg","",""
"null","../img/gs/1224gs.jpg","null","reveal","image-keyboard-response","115","601669","0.0-6.0-4.15","3352626","co38239","norming","","","","","","",""
"null","../img/tt/1224tt.jpg","null","mooney2","image-keyboard-response","116","603673","0.0-6.0-5.15","3352626","co38239","norming","","","","","","",""
"3111.9999999998836","","","post_reveal_questions","survey-likert","117","606786","0.0-6.0-6.15","3352626","co38239","norming","","","{""aha"":2}","[0]","../img/tt/1224tt.jpg","",""
"null","<div style=""font-size:60px;""> </div>","null","fixation","html-keyboard-response","118","606988","0.0-6.0-0.16","3352626","co38239","norming","","","","","","",""
"null","../img/tt/1237tt.jpg","null","mooney1","image-keyboard-response","119","609990","0.0-6.0-1.16","3352626","co38239","norming","","","","","","",""
"7422","","","post_mooney1_questions","survey-likert","120","617414","0.0-6.0-2.16","3352626","co38239","norming","","","{""curiosity"":5,""confidence"":6}","[0,1]","../img/tt/1237tt.jpg","",""
"1581","","","recognition","survey-text","121","619005","0.0-6.0-3.16","3352626","co38239","norming","","","{""guess"":""duck""}","","../img/tt/1237tt.jpg","",""
"null","../img/gs/1237gs.jpg","null","reveal","image-keyboard-response","122","621007","0.0-6.0-4.16","3352626","co38239","norming","","","","","","",""
"null","../img/tt/1237tt.jpg","null","mooney2","image-keyboard-response","123","623009","0.0-6.0-5.16","3352626","co38239","norming","","","","","","",""
"2870","","","post_reveal_questions","survey-likert","124","625880","0.0-6.0-6.16","3352626","co38239","norming","","","{""aha"":1}","[0]","../img/tt/1237tt.jpg","",""
"null","<div style=""font-size:60px;""> </div>","null","fixation","html-keyboard-response","125","626083","0.0-6.0-0.17","3352626","co38239","norming","","","","","","",""
"null","../img/tt/517tt.jpg","null","mooney1","image-keyboard-response","126","629085","0.0-6.0-1.17","3352626","co38239","norming","","","","","","",""
"5888","","","post_mooney1_questions","survey-likert","127","634975","0.0-6.0-2.17","3352626","co38239","norming","","","{""curiosity"":6,""confidence"":2}","[0,1]","../img/tt/517tt.jpg","",""
"1896.0000000001164","","","recognition","survey-text","128","636878","0.0-6.0-3.17","3352626","co38239","norming","","","{""guess"":""mouth""}","","../img/tt/517tt.jpg","",""
"null","../img/gs/517gs.jpg","null","reveal","image-keyboard-response","129","638880","0.0-6.0-4.17","3352626","co38239","norming","","","","","","",""
"null","../img/tt/517tt.jpg","null","mooney2","image-keyboard-response","130","640882","0.0-6.0-5.17","3352626","co38239","norming","","","","","","",""
"6482.999999999884","","","post_reveal_questions","survey-likert","131","647367","0.0-6.0-6.17","3352626","co38239","norming","","","{""aha"":5}","[0]","../img/tt/517tt.jpg","",""
"null","<div style=""font-size:60px;""> </div>","null","fixation","html-keyboard-response","132","647569","0.0-6.0-0.18","3352626","co38239","norming","","","","","","",""
"null","../img/tt/1118tt.jpg","null","mooney1","image-keyboard-response","133","650571","0.0-6.0-1.18","3352626","co38239","norming","","","","","","",""
"5326","","","post_mooney1_questions","survey-likert","134","655898","0.0-6.0-2.18","3352626","co38239","norming","","","{""curiosity"":5,""confidence"":1}","[0,1]","../img/tt/1118tt.jpg","",""
"1594.9999999998836","","","recognition","survey-text","135","657499","0.0-6.0-3.18","3352626","co38239","norming","","","{""guess"":""tiger""}","","../img/tt/1118tt.jpg","",""
"null","../img/gs/1118gs.jpg","null","reveal","image-keyboard-response","136","659502","0.0-6.0-4.18","3352626","co38239","norming","","","","","","",""
"null","../img/tt/1118tt.jpg","null","mooney2","image-keyboard-response","137","661504","0.0-6.0-5.18","3352626","co38239","norming","","","","","","",""
"3197.9999999998836","","","post_reveal_questions","survey-likert","138","664704","0.0-6.0-6.18","3352626","co38239","norming","","","{""aha"":5}","[0]","../img/tt/1118tt.jpg","",""
"null","<div style=""font-size:60px;""> </div>","null","fixation","html-keyboard-response","139","664906","0.0-6.0-0.19","3352626","co38239","norming","","","","","","",""
"null","../img/tt/1146tt.jpg","null","mooney1","image-keyboard-response","140","667908","0.0-6.0-1.19","3352626","co38239","norming","","","","","","",""
"4772","","","post_mooney1_questions","survey-likert","141","672681","0.0-6.0-2.19","3352626","co38239","norming","","","{""curiosity"":5,""confidence"":0}","[0,1]","../img/tt/1146tt.jpg","",""
"1410","","","recognition","survey-text","142","674097","0.0-6.0-3.19","3352626","co38239","norming","","","{""guess"":""window""}","","../img/tt/1146tt.jpg","",""
"null","../img/gs/1146gs.jpg","null","reveal","image-keyboard-response","143","676099","0.0-6.0-4.19","3352626","co38239","norming","","","","","","",""
"null","../img/tt/1146tt.jpg","null","mooney2","image-keyboard-response","144","678100","0.0-6.0-5.19","3352626","co38239","norming","","","","","","",""
"3716.9999999998836","","","post_reveal_questions","survey-likert","145","681819","0.0-6.0-6.19","3352626","co38239","norming","","","{""aha"":5}","[0]","../img/tt/1146tt.jpg","",""
"null","<div style=""font-size:60px;""> </div>","null","fixation","html-keyboard-response","146","682021","0.0-6.0-0.20","3352626","co38239","norming","","","","","","",""
"null","../img/tt/079tt.jpg","null","mooney1","image-keyboard-response","147","685023","0.0-6.0-1.20","3352626","co38239","norming","","","","","","",""
"3884","","","post_mooney1_questions","survey-likert","148","688909","0.0-6.0-2.20","3352626","co38239","norming","","","{""curiosity"":5,""confidence"":5}","[0,1]","../img/tt/079tt.jpg","",""
"3919.0000000001164","","","recognition","survey-text","149","692833","0.0-6.0-3.20","3352626","co38239","norming","","","{""guess"":""bear""}","","../img/tt/079tt.jpg","",""
"null","../img/gs/079gs.jpg","null","reveal","image-keyboard-response","150","694836","0.0-6.0-4.20","3352626","co38239","norming","","","","","","",""
"null","../img/tt/079tt.jpg","null","mooney2","image-keyboard-response","151","696838","0.0-6.0-5.20","3352626","co38239","norming","","","","","","",""
"6645.999999999884","","","post_reveal_questions","survey-likert","152","703486","0.0-6.0-6.20","3352626","co38239","norming","","","{""aha"":1}","[0]","../img/tt/079tt.jpg","",""
"null","<div style=""font-size:60px;""> </div>","null","fixation","html-keyboard-response","153","703689","0.0-6.0-0.21","3352626","co38239","norming","","","","","","",""
"null","../img/tt/1254tt.jpg","null","mooney1","image-keyboard-response","154","706690","0.0-6.0-1.21","3352626","co38239","norming","","","","","","",""
"12665","","","post_mooney1_questions","survey-likert","155","719357","0.0-6.0-2.21","3352626","co38239","norming","","","{""curiosity"":5,""confidence"":1}","[0,1]","../img/tt/1254tt.jpg","",""
"2133","","","recognition","survey-text","156","721498","0.0-6.0-3.21","3352626","co38239","norming","","","{""guess"":""dancers""}","","../img/tt/1254tt.jpg","",""
"null","../img/gs/1254gs.jpg","null","reveal","image-keyboard-response","157","723499","0.0-6.0-4.21","3352626","co38239","norming","","","","","","",""
"null","../img/tt/1254tt.jpg","null","mooney2","image-keyboard-response","158","725500","0.0-6.0-5.21","3352626","co38239","norming","","","","","","",""
"4257","","","post_reveal_questions","survey-likert","159","729759","0.0-6.0-6.21","3352626","co38239","norming","","","{""aha"":5}","[0]","../img/tt/1254tt.jpg","",""
"null","<div style=""font-size:60px;""> </div>","null","fixation","html-keyboard-response","160","729961","0.0-6.0-0.22","3352626","co38239","norming","","","","","","",""
"null","../img/tt/1239tt.jpg","null","mooney1","image-keyboard-response","161","732962","0.0-6.0-1.22","3352626","co38239","norming","","","","","","",""
"5655","","","post_mooney1_questions","survey-likert","162","738618","0.0-6.0-2.22","3352626","co38239","norming","","","{""curiosity"":5,""confidence"":0}","[0,1]","../img/tt/1239tt.jpg","",""
"3541","","","recognition","survey-text","163","742165","0.0-6.0-3.22","3352626","co38239","norming","","","{""guess"":""bunny""}","","../img/tt/1239tt.jpg","",""
"null","../img/gs/1239gs.jpg","null","reveal","image-keyboard-response","164","744166","0.0-6.0-4.22","3352626","co38239","norming","","","","","","",""
"null","../img/tt/1239tt.jpg","null","mooney2","image-keyboard-response","165","746168","0.0-6.0-5.22","3352626","co38239","norming","","","","","","",""
"2889","","","post_reveal_questions","survey-likert","166","749058","0.0-6.0-6.22","3352626","co38239","norming","","","{""aha"":5}","[0]","../img/tt/1239tt.jpg","",""
"null","<div style=""font-size:60px;""> </div>","null","fixation","html-keyboard-response","167","749261","0.0-6.0-0.23","3352626","co38239","norming","","","","","","",""
"null","../img/tt/418tt.jpg","null","mooney1","image-keyboard-response","168","752263","0.0-6.0-1.23","3352626","co38239","norming","","","","","","",""
"5124.000000000116","","","post_mooney1_questions","survey-likert","169","757389","0.0-6.0-2.23","3352626","co38239","norming","","","{""curiosity"":5,""confidence"":3}","[0,1]","../img/tt/418tt.jpg","",""
"2818","","","recognition","survey-text","170","760212","0.0-6.0-3.23","3352626","co38239","norming","","","{""guess"":""veggies""}","","../img/tt/418tt.jpg","",""
"null","../img/gs/418gs.jpg","null","reveal","image-keyboard-response","171","762215","0.0-6.0-4.23","3352626","co38239","norming","","","","","","",""
"null","../img/tt/418tt.jpg","null","mooney2","image-keyboard-response","172","764216","0.0-6.0-5.23","3352626","co38239","norming","","","","","","",""
"3600","","","post_reveal_questions","survey-likert","173","767818","0.0-6.0-6.23","3352626","co38239","norming","","","{""aha"":2}","[0]","../img/tt/418tt.jpg","",""
"null","<div style=""font-size:60px;""> </div>","null","fixation","html-keyboard-response","174","768020","0.0-6.0-0.24","3352626","co38239","norming","","","","","","",""
"null","../img/tt/020tt.jpg","null","mooney1","image-keyboard-response","175","771022","0.0-6.0-1.24","3352626","co38239","norming","","","","","","",""
"4658.000000000116","","","post_mooney1_questions","survey-likert","176","775682","0.0-6.0-2.24","3352626","co38239","norming","","","{""curiosity"":5,""confidence"":1}","[0,1]","../img/tt/020tt.jpg","",""
"3111","","","recognition","survey-text","177","778798","0.0-6.0-3.24","3352626","co38239","norming","","","{""guess"":""rock""}","","../img/tt/020tt.jpg","",""
"null","../img/gs/020gs.jpg","null","reveal","image-keyboard-response","178","780799","0.0-6.0-4.24","3352626","co38239","norming","","","","","","",""
"null","../img/tt/020tt.jpg","null","mooney2","image-keyboard-response","179","782801","0.0-6.0-5.24","3352626","co38239","norming","","","","","","",""
"4159","","","post_reveal_questions","survey-likert","180","786961","0.0-6.0-6.24","3352626","co38239","norming","","","{""aha"":5}","[0]","../img/tt/020tt.jpg","",""
"null","<div style=""font-size:60px;""> </div>","null","fixation","html-keyboard-response","181","787164","0.0-6.0-0.25","3352626","co38239","norming","","","","","","",""
"null","../img/tt/1096tt.jpg","null","mooney1","image-keyboard-response","182","790166","0.0-6.0-1.25","3352626","co38239","norming","","","","","","",""
"5544.000000000116","","","post_mooney1_questions","survey-likert","183","795711","0.0-6.0-2.25","3352626","co38239","norming","","","{""curiosity"":4,""confidence"":4}","[0,1]","../img/tt/1096tt.jpg","",""
"2766","","","recognition","survey-text","184","798484","0.0-6.0-3.25","3352626","co38239","norming","","","{""guess"":""stairs""}","","../img/tt/1096tt.jpg","",""
"null","../img/gs/1096gs.jpg","null","reveal","image-keyboard-response","185","800485","0.0-6.0-4.25","3352626","co38239","norming","","","","","","",""
"null","../img/tt/1096tt.jpg","null","mooney2","image-keyboard-response","186","802486","0.0-6.0-5.25","3352626","co38239","norming","","","","","","",""
"3652.0000000001164","","","post_reveal_questions","survey-likert","187","806139","0.0-6.0-6.25","3352626","co38239","norming","","","{""aha"":4}","[0]","../img/tt/1096tt.jpg","",""
"null","<div style=""font-size:60px;""> </div>","null","fixation","html-keyboard-response","188","806341","0.0-6.0-0.26","3352626","co38239","norming","","","","","","",""
"null","../img/tt/1044tt.jpg","null","mooney1","image-keyboard-response","189","809342","0.0-6.0-1.26","3352626","co38239","norming","","","","","","",""
"22412","","","post_mooney1_questions","survey-likert","190","831757","0.0-6.0-2.26","3352626","co38239","norming","","","{""curiosity"":5,""confidence"":0}","[0,1]","../img/tt/1044tt.jpg","",""
"3673","","","recognition","survey-text","191","835438","0.0-6.0-3.26","3352626","co38239","norming","","","{""guess"":""dog""}","","../img/tt/1044tt.jpg","",""
"null","../img/gs/1044gs.jpg","null","reveal","image-keyboard-response","192","837439","0.0-6.0-4.26","3352626","co38239","norming","","","","","","",""
"null","../img/tt/1044tt.jpg","null","mooney2","image-keyboard-response","193","839440","0.0-6.0-5.26","3352626","co38239","norming","","","","","","",""
"4269","","","post_reveal_questions","survey-likert","194","843711","0.0-6.0-6.26","3352626","co38239","norming","","","{""aha"":5}","[0]","../img/tt/1044tt.jpg","",""
"null","<div style=""font-size:60px;""> </div>","null","fixation","html-keyboard-response","195","843913","0.0-6.0-0.27","3352626","co38239","norming","","","","","","",""
"null","../img/tt/358tt.jpg","null","mooney1","image-keyboard-response","196","846915","0.0-6.0-1.27","3352626","co38239","norming","","","","","","",""
"8986","","","post_mooney1_questions","survey-likert","197","855903","0.0-6.0-2.27","3352626","co38239","norming","","","{""curiosity"":5,""confidence"":3}","[0,1]","../img/tt/358tt.jpg","",""
"1385","","","recognition","survey-text","198","857293","0.0-6.0-3.27","3352626","co38239","norming","","","{""guess"":""horse""}","","../img/tt/358tt.jpg","",""
"null","../img/gs/358gs.jpg","null","reveal","image-keyboard-response","199","859295","0.0-6.0-4.27","3352626","co38239","norming","","","","","","",""
"null","../img/tt/358tt.jpg","null","mooney2","image-keyboard-response","200","861297","0.0-6.0-5.27","3352626","co38239","norming","","","","","","",""
"3392","","","post_reveal_questions","survey-likert","201","864690","0.0-6.0-6.27","3352626","co38239","norming","","","{""aha"":3}","[0]","../img/tt/358tt.jpg","",""
"null","<div style=""font-size:60px;""> </div>","null","fixation","html-keyboard-response","202","864893","0.0-6.0-0.28","3352626","co38239","norming","","","","","","",""
"null","../img/tt/163tt.jpg","null","mooney1","image-keyboard-response","203","867895","0.0-6.0-1.28","3352626","co38239","norming","","","","","","",""
"6661","","","post_mooney1_questions","survey-likert","204","874557","0.0-6.0-2.28","3352626","co38239","norming","","","{""curiosity"":4,""confidence"":2}","[0,1]","../img/tt/163tt.jpg","",""
"6206","","","recognition","survey-text","205","880770","0.0-6.0-3.28","3352626","co38239","norming","","","{""guess"":""curly hair""}","","../img/tt/163tt.jpg","",""
"null","../img/gs/163gs.jpg","null","reveal","image-keyboard-response","206","882771","0.0-6.0-4.28","3352626","co38239","norming","","","","","","",""
"null","../img/tt/163tt.jpg","null","mooney2","image-keyboard-response","207","884772","0.0-6.0-5.28","3352626","co38239","norming","","","","","","",""
"2580.0000000001164","","","post_reveal_questions","survey-likert","208","887353","0.0-6.0-6.28","3352626","co38239","norming","","","{""aha"":5}","[0]","../img/tt/163tt.jpg","",""
"null","<div style=""font-size:60px;""> </div>","null","fixation","html-keyboard-response","209","887555","0.0-6.0-0.29","3352626","co38239","norming","","","","","","",""
"null","../img/tt/1078tt.jpg","null","mooney1","image-keyboard-response","210","890557","0.0-6.0-1.29","3352626","co38239","norming","","","","","","",""
"5423","","","post_mooney1_questions","survey-likert","211","895981","0.0-6.0-2.29","3352626","co38239","norming","","","{""curiosity"":4,""confidence"":6}","[0,1]","../img/tt/1078tt.jpg","",""
"6076","","","recognition","survey-text","212","902064","0.0-6.0-3.29","3352626","co38239","norming","","","{""guess"":""skateboarder""}","","../img/tt/1078tt.jpg","",""
"null","../img/gs/1078gs.jpg","null","reveal","image-keyboard-response","213","904066","0.0-6.0-4.29","3352626","co38239","norming","","","","","","",""
"null","../img/tt/1078tt.jpg","null","mooney2","image-keyboard-response","214","906067","0.0-6.0-5.29","3352626","co38239","norming","","","","","","",""
"3120","","","post_reveal_questions","survey-likert","215","909187","0.0-6.0-6.29","3352626","co38239","norming","","","{""aha"":0}","[0]","../img/tt/1078tt.jpg","",""
"null","<div style=""font-size:60px;""> </div>","null","fixation","html-keyboard-response","216","909389","0.0-6.0-0.30","3352626","co38239","norming","","","","","","",""
"null","../img/tt/1181tt.jpg","null","mooney1","image-keyboard-response","217","912390","0.0-6.0-1.30","3352626","co38239","norming","","","","","","",""
"7006","","","post_mooney1_questions","survey-likert","218","919400","0.0-6.0-2.30","3352626","co38239","norming","","","{""curiosity"":5,""confidence"":2}","[0,1]","../img/tt/1181tt.jpg","",""
"4202","","","recognition","survey-text","219","923607","0.0-6.0-3.30","3352626","co38239","norming","","","{""guess"":""bull fight""}","","../img/tt/1181tt.jpg","",""
"null","../img/gs/1181gs.jpg","null","reveal","image-keyboard-response","220","925610","0.0-6.0-4.30","3352626","co38239","norming","","","","","","",""
"null","../img/tt/1181tt.jpg","null","mooney2","image-keyboard-response","221","927612","0.0-6.0-5.30","3352626","co38239","norming","","","","","","",""
"6561","","","post_reveal_questions","survey-likert","222","934175","0.0-6.0-6.30","3352626","co38239","norming","","","{""aha"":2}","[0]","../img/tt/1181tt.jpg","",""
"null","<div style=""font-size:60px;""> </div>","null","fixation","html-keyboard-response","223","934378","0.0-6.0-0.31","3352626","co38239","norming","","","","","","",""
"null","../img/tt/084tt.jpg","null","mooney1","image-keyboard-response","224","937379","0.0-6.0-1.31","3352626","co38239","norming","","","","","","",""
"5549","","","post_mooney1_questions","survey-likert","225","942931","0.0-6.0-2.31","3352626","co38239","norming","","","{""curiosity"":4,""confidence"":5}","[0,1]","../img/tt/084tt.jpg","",""
"2732.9999999998836","","","recognition","survey-text","226","945670","0.0-6.0-3.31","3352626","co38239","norming","","","{""guess"":""duck""}","","../img/tt/084tt.jpg","",""
"null","../img/gs/084gs.jpg","null","reveal","image-keyboard-response","227","947671","0.0-6.0-4.31","3352626","co38239","norming","","","","","","",""
"null","../img/tt/084tt.jpg","null","mooney2","image-keyboard-response","228","949673","0.0-6.0-5.31","3352626","co38239","norming","","","","","","",""
"2842","","","post_reveal_questions","survey-likert","229","952515","0.0-6.0-6.31","3352626","co38239","norming","","","{""aha"":1}","[0]","../img/tt/084tt.jpg","",""
"null","<div style=""font-size:60px;""> </div>","null","fixation","html-keyboard-response","230","952717","0.0-6.0-0.32","3352626","co38239","norming","","","","","","",""
"null","../img/tt/1063tt.jpg","null","mooney1","image-keyboard-response","231","955718","0.0-6.0-1.32","3352626","co38239","norming","","","","","","",""
"5267","","","post_mooney1_questions","survey-likert","232","960987","0.0-6.0-2.32","3352626","co38239","norming","","","{""curiosity"":5,""confidence"":4}","[0,1]","../img/tt/1063tt.jpg","",""
"3033","","","recognition","survey-text","233","964027","0.0-6.0-3.32","3352626","co38239","norming","","","{""guess"":""elephant""}","","../img/tt/1063tt.jpg","",""
"null","../img/gs/1063gs.jpg","null","reveal","image-keyboard-response","234","966030","0.0-6.0-4.32","3352626","co38239","norming","","","","","","",""
"null","../img/tt/1063tt.jpg","null","mooney2","image-keyboard-response","235","968031","0.0-6.0-5.32","3352626","co38239","norming","","","","","","",""
"8300","","","post_reveal_questions","survey-likert","236","976332","0.0-6.0-6.32","3352626","co38239","norming","","","{""aha"":5}","[0]","../img/tt/1063tt.jpg","",""
"null","<div style=""font-size:60px;""> </div>","null","fixation","html-keyboard-response","237","976535","0.0-6.0-0.33","3352626","co38239","norming","","","","","","",""
"null","../img/tt/1278tt.jpg","null","mooney1","image-keyboard-response","238","979536","0.0-6.0-1.33","3352626","co38239","norming","","","","","","",""
"3464","","","post_mooney1_questions","survey-likert","239","983002","0.0-6.0-2.33","3352626","co38239","norming","","","{""curiosity"":5,""confidence"":0}","[0,1]","../img/tt/1278tt.jpg","",""
"7009","","","recognition","survey-text","240","990018","0.0-6.0-3.33","3352626","co38239","norming","","","{""guess"":""masked woman""}","","../img/tt/1278tt.jpg","",""
"null","../img/gs/1278gs.jpg","null","reveal","image-keyboard-response","241","992020","0.0-6.0-4.33","3352626","co38239","norming","","","","","","",""
"null","../img/tt/1278tt.jpg","null","mooney2","image-keyboard-response","242","994022","0.0-6.0-5.33","3352626","co38239","norming","","","","","","",""
"3086","","","post_reveal_questions","survey-likert","243","997109","0.0-6.0-6.33","3352626","co38239","norming","","","{""aha"":6}","[0]","../img/tt/1278tt.jpg","",""
"null","<div style=""font-size:60px;""> </div>","null","fixation","html-keyboard-response","244","997311","0.0-6.0-0.34","3352626","co38239","norming","","","","","","",""
"null","../img/tt/1123tt.jpg","null","mooney1","image-keyboard-response","245","1000312","0.0-6.0-1.34","3352626","co38239","norming","","","","","","",""
"6743.999999999884","","","post_mooney1_questions","survey-likert","246","1007058","0.0-6.0-2.34","3352626","co38239","norming","","","{""curiosity"":5,""confidence"":4}","[0,1]","../img/tt/1123tt.jpg","",""
"6447.999999999884","","","recognition","survey-text","247","1013511","0.0-6.0-3.34","3352626","co38239","norming","","","{""guess"":""basketball player""}","","../img/tt/1123tt.jpg","",""
"null","../img/gs/1123gs.jpg","null","reveal","image-keyboard-response","248","1015514","0.0-6.0-4.34","3352626","co38239","norming","","","","","","",""
"null","../img/tt/1123tt.jpg","null","mooney2","image-keyboard-response","249","1017517","0.0-6.0-5.34","3352626","co38239","norming","","","","","","",""
"4178.999999999884","","","post_reveal_questions","survey-likert","250","1021697","0.0-6.0-6.34","3352626","co38239","norming","","","{""aha"":1}","[0]","../img/tt/1123tt.jpg","",""
"null","<div style=""font-size:60px;""> </div>","null","fixation","html-keyboard-response","251","1021899","0.0-6.0-0.35","3352626","co38239","norming","","","","","","",""
"null","../img/tt/1171tt.jpg","null","mooney1","image-keyboard-response","252","1024900","0.0-6.0-1.35","3352626","co38239","norming","","","","","","",""
"7922","","","post_mooney1_questions","survey-likert","253","1032824","0.0-6.0-2.35","3352626","co38239","norming","","","{""curiosity"":5,""confidence"":2}","[0,1]","../img/tt/1171tt.jpg","",""
"5447.999999999884","","","recognition","survey-text","254","1038277","0.0-6.0-3.35","3352626","co38239","norming","","","{""guess"":""hugging animals""}","","../img/tt/1171tt.jpg","",""
"null","../img/gs/1171gs.jpg","null","reveal","image-keyboard-response","255","1040278","0.0-6.0-4.35","3352626","co38239","norming","","","","","","",""
"null","../img/tt/1171tt.jpg","null","mooney2","image-keyboard-response","256","1042280","0.0-6.0-5.35","3352626","co38239","norming","","","","","","",""
"4884","","","post_reveal_questions","survey-likert","257","1047165","0.0-6.0-6.35","3352626","co38239","norming","","","{""aha"":6}","[0]","../img/tt/1171tt.jpg","",""
"null","<div style=""font-size:60px;""> </div>","null","fixation","html-keyboard-response","258","1047367","0.0-6.0-0.36","3352626","co38239","norming","","","","","","",""
"null","../img/tt/1236tt.jpg","null","mooney1","image-keyboard-response","259","1050368","0.0-6.0-1.36","3352626","co38239","norming","","","","","","",""
"4101.000000000233","","","post_mooney1_questions","survey-likert","260","1054471","0.0-6.0-2.36","3352626","co38239","norming","","","{""curiosity"":5,""confidence"":2}","[0,1]","../img/tt/1236tt.jpg","",""
"1259","","","recognition","survey-text","261","1055737","0.0-6.0-3.36","3352626","co38239","norming","","","{""guess"":""frog""}","","../img/tt/1236tt.jpg","",""
"null","../img/gs/1236gs.jpg","null","reveal","image-keyboard-response","262","1057739","0.0-6.0-4.36","3352626","co38239","norming","","","","","","",""
"null","../img/tt/1236tt.jpg","null","mooney2","image-keyboard-response","263","1059741","0.0-6.0-5.36","3352626","co38239","norming","","","","","","",""
"35485","","","post_reveal_questions","survey-likert","264","1095227","0.0-6.0-6.36","3352626","co38239","norming","","","{""aha"":3}","[0]","../img/tt/1236tt.jpg","",""
"null","<div style=""font-size:60px;""> </div>","null","fixation","html-keyboard-response","265","1095430","0.0-6.0-0.37","3352626","co38239","norming","","","","","","",""
"null","../img/tt/1126tt.jpg","null","mooney1","image-keyboard-response","266","1098432","0.0-6.0-1.37","3352626","co38239","norming","","","","","","",""
"4361","","","post_mooney1_questions","survey-likert","267","1102794","0.0-6.0-2.37","3352626","co38239","norming","","","{""curiosity"":4,""confidence"":2}","[0,1]","../img/tt/1126tt.jpg","",""
"1318","","","recognition","survey-text","268","1104118","0.0-6.0-3.37","3352626","co38239","norming","","","{""guess"":""tree""}","","../img/tt/1126tt.jpg","",""
"null","../img/gs/1126gs.jpg","null","reveal","image-keyboard-response","269","1106120","0.0-6.0-4.37","3352626","co38239","norming","","","","","","",""
"null","../img/tt/1126tt.jpg","null","mooney2","image-keyboard-response","270","1108122","0.0-6.0-5.37","3352626","co38239","norming","","","","","","",""
"3290","","","post_reveal_questions","survey-likert","271","1111414","0.0-6.0-6.37","3352626","co38239","norming","","","{""aha"":4}","[0]","../img/tt/1126tt.jpg","",""
"null","<div style=""font-size:60px;""> </div>","null","fixation","html-keyboard-response","272","1111616","0.0-6.0-0.38","3352626","co38239","norming","","","","","","",""
"null","../img/tt/1040tt.jpg","null","mooney1","image-keyboard-response","273","1114617","0.0-6.0-1.38","3352626","co38239","norming","","","","","","",""
"11764","","","post_mooney1_questions","survey-likert","274","1126383","0.0-6.0-2.38","3352626","co38239","norming","","","{""curiosity"":4,""confidence"":1}","[0,1]","../img/tt/1040tt.jpg","",""
"8493","","","recognition","survey-text","275","1134883","0.0-6.0-3.38","3352626","co38239","norming","","","{""guess"":""boat""}","","../img/tt/1040tt.jpg","",""
"null","../img/gs/1040gs.jpg","null","reveal","image-keyboard-response","276","1136885","0.0-6.0-4.38","3352626","co38239","norming","","","","","","",""
"null","../img/tt/1040tt.jpg","null","mooney2","image-keyboard-response","277","1138886","0.0-6.0-5.38","3352626","co38239","norming","","","","","","",""
"7148","","","post_reveal_questions","survey-likert","278","1146036","0.0-6.0-6.38","3352626","co38239","norming","","","{""aha"":6}","[0]","../img/tt/1040tt.jpg","",""
"null","<div style=""font-size:60px;""> </div>","null","fixation","html-keyboard-response","279","1146238","0.0-6.0-0.39","3352626","co38239","norming","","","","","","",""
"null","../img/tt/306tt.jpg","null","mooney1","image-keyboard-response","280","1149240","0.0-6.0-1.39","3352626","co38239","norming","","","","","","",""
"5232","","","post_mooney1_questions","survey-likert","281","1154473","0.0-6.0-2.39","3352626","co38239","norming","","","{""curiosity"":5,""confidence"":5}","[0,1]","../img/tt/306tt.jpg","",""
"1919","","","recognition","survey-text","282","1156397","0.0-6.0-3.39","3352626","co38239","norming","","","{""guess"":""jetski""}","","../img/tt/306tt.jpg","",""
"null","../img/gs/306gs.jpg","null","reveal","image-keyboard-response","283","1158398","0.0-6.0-4.39","3352626","co38239","norming","","","","","","",""
"null","../img/tt/306tt.jpg","null","mooney2","image-keyboard-response","284","1160400","0.0-6.0-5.39","3352626","co38239","norming","","","","","","",""
"110167","","","post_reveal_questions","survey-likert","285","1270572","0.0-6.0-6.39","3352626","co38239","norming","","","{""aha"":5}","[0]","../img/tt/306tt.jpg","",""
"null","<div style=""font-size:60px;""> </div>","null","fixation","html-keyboard-response","286","1270774","0.0-6.0-0.40","3352626","co38239","norming","","","","","","",""
"null","../img/tt/1066tt.jpg","null","mooney1","image-keyboard-response","287","1273777","0.0-6.0-1.40","3352626","co38239","norming","","","","","","",""
"4328","","","post_mooney1_questions","survey-likert","288","1278107","0.0-6.0-2.40","3352626","co38239","norming","","","{""curiosity"":5,""confidence"":5}","[0,1]","../img/tt/1066tt.jpg","",""
"1606","","","recognition","survey-text","289","1279720","0.0-6.0-3.40","3352626","co38239","norming","","","{""guess"":""bus""}","","../img/tt/1066tt.jpg","",""
"null","../img/gs/1066gs.jpg","null","reveal","image-keyboard-response","290","1281723","0.0-6.0-4.40","3352626","co38239","norming","","","","","","",""
"null","../img/tt/1066tt.jpg","null","mooney2","image-keyboard-response","291","1283725","0.0-6.0-5.40","3352626","co38239","norming","","","","","","",""
"14666","","","post_reveal_questions","survey-likert","292","1298393","0.0-6.0-6.40","3352626","co38239","norming","","","{""aha"":1}","[0]","../img/tt/1066tt.jpg","",""
"null","<div style=""font-size:60px;""> </div>","null","fixation","html-keyboard-response","293","1298596","0.0-6.0-0.41","3352626","co38239","norming","","","","","","",""
"null","../img/tt/279tt.jpg","null","mooney1","image-keyboard-response","294","1301598","0.0-6.0-1.41","3352626","co38239","norming","","","","","","",""
"12988","","","post_mooney1_questions","survey-likert","295","1314588","0.0-6.0-2.41","3352626","co38239","norming","","","{""curiosity"":5,""confidence"":2}","[0,1]","../img/tt/279tt.jpg","",""
"2318","","","recognition","survey-text","296","1316911","0.0-6.0-3.41","3352626","co38239","norming","","","{""guess"":""panda""}","","../img/tt/279tt.jpg","",""
"null","../img/gs/279gs.jpg","null","reveal","image-keyboard-response","297","1318913","0.0-6.0-4.41","3352626","co38239","norming","","","","","","",""
"null","../img/tt/279tt.jpg","null","mooney2","image-keyboard-response","298","1320915","0.0-6.0-5.41","3352626","co38239","norming","","","","","","",""
"73488","","","post_reveal_questions","survey-likert","299","1394407","0.0-6.0-6.41","3352626","co38239","norming","","","{""aha"":4}","[0]","../img/tt/279tt.jpg","",""
"null","<div style=""font-size:60px;""> </div>","null","fixation","html-keyboard-response","300","1394611","0.0-6.0-0.42","3352626","co38239","norming","","","","","","",""
"null","../img/tt/1226tt.jpg","null","mooney1","image-keyboard-response","301","1397612","0.0-6.0-1.42","3352626","co38239","norming","","","","","","",""
"6639","","","post_mooney1_questions","survey-likert","302","1404253","0.0-6.0-2.42","3352626","co38239","norming","","","{""curiosity"":5,""confidence"":1}","[0,1]","../img/tt/1226tt.jpg","",""
"13288.999999999767","","","recognition","survey-text","303","1417549","0.0-6.0-3.42","3352626","co38239","norming","","","{""guess"":""woman sitting""}","","../img/tt/1226tt.jpg","",""
"null","../img/gs/1226gs.jpg","null","reveal","image-keyboard-response","304","1419551","0.0-6.0-4.42","3352626","co38239","norming","","","","","","",""
"null","../img/tt/1226tt.jpg","null","mooney2","image-keyboard-response","305","1421552","0.0-6.0-5.42","3352626","co38239","norming","","","","","","",""
"3445","","","post_reveal_questions","survey-likert","306","1424998","0.0-6.0-6.42","3352626","co38239","norming","","","{""aha"":4}","[0]","../img/tt/1226tt.jpg","",""
"null","<div style=""font-size:60px;""> </div>","null","fixation","html-keyboard-response","307","1425201","0.0-6.0-0.43","3352626","co38239","norming","","","","","","",""
"null","../img/tt/064tt.jpg","null","mooney1","image-keyboard-response","308","1428203","0.0-6.0-1.43","3352626","co38239","norming","","","","","","",""
"5935","","","post_mooney1_questions","survey-likert","309","1434139","0.0-6.0-2.43","3352626","co38239","norming","","","{""curiosity"":5,""confidence"":3}","[0,1]","../img/tt/064tt.jpg","",""
"3353.999999999767","","","recognition","survey-text","310","1437499","0.0-6.0-3.43","3352626","co38239","norming","","","{""guess"":""turtle""}","","../img/tt/064tt.jpg","",""
"null","../img/gs/064gs.jpg","null","reveal","image-keyboard-response","311","1439500","0.0-6.0-4.43","3352626","co38239","norming","","","","","","",""
"null","../img/tt/064tt.jpg","null","mooney2","image-keyboard-response","312","1441502","0.0-6.0-5.43","3352626","co38239","norming","","","","","","",""
"1680","","","post_reveal_questions","survey-likert","313","1443183","0.0-6.0-6.43","3352626","co38239","norming","","","{""aha"":1}","[0]","../img/tt/064tt.jpg","",""
"null","<div style=""font-size:60px;""> </div>","null","fixation","html-keyboard-response","314","1443384","0.0-6.0-0.44","3352626","co38239","norming","","","","","","",""
"null","../img/tt/1196tt.jpg","null","mooney1","image-keyboard-response","315","1446386","0.0-6.0-1.44","3352626","co38239","norming","","","","","","",""
"5293","","","post_mooney1_questions","survey-likert","316","1451681","0.0-6.0-2.44","3352626","co38239","norming","","","{""curiosity"":6,""confidence"":5}","[0,1]","../img/tt/1196tt.jpg","",""
"3280","","","recognition","survey-text","317","1454966","0.0-6.0-3.44","3352626","co38239","norming","","","{""guess"":""cheerleaders""}","","../img/tt/1196tt.jpg","",""
"null","../img/gs/1196gs.jpg","null","reveal","image-keyboard-response","318","1456968","0.0-6.0-4.44","3352626","co38239","norming","","","","","","",""
"null","../img/tt/1196tt.jpg","null","mooney2","image-keyboard-response","319","1458970","0.0-6.0-5.44","3352626","co38239","norming","","","","","","",""
"6538","","","post_reveal_questions","survey-likert","320","1465510","0.0-6.0-6.44","3352626","co38239","norming","","","{""aha"":3}","[0]","../img/tt/1196tt.jpg","",""
"null","<div style=""font-size:60px;""> </div>","null","fixation","html-keyboard-response","321","1465712","0.0-6.0-0.45","3352626","co38239","norming","","","","","","",""
"null","../img/tt/121tt.jpg","null","mooney1","image-keyboard-response","322","1468713","0.0-6.0-1.45","3352626","co38239","norming","","","","","","",""
"10059","","","post_mooney1_questions","survey-likert","323","1478774","0.0-6.0-2.45","3352626","co38239","norming","","","{""curiosity"":5,""confidence"":2}","[0,1]","../img/tt/121tt.jpg","",""
"7686","","","recognition","survey-text","324","1486465","0.0-6.0-3.45","3352626","co38239","norming","","","{""guess"":""flying person""}","","../img/tt/121tt.jpg","",""
"null","../img/gs/121gs.jpg","null","reveal","image-keyboard-response","325","1488468","0.0-6.0-4.45","3352626","co38239","norming","","","","","","",""
"null","../img/tt/121tt.jpg","null","mooney2","image-keyboard-response","326","1490469","0.0-6.0-5.45","3352626","co38239","norming","","","","","","",""
"4311","","","post_reveal_questions","survey-likert","327","1494783","0.0-6.0-6.45","3352626","co38239","norming","","","{""aha"":5}","[0]","../img/tt/121tt.jpg","",""
"null","<div style=""font-size:60px;""> </div>","null","fixation","html-keyboard-response","328","1494986","0.0-6.0-0.46","3352626","co38239","norming","","","","","","",""
"null","../img/tt/094tt.jpg","null","mooney1","image-keyboard-response","329","1497987","0.0-6.0-1.46","3352626","co38239","norming","","","","","","",""
"10645","","","post_mooney1_questions","survey-likert","330","1508633","0.0-6.0-2.46","3352626","co38239","norming","","","{""curiosity"":5,""confidence"":3}","[0,1]","../img/tt/094tt.jpg","",""
"1990","","","recognition","survey-text","331","1510629","0.0-6.0-3.46","3352626","co38239","norming","","","{""guess"":""dog""}","","../img/tt/094tt.jpg","",""
"null","../img/gs/094gs.jpg","null","reveal","image-keyboard-response","332","1512632","0.0-6.0-4.46","3352626","co38239","norming","","","","","","",""
"null","../img/tt/094tt.jpg","null","mooney2","image-keyboard-response","333","1514634","0.0-6.0-5.46","3352626","co38239","norming","","","","","","",""
"7977","","","post_reveal_questions","survey-likert","334","1522612","0.0-6.0-6.46","3352626","co38239","norming","","","{""aha"":4}","[0]","../img/tt/094tt.jpg","",""
"null","<div style=""font-size:60px;""> </div>","null","fixation","html-keyboard-response","335","1522814","0.0-6.0-0.47","3352626","co38239","norming","","","","","","",""
"null","../img/tt/060tt.jpg","null","mooney1","image-keyboard-response","336","1525815","0.0-6.0-1.47","3352626","co38239","norming","","","","","","",""
"4702","","","post_mooney1_questions","survey-likert","337","1530518","0.0-6.0-2.47","3352626","co38239","norming","","","{""curiosity"":5,""confidence"":5}","[0,1]","../img/tt/060tt.jpg","",""
"2341","","","recognition","survey-text","338","1532866","0.0-6.0-3.47","3352626","co38239","norming","","","{""guess"":""hamburger""}","","../img/tt/060tt.jpg","",""
"null","../img/gs/060gs.jpg","null","reveal","image-keyboard-response","339","1534868","0.0-6.0-4.47","3352626","co38239","norming","","","","","","",""
"null","../img/tt/060tt.jpg","null","mooney2","image-keyboard-response","340","1536870","0.0-6.0-5.47","3352626","co38239","norming","","","","","","",""
"3477","","","post_reveal_questions","survey-likert","341","1540348","0.0-6.0-6.47","3352626","co38239","norming","","","{""aha"":0}","[0]","../img/tt/060tt.jpg","",""
"null","<div style=""font-size:60px;""> </div>","null","fixation","html-keyboard-response","342","1540550","0.0-6.0-0.48","3352626","co38239","norming","","","","","","",""
"null","../img/tt/1116tt.jpg","null","mooney1","image-keyboard-response","343","1543552","0.0-6.0-1.48","3352626","co38239","norming","","","","","","",""
"6332","","","post_mooney1_questions","survey-likert","344","1549886","0.0-6.0-2.48","3352626","co38239","norming","","","{""curiosity"":5,""confidence"":2}","[0,1]","../img/tt/1116tt.jpg","",""
"3063","","","recognition","survey-text","345","1552954","0.0-6.0-3.48","3352626","co38239","norming","","","{""guess"":""airplane""}","","../img/tt/1116tt.jpg","",""
"null","../img/gs/1116gs.jpg","null","reveal","image-keyboard-response","346","1554955","0.0-6.0-4.48","3352626","co38239","norming","","","","","","",""
"null","../img/tt/1116tt.jpg","null","mooney2","image-keyboard-response","347","1556956","0.0-6.0-5.48","3352626","co38239","norming","","","","","","",""
"3089","","","post_reveal_questions","survey-likert","348","1560046","0.0-6.0-6.48","3352626","co38239","norming","","","{""aha"":4}","[0]","../img/tt/1116tt.jpg","",""
"null","<div style=""font-size:60px;""> </div>","null","fixation","html-keyboard-response","349","1560247","0.0-6.0-0.49","3352626","co38239","norming","","","","","","",""
"null","../img/tt/405tt.jpg","null","mooney1","image-keyboard-response","350","1563249","0.0-6.0-1.49","3352626","co38239","norming","","","","","","",""
"3670","","","post_mooney1_questions","survey-likert","351","1566921","0.0-6.0-2.49","3352626","co38239","norming","","","{""curiosity"":5,""confidence"":4}","[0,1]","../img/tt/405tt.jpg","",""
"1758.9999999997672","","","recognition","survey-text","352","1568686","0.0-6.0-3.49","3352626","co38239","norming","","","{""guess"":""koala""}","","../img/tt/405tt.jpg","",""
"null","../img/gs/405gs.jpg","null","reveal","image-keyboard-response","353","1570688","0.0-6.0-4.49","3352626","co38239","norming","","","","","","",""
"null","../img/tt/405tt.jpg","null","mooney2","image-keyboard-response","354","1572690","0.0-6.0-5.49","3352626","co38239","norming","","","","","","",""
"2561","","","post_reveal_questions","survey-likert","355","1575251","0.0-6.0-6.49","3352626","co38239","norming","","","{""aha"":1}","[0]","../img/tt/405tt.jpg","",""
"null","<div style=""font-size:60px;""> </div>","null","fixation","html-keyboard-response","356","1575455","0.0-6.0-0.50","3352626","co38239","norming","","","","","","",""
"null","../img/tt/270tt.jpg","null","mooney1","image-keyboard-response","357","1578456","0.0-6.0-1.50","3352626","co38239","norming","","","","","","",""
"10580.999999999767","","","post_mooney1_questions","survey-likert","358","1589037","0.0-6.0-2.50","3352626","co38239","norming","","","{""curiosity"":6,""confidence"":1}","[0,1]","../img/tt/270tt.jpg","",""
"11947","","","recognition","survey-text","359","1600992","0.0-6.0-3.50","3352626","co38239","norming","","","{""guess"":""wall""}","","../img/tt/270tt.jpg","",""
"null","../img/gs/270gs.jpg","null","reveal","image-keyboard-response","360","1602994","0.0-6.0-4.50","3352626","co38239","norming","","","","","","",""
"null","../img/tt/270tt.jpg","null","mooney2","image-keyboard-response","361","1604996","0.0-6.0-5.50","3352626","co38239","norming","","","","","","",""
"3550.999999999767","","","post_reveal_questions","survey-likert","362","1608548","0.0-6.0-6.50","3352626","co38239","norming","","","{""aha"":6}","[0]","../img/tt/270tt.jpg","",""
"null","<div style=""font-size:60px;""> </div>","null","fixation","html-keyboard-response","363","1608750","0.0-6.0-0.51","3352626","co38239","norming","","","","","","",""
"null","../img/tt/123tt.jpg","null","mooney1","image-keyboard-response","364","1611754","0.0-6.0-1.51","3352626","co38239","norming","","","","","","",""
"7321.999999999767","","","post_mooney1_questions","survey-likert","365","1619077","0.0-6.0-2.51","3352626","co38239","norming","","","{""curiosity"":5,""confidence"":4}","[0,1]","../img/tt/123tt.jpg","",""
"3428.999999999767","","","recognition","survey-text","366","1622512","0.0-6.0-3.51","3352626","co38239","norming","","","{""guess"":""briefcase""}","","../img/tt/123tt.jpg","",""
"null","../img/gs/123gs.jpg","null","reveal","image-keyboard-response","367","1624514","0.0-6.0-4.51","3352626","co38239","norming","","","","","","",""
"null","../img/tt/123tt.jpg","null","mooney2","image-keyboard-response","368","1626516","0.0-6.0-5.51","3352626","co38239","norming","","","","","","",""
"2933","","","post_reveal_questions","survey-likert","369","1629450","0.0-6.0-6.51","3352626","co38239","norming","","","{""aha"":2}","[0]","../img/tt/123tt.jpg","",""
"null","<div style=""font-size:60px;""> </div>","null","fixation","html-keyboard-response","370","1629651","0.0-6.0-0.52","3352626","co38239","norming","","","","","","",""
"null","../img/tt/1154tt.jpg","null","mooney1","image-keyboard-response","371","1632652","0.0-6.0-1.52","3352626","co38239","norming","","","","","","",""
"10565.000000000233","","","post_mooney1_questions","survey-likert","372","1643219","0.0-6.0-2.52","3352626","co38239","norming","","","{""curiosity"":4,""confidence"":4}","[0,1]","../img/tt/1154tt.jpg","",""
"4908.999999999767","","","recognition","survey-text","373","1648137","0.0-6.0-3.52","3352626","co38239","norming","","","{""guess"":""cano""}","","../img/tt/1154tt.jpg","",""
"null","../img/gs/1154gs.jpg","null","reveal","image-keyboard-response","374","1650138","0.0-6.0-4.52","3352626","co38239","norming","","","","","","",""
"null","../img/tt/1154tt.jpg","null","mooney2","image-keyboard-response","375","1652140","0.0-6.0-5.52","3352626","co38239","norming","","","","","","",""
"16796","","","post_reveal_questions","survey-likert","376","1668938","0.0-6.0-6.52","3352626","co38239","norming","","","{""aha"":1}","[0]","../img/tt/1154tt.jpg","",""
"null","<div style=""font-size:60px;""> </div>","null","fixation","html-keyboard-response","377","1669140","0.0-6.0-0.53","3352626","co38239","norming","","","","","","",""
"null","../img/tt/044tt.jpg","null","mooney1","image-keyboard-response","378","1672142","0.0-6.0-1.53","3352626","co38239","norming","","","","","","",""
"6367","","","post_mooney1_questions","survey-likert","379","1678510","0.0-6.0-2.53","3352626","co38239","norming","","","{""curiosity"":5,""confidence"":2}","[0,1]","../img/tt/044tt.jpg","",""
"5262.000000000233","","","recognition","survey-text","380","1683777","0.0-6.0-3.53","3352626","co38239","norming","","","{""guess"":""laptop""}","","../img/tt/044tt.jpg","",""
"null","../img/gs/044gs.jpg","null","reveal","image-keyboard-response","381","1685780","0.0-6.0-4.53","3352626","co38239","norming","","","","","","",""
"null","../img/tt/044tt.jpg","null","mooney2","image-keyboard-response","382","1687781","0.0-6.0-5.53","3352626","co38239","norming","","","","","","",""
"3957","","","post_reveal_questions","survey-likert","383","1691739","0.0-6.0-6.53","3352626","co38239","norming","","","{""aha"":5}","[0]","../img/tt/044tt.jpg","",""
"null","<div style=""font-size:60px;""> </div>","null","fixation","html-keyboard-response","384","1691942","0.0-6.0-0.54","3352626","co38239","norming","","","","","","",""
"null","../img/tt/1186tt.jpg","null","mooney1","image-keyboard-response","385","1694943","0.0-6.0-1.54","3352626","co38239","norming","","","","","","",""
"7449.000000000233","","","post_mooney1_questions","survey-likert","386","1702393","0.0-6.0-2.54","3352626","co38239","norming","","","{""curiosity"":6,""confidence"":3}","[0,1]","../img/tt/1186tt.jpg","",""
"4295","","","recognition","survey-text","387","1706693","0.0-6.0-3.54","3352626","co38239","norming","","","{""guess"":""snowboarder""}","","../img/tt/1186tt.jpg","",""
"null","../img/gs/1186gs.jpg","null","reveal","image-keyboard-response","388","1708694","0.0-6.0-4.54","3352626","co38239","norming","","","","","","",""
"null","../img/tt/1186tt.jpg","null","mooney2","image-keyboard-response","389","1710696","0.0-6.0-5.54","3352626","co38239","norming","","","","","","",""
"6090.000000000233","","","post_reveal_questions","survey-likert","390","1716787","0.0-6.0-6.54","3352626","co38239","norming","","","{""aha"":4}","[0]","../img/tt/1186tt.jpg","",""
"null","<div style=""font-size:60px;""> </div>","null","fixation","html-keyboard-response","391","1716991","0.0-6.0-0.55","3352626","co38239","norming","","","","","","",""
"null","../img/tt/353tt.jpg","null","mooney1","image-keyboard-response","392","1719993","0.0-6.0-1.55","3352626","co38239","norming","","","","","","",""
"3725.000000000233","","","post_mooney1_questions","survey-likert","393","1723720","0.0-6.0-2.55","3352626","co38239","norming","","","{""curiosity"":5,""confidence"":1}","[0,1]","../img/tt/353tt.jpg","",""
"2723.000000000233","","","recognition","survey-text","394","1726451","0.0-6.0-3.55","3352626","co38239","norming","","","{""guess"":""bunny""}","","../img/tt/353tt.jpg","",""
"null","../img/gs/353gs.jpg","null","reveal","image-keyboard-response","395","1728453","0.0-6.0-4.55","3352626","co38239","norming","","","","","","",""
"null","../img/tt/353tt.jpg","null","mooney2","image-keyboard-response","396","1730456","0.0-6.0-5.55","3352626","co38239","norming","","","","","","",""
"2662","","","post_reveal_questions","survey-likert","397","1733119","0.0-6.0-6.55","3352626","co38239","norming","","","{""aha"":5}","[0]","../img/tt/353tt.jpg","",""
"null","<div style=""font-size:60px;""> </div>","null","fixation","html-keyboard-response","398","1733323","0.0-6.0-0.56","3352626","co38239","norming","","","","","","",""
"null","../img/tt/1227tt.jpg","null","mooney1","image-keyboard-response","399","1736325","0.0-6.0-1.56","3352626","co38239","norming","","","","","","",""
"3749","","","post_mooney1_questions","survey-likert","400","1740076","0.0-6.0-2.56","3352626","co38239","norming","","","{""curiosity"":5,""confidence"":3}","[0,1]","../img/tt/1227tt.jpg","",""
"6759","","","recognition","survey-text","401","1746843","0.0-6.0-3.56","3352626","co38239","norming","","","{""guess"":""croud""}","","../img/tt/1227tt.jpg","",""
"null","../img/gs/1227gs.jpg","null","reveal","image-keyboard-response","402","1748846","0.0-6.0-4.56","3352626","co38239","norming","","","","","","",""
"null","../img/tt/1227tt.jpg","null","mooney2","image-keyboard-response","403","1750848","0.0-6.0-5.56","3352626","co38239","norming","","","","","","",""
"3290","","","post_reveal_questions","survey-likert","404","1754139","0.0-6.0-6.56","3352626","co38239","norming","","","{""aha"":4}","[0]","../img/tt/1227tt.jpg","",""
"null","<div style=""font-size:60px;""> </div>","null","fixation","html-keyboard-response","405","1754342","0.0-6.0-0.57","3352626","co38239","norming","","","","","","",""
"null","../img/tt/1070tt.jpg","null","mooney1","image-keyboard-response","406","1757344","0.0-6.0-1.57","3352626","co38239","norming","","","","","","",""
"8620.999999999767","","","post_mooney1_questions","survey-likert","407","1765967","0.0-6.0-2.57","3352626","co38239","norming","","","{""curiosity"":5,""confidence"":3}","[0,1]","../img/tt/1070tt.jpg","",""
"2719.000000000233","","","recognition","survey-text","408","1768693","0.0-6.0-3.57","3352626","co38239","norming","","","{""guess"":""pitta""}","","../img/tt/1070tt.jpg","",""
"null","../img/gs/1070gs.jpg","null","reveal","image-keyboard-response","409","1770696","0.0-6.0-4.57","3352626","co38239","norming","","","","","","",""
"null","../img/tt/1070tt.jpg","null","mooney2","image-keyboard-response","410","1772698","0.0-6.0-5.57","3352626","co38239","norming","","","","","","",""
"3459","","","post_reveal_questions","survey-likert","411","1776158","0.0-6.0-6.57","3352626","co38239","norming","","","{""aha"":4}","[0]","../img/tt/1070tt.jpg","",""
"null","<div style=""font-size:60px;""> </div>","null","fixation","html-keyboard-response","412","1776360","0.0-6.0-0.58","3352626","co38239","norming","","","","","","",""
"null","../img/tt/438tt.jpg","null","mooney1","image-keyboard-response","413","1779363","0.0-6.0-1.58","3352626","co38239","norming","","","","","","",""
"5666.000000000233","","","post_mooney1_questions","survey-likert","414","1785030","0.0-6.0-2.58","3352626","co38239","norming","","","{""curiosity"":5,""confidence"":3}","[0,1]","../img/tt/438tt.jpg","",""
"1817","","","recognition","survey-text","415","1786855","0.0-6.0-3.58","3352626","co38239","norming","","","{""guess"":""owl""}","","../img/tt/438tt.jpg","",""
"null","../img/gs/438gs.jpg","null","reveal","image-keyboard-response","416","1788857","0.0-6.0-4.58","3352626","co38239","norming","","","","","","",""
"null","../img/tt/438tt.jpg","null","mooney2","image-keyboard-response","417","1790859","0.0-6.0-5.58","3352626","co38239","norming","","","","","","",""
"9555","","","post_reveal_questions","survey-likert","418","1800416","0.0-6.0-6.58","3352626","co38239","norming","","","{""aha"":4}","[0]","../img/tt/438tt.jpg","",""
"null","<div style=""font-size:60px;""> </div>","null","fixation","html-keyboard-response","419","1800620","0.0-6.0-0.59","3352626","co38239","norming","","","","","","",""
"null","../img/tt/1089tt.jpg","null","mooney1","image-keyboard-response","420","1803622","0.0-6.0-1.59","3352626","co38239","norming","","","","","","",""
"5615","","","post_mooney1_questions","survey-likert","421","1809240","0.0-6.0-2.59","3352626","co38239","norming","","","{""curiosity"":6,""confidence"":2}","[0,1]","../img/tt/1089tt.jpg","",""
"3161","","","recognition","survey-text","422","1812409","0.0-6.0-3.59","3352626","co38239","norming","","","{""guess"":""bed""}","","../img/tt/1089tt.jpg","",""
"null","../img/gs/1089gs.jpg","null","reveal","image-keyboard-response","423","1814411","0.0-6.0-4.59","3352626","co38239","norming","","","","","","",""
"null","../img/tt/1089tt.jpg","null","mooney2","image-keyboard-response","424","1816414","0.0-6.0-5.59","3352626","co38239","norming","","","","","","",""
"2780.000000000233","","","post_reveal_questions","survey-likert","425","1819195","0.0-6.0-6.59","3352626","co38239","norming","","","{""aha"":5}","[0]","../img/tt/1089tt.jpg","",""
"null","<div style=""font-size:60px;""> </div>","null","fixation","html-keyboard-response","426","1819398","0.0-6.0-0.60","3352626","co38239","norming","","","","","","",""
"null","../img/tt/456tt.jpg","null","mooney1","image-keyboard-response","427","1822400","0.0-6.0-1.60","3352626","co38239","norming","","","","","","",""
"3414","","","post_mooney1_questions","survey-likert","428","1825816","0.0-6.0-2.60","3352626","co38239","norming","","","{""curiosity"":6,""confidence"":2}","[0,1]","../img/tt/456tt.jpg","",""
"1945","","","recognition","survey-text","429","1827768","0.0-6.0-3.60","3352626","co38239","norming","","","{""guess"":""seal""}","","../img/tt/456tt.jpg","",""
"null","../img/gs/456gs.jpg","null","reveal","image-keyboard-response","430","1829771","0.0-6.0-4.60","3352626","co38239","norming","","","","","","",""
"null","../img/tt/456tt.jpg","null","mooney2","image-keyboard-response","431","1831773","0.0-6.0-5.60","3352626","co38239","norming","","","","","","",""
"2538","","","post_reveal_questions","survey-likert","432","1834313","0.0-6.0-6.60","3352626","co38239","norming","","","{""aha"":4}","[0]","../img/tt/456tt.jpg","",""
"null","<div style=""font-size:60px;""> </div>","null","fixation","html-keyboard-response","433","1834515","0.0-6.0-0.61","3352626","co38239","norming","","","","","","",""
"null","../img/tt/442tt.jpg","null","mooney1","image-keyboard-response","434","1837518","0.0-6.0-1.61","3352626","co38239","norming","","","","","","",""
"3456","","","post_mooney1_questions","survey-likert","435","1840975","0.0-6.0-2.61","3352626","co38239","norming","","","{""curiosity"":6,""confidence"":0}","[0,1]","../img/tt/442tt.jpg","",""
"802.9999999997672","","","recognition","survey-text","436","1841786","0.0-6.0-3.61","3352626","co38239","norming","","","{""guess"":""""}","","../img/tt/442tt.jpg","",""
"null","../img/gs/442gs.jpg","null","reveal","image-keyboard-response","437","1843788","0.0-6.0-4.61","3352626","co38239","norming","","","","","","",""
"null","../img/tt/442tt.jpg","null","mooney2","image-keyboard-response","438","1845790","0.0-6.0-5.61","3352626","co38239","norming","","","","","","",""
"2375","","","post_reveal_questions","survey-likert","439","1848167","0.0-6.0-6.61","3352626","co38239","norming","","","{""aha"":6}","[0]","../img/tt/442tt.jpg","",""
"null","<div style=""font-size:60px;""> </div>","null","fixation","html-keyboard-response","440","1848370","0.0-6.0-0.62","3352626","co38239","norming","","","","","","",""
"null","../img/tt/477tt.jpg","null","mooney1","image-keyboard-response","441","1851371","0.0-6.0-1.62","3352626","co38239","norming","","","","","","",""
"5735.000000000233","","","post_mooney1_questions","survey-likert","442","1857109","0.0-6.0-2.62","3352626","co38239","norming","","","{""curiosity"":5,""confidence"":1}","[0,1]","../img/tt/477tt.jpg","",""
"1527","","","recognition","survey-text","443","1858643","0.0-6.0-3.62","3352626","co38239","norming","","","{""guess"":""panda""}","","../img/tt/477tt.jpg","",""
"null","../img/gs/477gs.jpg","null","reveal","image-keyboard-response","444","1860646","0.0-6.0-4.62","3352626","co38239","norming","","","","","","",""
"null","../img/tt/477tt.jpg","null","mooney2","image-keyboard-response","445","1862648","0.0-6.0-5.62","3352626","co38239","norming","","","","","","",""
"3495","","","post_reveal_questions","survey-likert","446","1866144","0.0-6.0-6.62","3352626","co38239","norming","","","{""aha"":5}","[0]","../img/tt/477tt.jpg","",""
"null","<div style=""font-size:60px;""> </div>","null","fixation","html-keyboard-response","447","1866348","0.0-6.0-0.63","3352626","co38239","norming","","","","","","",""
"null","../img/tt/111tt.jpg","null","mooney1","image-keyboard-response","448","1869350","0.0-6.0-1.63","3352626","co38239","norming","","","","","","",""
"3424","","","post_mooney1_questions","survey-likert","449","1872776","0.0-6.0-2.63","3352626","co38239","norming","","","{""curiosity"":5,""confidence"":2}","[0,1]","../img/tt/111tt.jpg","",""
"4090.999999999767","","","recognition","survey-text","450","1876874","0.0-6.0-3.63","3352626","co38239","norming","","","{""guess"":""christmas tree""}","","../img/tt/111tt.jpg","",""
"null","../img/gs/111gs.jpg","null","reveal","image-keyboard-response","451","1878877","0.0-6.0-4.63","3352626","co38239","norming","","","","","","",""
"null","../img/tt/111tt.jpg","null","mooney2","image-keyboard-response","452","1880879","0.0-6.0-5.63","3352626","co38239","norming","","","","","","",""
"5259","","","post_reveal_questions","survey-likert","453","1886139","0.0-6.0-6.63","3352626","co38239","norming","","","{""aha"":4}","[0]","../img/tt/111tt.jpg","",""
"null","<div style=""font-size:60px;""> </div>","null","fixation","html-keyboard-response","454","1886342","0.0-6.0-0.64","3352626","co38239","norming","","","","","","",""
"null","../img/tt/497tt.jpg","null","mooney1","image-keyboard-response","455","1889345","0.0-6.0-1.64","3352626","co38239","norming","","","","","","",""
"7398.000000000233","","","post_mooney1_questions","survey-likert","456","1896745","0.0-6.0-2.64","3352626","co38239","norming","","","{""curiosity"":5,""confidence"":5}","[0,1]","../img/tt/497tt.jpg","",""
"7375","","","recognition","survey-text","457","1904129","0.0-6.0-3.64","3352626","co38239","norming","","","{""guess"":""cooking plate""}","","../img/tt/497tt.jpg","",""
"null","../img/gs/497gs.jpg","null","reveal","image-keyboard-response","458","1906131","0.0-6.0-4.64","3352626","co38239","norming","","","","","","",""
"null","../img/tt/497tt.jpg","null","mooney2","image-keyboard-response","459","1908132","0.0-6.0-5.64","3352626","co38239","norming","","","","","","",""
"1870.0000000002328","","","post_reveal_questions","survey-likert","460","1910004","0.0-6.0-6.64","3352626","co38239","norming","","","{""aha"":0}","[0]","../img/tt/497tt.jpg","",""
"null","<div style=""font-size:60px;""> </div>","null","fixation","html-keyboard-response","461","1910207","0.0-6.0-0.65","3352626","co38239","norming","","","","","","",""
"null","../img/tt/319tt.jpg","null","mooney1","image-keyboard-response","462","1913210","0.0-6.0-1.65","3352626","co38239","norming","","","","","","",""
"3687.000000000233","","","post_mooney1_questions","survey-likert","463","1916898","0.0-6.0-2.65","3352626","co38239","norming","","","{""curiosity"":5,""confidence"":4}","[0,1]","../img/tt/319tt.jpg","",""
"2294","","","recognition","survey-text","464","1919199","0.0-6.0-3.65","3352626","co38239","norming","","","{""guess"":""cows""}","","../img/tt/319tt.jpg","",""
"null","../img/gs/319gs.jpg","null","reveal","image-keyboard-response","465","1921202","0.0-6.0-4.65","3352626","co38239","norming","","","","","","",""
"null","../img/tt/319tt.jpg","null","mooney2","image-keyboard-response","466","1923204","0.0-6.0-5.65","3352626","co38239","norming","","","","","","",""
"4605","","","post_reveal_questions","survey-likert","467","1927810","0.0-6.0-6.65","3352626","co38239","norming","","","{""aha"":2}","[0]","../img/tt/319tt.jpg","",""
"null","<div style=""font-size:60px;""> </div>","null","fixation","html-keyboard-response","468","1928014","0.0-6.0-0.66","3352626","co38239","norming","","","","","","",""
"null","../img/tt/1084tt.jpg","null","mooney1","image-keyboard-response","469","1931016","0.0-6.0-1.66","3352626","co38239","norming","","","","","","",""
"6818","","","post_mooney1_questions","survey-likert","470","1937836","0.0-6.0-2.66","3352626","co38239","norming","","","{""curiosity"":5,""confidence"":2}","[0,1]","../img/tt/1084tt.jpg","",""
"2743","","","recognition","survey-text","471","1940588","0.0-6.0-3.66","3352626","co38239","norming","","","{""guess"":""strawberry""}","","../img/tt/1084tt.jpg","",""
"null","../img/gs/1084gs.jpg","null","reveal","image-keyboard-response","472","1942591","0.0-6.0-4.66","3352626","co38239","norming","","","","","","",""
"null","../img/tt/1084tt.jpg","null","mooney2","image-keyboard-response","473","1944593","0.0-6.0-5.66","3352626","co38239","norming","","","","","","",""
"5219.000000000233","","","post_reveal_questions","survey-likert","474","1949813","0.0-6.0-6.66","3352626","co38239","norming","","","{""aha"":4}","[0]","../img/tt/1084tt.jpg","",""
"null","<div style=""font-size:60px;""> </div>","null","fixation","html-keyboard-response","475","1950016","0.0-6.0-0.67","3352626","co38239","norming","","","","","","",""
"null","../img/tt/001tt.jpg","null","mooney1","image-keyboard-response","476","1953019","0.0-6.0-1.67","3352626","co38239","norming","","","","","","",""
"11074","","","post_mooney1_questions","survey-likert","477","1964095","0.0-6.0-2.67","3352626","co38239","norming","","","{""curiosity"":5,""confidence"":4}","[0,1]","../img/tt/001tt.jpg","",""
"2122.999999999767","","","recognition","survey-text","478","1966226","0.0-6.0-3.67","3352626","co38239","norming","","","{""guess"":""giraffe""}","","../img/tt/001tt.jpg","",""
"null","../img/gs/001gs.jpg","null","reveal","image-keyboard-response","479","1968228","0.0-6.0-4.67","3352626","co38239","norming","","","","","","",""
"null","../img/tt/001tt.jpg","null","mooney2","image-keyboard-response","480","1970230","0.0-6.0-5.67","3352626","co38239","norming","","","","","","",""
"5590","","","post_reveal_questions","survey-likert","481","1975822","0.0-6.0-6.67","3352626","co38239","norming","","","{""aha"":5}","[0]","../img/tt/001tt.jpg","",""
"null","<div style=""font-size:60px;""> </div>","null","fixation","html-keyboard-response","482","1976025","0.0-6.0-0.68","3352626","co38239","norming","","","","","","",""
"null","../img/tt/189tt.jpg","null","mooney1","image-keyboard-response","483","1979027","0.0-6.0-1.68","3352626","co38239","norming","","","","","","",""
"5246.000000000233","","","post_mooney1_questions","survey-likert","484","1984275","0.0-6.0-2.68","3352626","co38239","norming","","","{""curiosity"":5,""confidence"":3}","[0,1]","../img/tt/189tt.jpg","",""
"2121","","","recognition","survey-text","485","1986404","0.0-6.0-3.68","3352626","co38239","norming","","","{""guess"":""surfer""}","","../img/tt/189tt.jpg","",""
"null","../img/gs/189gs.jpg","null","reveal","image-keyboard-response","486","1988406","0.0-6.0-4.68","3352626","co38239","norming","","","","","","",""
"null","../img/tt/189tt.jpg","null","mooney2","image-keyboard-response","487","1990408","0.0-6.0-5.68","3352626","co38239","norming","","","","","","",""
"2283","","","post_reveal_questions","survey-likert","488","1992692","0.0-6.0-6.68","3352626","co38239","norming","","","{""aha"":5}","[0]","../img/tt/189tt.jpg","",""
"null","<div style=""font-size:60px;""> </div>","null","fixation","html-keyboard-response","489","1992895","0.0-6.0-0.69","3352626","co38239","norming","","","","","","",""
"null","../img/tt/300tt.jpg","null","mooney1","image-keyboard-response","490","1995896","0.0-6.0-1.69","3352626","co38239","norming","","","","","","",""
"7209","","","post_mooney1_questions","survey-likert","491","2003107","0.0-6.0-2.69","3352626","co38239","norming","","","{""curiosity"":5,""confidence"":3}","[0,1]","../img/tt/300tt.jpg","",""
"1213","","","recognition","survey-text","492","2004327","0.0-6.0-3.69","3352626","co38239","norming","","","{""guess"":""bird""}","","../img/tt/300tt.jpg","",""
"null","../img/gs/300gs.jpg","null","reveal","image-keyboard-response","493","2006330","0.0-6.0-4.69","3352626","co38239","norming","","","","","","",""
"null","../img/tt/300tt.jpg","null","mooney2","image-keyboard-response","494","2008332","0.0-6.0-5.69","3352626","co38239","norming","","","","","","",""
"2955.999999999767","","","post_reveal_questions","survey-likert","495","2011289","0.0-6.0-6.69","3352626","co38239","norming","","","{""aha"":4}","[0]","../img/tt/300tt.jpg","",""
"null","<div style=""font-size:60px;""> </div>","null","fixation","html-keyboard-response","496","2011492","0.0-6.0-0.70","3352626","co38239","norming","","","","","","",""
"null","../img/tt/040tt.jpg","null","mooney1","image-keyboard-response","497","2014495","0.0-6.0-1.70","3352626","co38239","norming","","","","","","",""
"9743","","","post_mooney1_questions","survey-likert","498","2024239","0.0-6.0-2.70","3352626","co38239","norming","","","{""curiosity"":4,""confidence"":5}","[0,1]","../img/tt/040tt.jpg","",""
"2052.999999999767","","","recognition","survey-text","499","2026301","0.0-6.0-3.70","3352626","co38239","norming","","","{""guess"":""monkey""}","","../img/tt/040tt.jpg","",""
"null","../img/gs/040gs.jpg","null","reveal","image-keyboard-response","500","2028304","0.0-6.0-4.70","3352626","co38239","norming","","","","","","",""
"null","../img/tt/040tt.jpg","null","mooney2","image-keyboard-response","501","2030306","0.0-6.0-5.70","3352626","co38239","norming","","","","","","",""
"4481","","","post_reveal_questions","survey-likert","502","2034789","0.0-6.0-6.70","3352626","co38239","norming","","","{""aha"":2}","[0]","../img/tt/040tt.jpg","",""
"null","<div style=""font-size:60px;""> </div>","null","fixation","html-keyboard-response","503","2034992","0.0-6.0-0.71","3352626","co38239","norming","","","","","","",""
"null","../img/tt/1006tt.jpg","null","mooney1","image-keyboard-response","504","2037994","0.0-6.0-1.71","3352626","co38239","norming","","","","","","",""
"5414.000000000233","","","post_mooney1_questions","survey-likert","505","2043410","0.0-6.0-2.71","3352626","co38239","norming","","","{""curiosity"":4,""confidence"":3}","[0,1]","../img/tt/1006tt.jpg","",""
"2219","","","recognition","survey-text","506","2045636","0.0-6.0-3.71","3352626","co38239","norming","","","{""guess"":""field""}","","../img/tt/1006tt.jpg","",""
"null","../img/gs/1006gs.jpg","null","reveal","image-keyboard-response","507","2047638","0.0-6.0-4.71","3352626","co38239","norming","","","","","","",""
"null","../img/tt/1006tt.jpg","null","mooney2","image-keyboard-response","508","2049640","0.0-6.0-5.71","3352626","co38239","norming","","","","","","",""
"2915","","","post_reveal_questions","survey-likert","509","2052556","0.0-6.0-6.71","3352626","co38239","norming","","","{""aha"":3}","[0]","../img/tt/1006tt.jpg","",""
"null","<div style=""font-size:60px;""> </div>","null","fixation","html-keyboard-response","510","2052758","0.0-6.0-0.72","3352626","co38239","norming","","","","","","",""
"null","../img/tt/140tt.jpg","null","mooney1","image-keyboard-response","511","2055760","0.0-6.0-1.72","3352626","co38239","norming","","","","","","",""
"6026","","","post_mooney1_questions","survey-likert","512","2061788","0.0-6.0-2.72","3352626","co38239","norming","","","{""curiosity"":3,""confidence"":6}","[0,1]","../img/tt/140tt.jpg","",""
"3956.999999999767","","","recognition","survey-text","513","2065752","0.0-6.0-3.72","3352626","co38239","norming","","","{""guess"":""two forks""}","","../img/tt/140tt.jpg","",""
"null","../img/gs/140gs.jpg","null","reveal","image-keyboard-response","514","2067755","0.0-6.0-4.72","3352626","co38239","norming","","","","","","",""
"null","../img/tt/140tt.jpg","null","mooney2","image-keyboard-response","515","2069757","0.0-6.0-5.72","3352626","co38239","norming","","","","","","",""
"2559.999999999767","","","post_reveal_questions","survey-likert","516","2072318","0.0-6.0-6.72","3352626","co38239","norming","","","{""aha"":0}","[0]","../img/tt/140tt.jpg","",""
"null","<div style=""font-size:60px;""> </div>","null","fixation","html-keyboard-response","517","2072522","0.0-6.0-0.73","3352626","co38239","norming","","","","","","",""
"null","../img/tt/1107tt.jpg","null","mooney1","image-keyboard-response","518","2075524","0.0-6.0-1.73","3352626","co38239","norming","","","","","","",""
"4000","","","post_mooney1_questions","survey-likert","519","2079526","0.0-6.0-2.73","3352626","co38239","norming","","","{""curiosity"":6,""confidence"":0}","[0,1]","../img/tt/1107tt.jpg","",""
"980","","","recognition","survey-text","520","2080514","0.0-6.0-3.73","3352626","co38239","norming","","","{""guess"":""""}","","../img/tt/1107tt.jpg","",""
"null","../img/gs/1107gs.jpg","null","reveal","image-keyboard-response","521","2082516","0.0-6.0-4.73","3352626","co38239","norming","","","","","","",""
"null","../img/tt/1107tt.jpg","null","mooney2","image-keyboard-response","522","2084518","0.0-6.0-5.73","3352626","co38239","norming","","","","","","",""
"2788.999999999767","","","post_reveal_questions","survey-likert","523","2087309","0.0-6.0-6.73","3352626","co38239","norming","","","{""aha"":5}","[0]","../img/tt/1107tt.jpg","",""
"null","<div style=""font-size:60px;""> </div>","null","fixation","html-keyboard-response","524","2087512","0.0-6.0-0.74","3352626","co38239","norming","","","","","","",""
"null","../img/tt/1097tt.jpg","null","mooney1","image-keyboard-response","525","2090515","0.0-6.0-1.74","3352626","co38239","norming","","","","","","",""
"5410","","","post_mooney1_questions","survey-likert","526","2095926","0.0-6.0-2.74","3352626","co38239","norming","","","{""curiosity"":4,""confidence"":4}","[0,1]","../img/tt/1097tt.jpg","",""
"2269","","","recognition","survey-text","527","2098203","0.0-6.0-3.74","3352626","co38239","norming","","","{""guess"":""sup""}","","../img/tt/1097tt.jpg","",""
"null","../img/gs/1097gs.jpg","null","reveal","image-keyboard-response","528","2100206","0.0-6.0-4.74","3352626","co38239","norming","","","","","","",""
"null","../img/tt/1097tt.jpg","null","mooney2","image-keyboard-response","529","2102208","0.0-6.0-5.74","3352626","co38239","norming","","","","","","",""
"2160","","","post_reveal_questions","survey-likert","530","2104370","0.0-6.0-6.74","3352626","co38239","norming","","","{""aha"":1}","[0]","../img/tt/1097tt.jpg","",""
"null","<div style=""font-size:60px;""> </div>","null","fixation","html-keyboard-response","531","2104573","0.0-6.0-0.75","3352626","co38239","norming","","","","","","",""
"null","../img/tt/096tt.jpg","null","mooney1","image-keyboard-response","532","2107575","0.0-6.0-1.75","3352626","co38239","norming","","","","","","",""
"23824","","","post_mooney1_questions","survey-likert","533","2131402","0.0-6.0-2.75","3352626","co38239","norming","","","{""curiosity"":5,""confidence"":4}","[0,1]","../img/tt/096tt.jpg","",""
"1651","","","recognition","survey-text","534","2133060","0.0-6.0-3.75","3352626","co38239","norming","","","{""guess"":""stapler""}","","../img/tt/096tt.jpg","",""
"null","../img/gs/096gs.jpg","null","reveal","image-keyboard-response","535","2135063","0.0-6.0-4.75","3352626","co38239","norming","","","","","","",""
"null","../img/tt/096tt.jpg","null","mooney2","image-keyboard-response","536","2137065","0.0-6.0-5.75","3352626","co38239","norming","","","","","","",""
"5851","","","post_reveal_questions","survey-likert","537","2142917","0.0-6.0-6.75","3352626","co38239","norming","","","{""aha"":5}","[0]","../img/tt/096tt.jpg","",""
"null","<div style=""font-size:60px;""> </div>","null","fixation","html-keyboard-response","538","2143120","0.0-6.0-0.76","3352626","co38239","norming","","","","","","",""
"null","../img/tt/1272tt.jpg","null","mooney1","image-keyboard-response","539","2146123","0.0-6.0-1.76","3352626","co38239","norming","","","","","","",""
"3104","","","post_mooney1_questions","survey-likert","540","2149229","0.0-6.0-2.76","3352626","co38239","norming","","","{""curiosity"":5,""confidence"":0}","[0,1]","../img/tt/1272tt.jpg","",""
"918.9999999995343","","","recognition","survey-text","541","2150156","0.0-6.0-3.76","3352626","co38239","norming","","","{""guess"":""""}","","../img/tt/1272tt.jpg","",""
"null","../img/gs/1272gs.jpg","null","reveal","image-keyboard-response","542","2152159","0.0-6.0-4.76","3352626","co38239","norming","","","","","","",""
"null","../img/tt/1272tt.jpg","null","mooney2","image-keyboard-response","543","2154161","0.0-6.0-5.76","3352626","co38239","norming","","","","","","",""
"7220.000000000466","","","post_reveal_questions","survey-likert","544","2161382","0.0-6.0-6.76","3352626","co38239","norming","","","{""aha"":5}","[0]","../img/tt/1272tt.jpg","",""
"null","<div style=""font-size:60px;""> </div>","null","fixation","html-keyboard-response","545","2161586","0.0-6.0-0.77","3352626","co38239","norming","","","","","","",""
"null","../img/tt/076tt.jpg","null","mooney1","image-keyboard-response","546","2164588","0.0-6.0-1.77","3352626","co38239","norming","","","","","","",""
"3464","","","post_mooney1_questions","survey-likert","547","2168053","0.0-6.0-2.77","3352626","co38239","norming","","","{""curiosity"":5,""confidence"":4}","[0,1]","../img/tt/076tt.jpg","",""
"2842","","","recognition","survey-text","548","2170902","0.0-6.0-3.77","3352626","co38239","norming","","","{""guess"":""skeeler""}","","../img/tt/076tt.jpg","",""
"null","../img/gs/076gs.jpg","null","reveal","image-keyboard-response","549","2172905","0.0-6.0-4.77","3352626","co38239","norming","","","","","","",""
"null","../img/tt/076tt.jpg","null","mooney2","image-keyboard-response","550","2174907","0.0-6.0-5.77","3352626","co38239","norming","","","","","","",""
"2061","","","post_reveal_questions","survey-likert","551","2176970","0.0-6.0-6.77","3352626","co38239","norming","","","{""aha"":1}","[0]","../img/tt/076tt.jpg","",""
"null","<div style=""font-size:60px;""> </div>","null","fixation","html-keyboard-response","552","2177173","0.0-6.0-0.78","3352626","co38239","norming","","","","","","",""
"null","../img/tt/1217tt.jpg","null","mooney1","image-keyboard-response","553","2180175","0.0-6.0-1.78","3352626","co38239","norming","","","","","","",""
"6886","","","post_mooney1_questions","survey-likert","554","2187063","0.0-6.0-2.78","3352626","co38239","norming","","","{""curiosity"":4,""confidence"":6}","[0,1]","../img/tt/1217tt.jpg","",""
"2796","","","recognition","survey-text","555","2189867","0.0-6.0-3.78","3352626","co38239","norming","","","{""guess"":""ice hockey""}","","../img/tt/1217tt.jpg","",""
"null","../img/gs/1217gs.jpg","null","reveal","image-keyboard-response","556","2191869","0.0-6.0-4.78","3352626","co38239","norming","","","","","","",""
"null","../img/tt/1217tt.jpg","null","mooney2","image-keyboard-response","557","2193872","0.0-6.0-5.78","3352626","co38239","norming","","","","","","",""
"3439","","","post_reveal_questions","survey-likert","558","2197313","0.0-6.0-6.78","3352626","co38239","norming","","","{""aha"":4}","[0]","../img/tt/1217tt.jpg","",""
"null","<div style=""font-size:60px;""> </div>","null","fixation","html-keyboard-response","559","2197517","0.0-6.0-0.79","3352626","co38239","norming","","","","","","",""
"null","../img/tt/1061tt.jpg","null","mooney1","image-keyboard-response","560","2200520","0.0-6.0-1.79","3352626","co38239","norming","","","","","","",""
"8401","","","post_mooney1_questions","survey-likert","561","2208922","0.0-6.0-2.79","3352626","co38239","norming","","","{""curiosity"":5,""confidence"":4}","[0,1]","../img/tt/1061tt.jpg","",""
"3885.9999999995343","","","recognition","survey-text","562","2212817","0.0-6.0-3.79","3352626","co38239","norming","","","{""guess"":""football players""}","","../img/tt/1061tt.jpg","",""
"null","../img/gs/1061gs.jpg","null","reveal","image-keyboard-response","563","2214819","0.0-6.0-4.79","3352626","co38239","norming","","","","","","",""
"null","../img/tt/1061tt.jpg","null","mooney2","image-keyboard-response","564","2216821","0.0-6.0-5.79","3352626","co38239","norming","","","","","","",""
