"rt","stimulus","key_press","test_part","trial_type","trial_index","time_elapsed","internal_node_id","totalTime","subject","experiment_name","button_pressed","success","responses","question_order","currentStim","old","correct"
"6085.3","Welcome to the experiment. This is an online experiment so please don't close the tab/window until we say goodbye.  Press any key to begin.","32","instructions","html-keyboard-response","0","6096","0.0-0.0","2934996","co38965","norming","","","","","","",""
"18475.1","<div style='word-wrap: break-word; width: 900px'><h3>Please consider this information carefully before deciding whether to participate in this research</h3><ul style='text-align: left; font-size: .8em;'><li><b>Purpose of the research</b>: To examine how people process images.</li><li><b>What you will do in this research</b>:  Stimuli (images) will be presented on the computer and you will be asked different questions about them.</li><li><b>Time required</b>: Participation will take between 45 and 60 minutes to complete.</li><li><b>Risks</b>:  There are no anticipated risks associated with participating in this study. The effects of participating should be comparable to those you would experience from viewing a computer monitor for 30 minutes and using a mouse or keyboard.</li><li><b>Benefits</b>:  This study provides no benefits to you individually except for the credit. The study provides important information about the nature of perception and learning.</li><li><b>Confidentiality</b>:  Your participation in this study will remain confidential. No personally identifiable information will be associated with your data. Your de-identified data may be shared with other researchers and used in future projects.</li><li><b>Participation and withdrawal</b>:  Your participation in this study is completely voluntary and you may refuse to participate or you may choose to withdraw at any time without penalty.</li><li><b>How to contact the researchers</b>: If you have questions or concerns about your participation or payment, or want to request a summary of research findings, please contact Sander Van de Cruys (KU Leuven), at sander.vandecruys@kuleuven.be.</li></ul><p>The nature and purpose of this research have been sufficiently explained and I agree to participate in this study.  I understand that I am free to withdraw at any time without incurring any penalty.</p><p>Please consent by clicking the button below to continue. Otherwise, please exit the study at this time.</p></div>","","instructions","html-button-response","1","24574","0.0-1.0","2934996","co38965","norming","0","","","","","",""
"","","","instructions","fullscreen","2","28589","0.0-2.0","2934996","co38965","norming","","true","","","","",""
"61698.600000000006","","","sona","survey-html-form","3","90292","0.0-3.0","2934996","co38965","norming","","","[{""name"":""sonaid"",""value"":""38965""},{""name"":""debrief"",""value"":""no""},{""name"":""datajoin"",""value"":""yes""}]","","","",""
"64099.70000000001","<div style='word-wrap: break-word; width: 900px'><h3>Instructions</h3><p>This experiment will have 3 parts. In the first part you will see a series of distorted images like the one below on the left. As you can see in the righthand image, the distorted images are derived from actual photographs. In what follows, you will <strong>briefly</strong> be presented with <strong>only</strong> the distorted image.</p> <div style='float: left; margin-right: 20px;'><img src='../img/018tt.jpg' height='250' width='250'></img></div><div style='float: right; margin-left: 20px;'><img src='../img/018gs.jpg' height='250' width='250'></img></div><p>Subsequently you will be asked a few questions about the image: One question on how <strong>curious</strong> you are about the solution and one on how <strong>confident</strong> you are that you know the solution.</p>Next, we ask you to make a guess on what is in the image. Note that it is OK to name just the <strong>basic level category</strong>. For example when you see a parrot in the image, 'parrot' will obviously be a correct answer but also correct is 'bird'. However, 'animal' will <strong>not</strong> be counted as a correct response. For the example above, 'rose' would be correct or 'flower', but not 'plant'. When soccer players are depicted, 'soccer', 'football', 'soccer players' will be correct, but not 'humans', 'outdoors', or 'sports'. You do not need to describe the image in full, just name the main object in it <strong>in one or two words</strong>. All images depict objects from one of the following broad level categories: animals, inanimate objects, plants, sports, vehicles, and food. Recognizing means knowing <strong>more</strong> than these broad labels for a given image. But we always encourage you to <strong>make a guess</strong> if you can. Note that you are allowed to use <strong>Dutch and English</strong> in your answers, whatever comes easiest for you.</p><p>Press any key to continue.</p></div>","32","instructions","html-keyboard-response","4","154397","0.0-4.0","2934996","co38965","norming","","","","","","",""
"16045.700000000012","<div style='word-wrap: break-word; width: 900px'><h3>Instructions</h3> <p>Next, the solution image will be revealed to you and you'll be asked to indicate how strong your <strong>aha-experience</strong> was after seeing the solution. This describes the positive feeling of the 'click' you sometimes experience, when the pieces of the 'puzzle' fall together and you suddenly have 'insight' in the image.</p><img src='aha.jpg' height='188' width='250'></img><p>Note that there are no right or wrong answers. We are interested in what <strong>you</strong> see in the image and how <strong>you</strong> feel about it.</p><p>Press any key to start the experiment.</p></div>","32","instructions","html-keyboard-response","5","170444","0.0-5.0","2934996","co38965","norming","","","","","","",""
"null","<div style=""font-size:60px;""> </div>","null","fixation","html-keyboard-response","6","170647","0.0-6.0-0.0","2934996","co38965","norming","","","","","","",""
"null","../img/tt/1142tt.jpg","null","mooney1","image-keyboard-response","7","173650","0.0-6.0-1.0","2934996","co38965","norming","","","","","","",""
"8045.899999999994","","","post_mooney1_questions","survey-likert","8","181699","0.0-6.0-2.0","2934996","co38965","norming","","","{""curiosity"":4,""confidence"":1}","[0,1]","../img/tt/1142tt.jpg","",""
"5671.200000000012","","","recognition","survey-text","9","187382","0.0-6.0-3.0","2934996","co38965","norming","","","{""guess"":""baseball""}","","../img/tt/1142tt.jpg","",""
"null","../img/gs/1142gs.jpg","null","reveal","image-keyboard-response","10","189384","0.0-6.0-4.0","2934996","co38965","norming","","","","","","",""
"null","../img/tt/1142tt.jpg","null","mooney2","image-keyboard-response","11","191386","0.0-6.0-5.0","2934996","co38965","norming","","","","","","",""
"3312.100000000006","","","post_reveal_questions","survey-likert","12","194700","0.0-6.0-6.0","2934996","co38965","norming","","","{""aha"":1}","[0]","../img/tt/1142tt.jpg","",""
"null","<div style=""font-size:60px;""> </div>","null","fixation","html-keyboard-response","13","194905","0.0-6.0-0.1","2934996","co38965","norming","","","","","","",""
"null","../img/tt/1188tt.jpg","null","mooney1","image-keyboard-response","14","197906","0.0-6.0-1.1","2934996","co38965","norming","","","","","","",""
"4529.900000000023","","","post_mooney1_questions","survey-likert","15","202438","0.0-6.0-2.1","2934996","co38965","norming","","","{""curiosity"":4,""confidence"":2}","[0,1]","../img/tt/1188tt.jpg","",""
"5638.100000000006","","","recognition","survey-text","16","208086","0.0-6.0-3.1","2934996","co38965","norming","","","{""guess"":""jazz player""}","","../img/tt/1188tt.jpg","",""
"null","../img/gs/1188gs.jpg","null","reveal","image-keyboard-response","17","210088","0.0-6.0-4.1","2934996","co38965","norming","","","","","","",""
"null","../img/tt/1188tt.jpg","null","mooney2","image-keyboard-response","18","212090","0.0-6.0-5.1","2934996","co38965","norming","","","","","","",""
"4059.5999999999767","","","post_reveal_questions","survey-likert","19","216152","0.0-6.0-6.1","2934996","co38965","norming","","","{""aha"":1}","[0]","../img/tt/1188tt.jpg","",""
"null","<div style=""font-size:60px;""> </div>","null","fixation","html-keyboard-response","20","216355","0.0-6.0-0.2","2934996","co38965","norming","","","","","","",""
"null","../img/tt/301tt.jpg","null","mooney1","image-keyboard-response","21","219358","0.0-6.0-1.2","2934996","co38965","norming","","","","","","",""
"5141.5","","","post_mooney1_questions","survey-likert","22","224501","0.0-6.0-2.2","2934996","co38965","norming","","","{""curiosity"":5,""confidence"":1}","[0,1]","../img/tt/301tt.jpg","",""
"6934.799999999988","","","recognition","survey-text","23","231449","0.0-6.0-3.2","2934996","co38965","norming","","","{""guess"":""grandma""}","","../img/tt/301tt.jpg","",""
"null","../img/gs/301gs.jpg","null","reveal","image-keyboard-response","24","233451","0.0-6.0-4.2","2934996","co38965","norming","","","","","","",""
"null","../img/tt/301tt.jpg","null","mooney2","image-keyboard-response","25","235453","0.0-6.0-5.2","2934996","co38965","norming","","","","","","",""
"4376.8000000000175","","","post_reveal_questions","survey-likert","26","239831","0.0-6.0-6.2","2934996","co38965","norming","","","{""aha"":4}","[0]","../img/tt/301tt.jpg","",""
"null","<div style=""font-size:60px;""> </div>","null","fixation","html-keyboard-response","27","240034","0.0-6.0-0.3","2934996","co38965","norming","","","","","","",""
"null","../img/tt/1024tt.jpg","null","mooney1","image-keyboard-response","28","243036","0.0-6.0-1.3","2934996","co38965","norming","","","","","","",""
"6915.100000000006","","","post_mooney1_questions","survey-likert","29","249953","0.0-6.0-2.3","2934996","co38965","norming","","","{""curiosity"":4,""confidence"":1}","[0,1]","../img/tt/1024tt.jpg","",""
"7616.70000000007","","","recognition","survey-text","30","257579","0.0-6.0-3.3","2934996","co38965","norming","","","{""guess"":""redder""}","","../img/tt/1024tt.jpg","",""
"null","../img/gs/1024gs.jpg","null","reveal","image-keyboard-response","31","259582","0.0-6.0-4.3","2934996","co38965","norming","","","","","","",""
"null","../img/tt/1024tt.jpg","null","mooney2","image-keyboard-response","32","261584","0.0-6.0-5.3","2934996","co38965","norming","","","","","","",""
"3764.2999999999884","","","post_reveal_questions","survey-likert","33","265350","0.0-6.0-6.3","2934996","co38965","norming","","","{""aha"":3}","[0]","../img/tt/1024tt.jpg","",""
"null","<div style=""font-size:60px;""> </div>","null","fixation","html-keyboard-response","34","265553","0.0-6.0-0.4","2934996","co38965","norming","","","","","","",""
"null","../img/tt/1122tt.jpg","null","mooney1","image-keyboard-response","35","268556","0.0-6.0-1.4","2934996","co38965","norming","","","","","","",""
"4171.399999999965","","","post_mooney1_questions","survey-likert","36","272729","0.0-6.0-2.4","2934996","co38965","norming","","","{""curiosity"":4,""confidence"":4}","[0,1]","../img/tt/1122tt.jpg","",""
"2978.600000000035","","","recognition","survey-text","37","275717","0.0-6.0-3.4","2934996","co38965","norming","","","{""guess"":""cars""}","","../img/tt/1122tt.jpg","",""
"null","../img/gs/1122gs.jpg","null","reveal","image-keyboard-response","38","277719","0.0-6.0-4.4","2934996","co38965","norming","","","","","","",""
"null","../img/tt/1122tt.jpg","null","mooney2","image-keyboard-response","39","279722","0.0-6.0-5.4","2934996","co38965","norming","","","","","","",""
"2478.4000000000233","","","post_reveal_questions","survey-likert","40","282202","0.0-6.0-6.4","2934996","co38965","norming","","","{""aha"":2}","[0]","../img/tt/1122tt.jpg","",""
"null","<div style=""font-size:60px;""> </div>","null","fixation","html-keyboard-response","41","282405","0.0-6.0-0.5","2934996","co38965","norming","","","","","","",""
"null","../img/tt/1096tt.jpg","null","mooney1","image-keyboard-response","42","285407","0.0-6.0-1.5","2934996","co38965","norming","","","","","","",""
"4749.699999999953","","","post_mooney1_questions","survey-likert","43","290159","0.0-6.0-2.5","2934996","co38965","norming","","","{""curiosity"":4,""confidence"":2}","[0,1]","../img/tt/1096tt.jpg","",""
"3700.500000000058","","","recognition","survey-text","44","293868","0.0-6.0-3.5","2934996","co38965","norming","","","{""guess"":""staircase""}","","../img/tt/1096tt.jpg","",""
"null","../img/gs/1096gs.jpg","null","reveal","image-keyboard-response","45","295870","0.0-6.0-4.5","2934996","co38965","norming","","","","","","",""
"null","../img/tt/1096tt.jpg","null","mooney2","image-keyboard-response","46","297872","0.0-6.0-5.5","2934996","co38965","norming","","","","","","",""
"3374.2000000000116","","","post_reveal_questions","survey-likert","47","301249","0.0-6.0-6.5","2934996","co38965","norming","","","{""aha"":4}","[0]","../img/tt/1096tt.jpg","",""
"null","<div style=""font-size:60px;""> </div>","null","fixation","html-keyboard-response","48","301452","0.0-6.0-0.6","2934996","co38965","norming","","","","","","",""
"null","../img/tt/1275tt.jpg","null","mooney1","image-keyboard-response","49","304454","0.0-6.0-1.6","2934996","co38965","norming","","","","","","",""
"3918.499999999942","","","post_mooney1_questions","survey-likert","50","308375","0.0-6.0-2.6","2934996","co38965","norming","","","{""curiosity"":5,""confidence"":2}","[0,1]","../img/tt/1275tt.jpg","",""
"2640.5999999999767","","","recognition","survey-text","51","311030","0.0-6.0-3.6","2934996","co38965","norming","","","{""guess"":""a fox""}","","../img/tt/1275tt.jpg","",""
"null","../img/gs/1275gs.jpg","null","reveal","image-keyboard-response","52","313034","0.0-6.0-4.6","2934996","co38965","norming","","","","","","",""
"null","../img/tt/1275tt.jpg","null","mooney2","image-keyboard-response","53","315036","0.0-6.0-5.6","2934996","co38965","norming","","","","","","",""
"4737.299999999988","","","post_reveal_questions","survey-likert","54","319775","0.0-6.0-6.6","2934996","co38965","norming","","","{""aha"":2}","[0]","../img/tt/1275tt.jpg","",""
"null","<div style=""font-size:60px;""> </div>","null","fixation","html-keyboard-response","55","319978","0.0-6.0-0.7","2934996","co38965","norming","","","","","","",""
"null","../img/tt/008tt.jpg","null","mooney1","image-keyboard-response","56","322981","0.0-6.0-1.7","2934996","co38965","norming","","","","","","",""
"4104.599999999977","","","post_mooney1_questions","survey-likert","57","327088","0.0-6.0-2.7","2934996","co38965","norming","","","{""curiosity"":3,""confidence"":0}","[0,1]","../img/tt/008tt.jpg","",""
"5030.899999999965","","","recognition","survey-text","58","332129","0.0-6.0-3.7","2934996","co38965","norming","","","{""guess"":""muzikant""}","","../img/tt/008tt.jpg","",""
"null","../img/gs/008gs.jpg","null","reveal","image-keyboard-response","59","334132","0.0-6.0-4.7","2934996","co38965","norming","","","","","","",""
"null","../img/tt/008tt.jpg","null","mooney2","image-keyboard-response","60","336134","0.0-6.0-5.7","2934996","co38965","norming","","","","","","",""
"3039.999999999942","","","post_reveal_questions","survey-likert","61","339175","0.0-6.0-6.7","2934996","co38965","norming","","","{""aha"":0}","[0]","../img/tt/008tt.jpg","",""
"null","<div style=""font-size:60px;""> </div>","null","fixation","html-keyboard-response","62","339379","0.0-6.0-0.8","2934996","co38965","norming","","","","","","",""
"null","../img/tt/1235tt.jpg","null","mooney1","image-keyboard-response","63","342381","0.0-6.0-1.8","2934996","co38965","norming","","","","","","",""
"4103.999999999942","","","post_mooney1_questions","survey-likert","64","346488","0.0-6.0-2.8","2934996","co38965","norming","","","{""curiosity"":4,""confidence"":0}","[0,1]","../img/tt/1235tt.jpg","",""
"2815.2000000000116","","","recognition","survey-text","65","349313","0.0-6.0-3.8","2934996","co38965","norming","","","{""guess"":""haan""}","","../img/tt/1235tt.jpg","",""
"null","../img/gs/1235gs.jpg","null","reveal","image-keyboard-response","66","351315","0.0-6.0-4.8","2934996","co38965","norming","","","","","","",""
"null","../img/tt/1235tt.jpg","null","mooney2","image-keyboard-response","67","353317","0.0-6.0-5.8","2934996","co38965","norming","","","","","","",""
"2424.5","","","post_reveal_questions","survey-likert","68","355743","0.0-6.0-6.8","2934996","co38965","norming","","","{""aha"":1}","[0]","../img/tt/1235tt.jpg","",""
"null","<div style=""font-size:60px;""> </div>","null","fixation","html-keyboard-response","69","355946","0.0-6.0-0.9","2934996","co38965","norming","","","","","","",""
"null","../img/tt/1123tt.jpg","null","mooney1","image-keyboard-response","70","358949","0.0-6.0-1.9","2934996","co38965","norming","","","","","","",""
"4177.5","","","post_mooney1_questions","survey-likert","71","363128","0.0-6.0-2.9","2934996","co38965","norming","","","{""curiosity"":4,""confidence"":2}","[0,1]","../img/tt/1123tt.jpg","",""
"1536.7000000000116","","","recognition","survey-text","72","364677","0.0-6.0-3.9","2934996","co38965","norming","","","{""guess"":""dog""}","","../img/tt/1123tt.jpg","",""
"null","../img/gs/1123gs.jpg","null","reveal","image-keyboard-response","73","366679","0.0-6.0-4.9","2934996","co38965","norming","","","","","","",""
"null","../img/tt/1123tt.jpg","null","mooney2","image-keyboard-response","74","368681","0.0-6.0-5.9","2934996","co38965","norming","","","","","","",""
"3833.2999999999884","","","post_reveal_questions","survey-likert","75","372515","0.0-6.0-6.9","2934996","co38965","norming","","","{""aha"":0}","[0]","../img/tt/1123tt.jpg","",""
"null","<div style=""font-size:60px;""> </div>","null","fixation","html-keyboard-response","76","372719","0.0-6.0-0.10","2934996","co38965","norming","","","","","","",""
"null","../img/tt/1255tt.jpg","null","mooney1","image-keyboard-response","77","375721","0.0-6.0-1.10","2934996","co38965","norming","","","","","","",""
"4253.000000000058","","","post_mooney1_questions","survey-likert","78","379976","0.0-6.0-2.10","2934996","co38965","norming","","","{""curiosity"":3,""confidence"":0}","[0,1]","../img/tt/1255tt.jpg","",""
"6959.300000000047","","","recognition","survey-text","79","386947","0.0-6.0-3.10","2934996","co38965","norming","","","{""guess"":""bird""}","","../img/tt/1255tt.jpg","",""
"null","../img/gs/1255gs.jpg","null","reveal","image-keyboard-response","80","388950","0.0-6.0-4.10","2934996","co38965","norming","","","","","","",""
"null","../img/tt/1255tt.jpg","null","mooney2","image-keyboard-response","81","390952","0.0-6.0-5.10","2934996","co38965","norming","","","","","","",""
"2313.100000000035","","","post_reveal_questions","survey-likert","82","393267","0.0-6.0-6.10","2934996","co38965","norming","","","{""aha"":1}","[0]","../img/tt/1255tt.jpg","",""
"null","<div style=""font-size:60px;""> </div>","null","fixation","html-keyboard-response","83","393471","0.0-6.0-0.11","2934996","co38965","norming","","","","","","",""
"null","../img/tt/019tt.jpg","null","mooney1","image-keyboard-response","84","396474","0.0-6.0-1.11","2934996","co38965","norming","","","","","","",""
"7398.799999999988","","","post_mooney1_questions","survey-likert","85","403875","0.0-6.0-2.11","2934996","co38965","norming","","","{""curiosity"":5,""confidence"":4}","[0,1]","../img/tt/019tt.jpg","",""
"5408.399999999965","","","recognition","survey-text","86","409295","0.0-6.0-3.11","2934996","co38965","norming","","","{""guess"":""een pen""}","","../img/tt/019tt.jpg","",""
"null","../img/gs/019gs.jpg","null","reveal","image-keyboard-response","87","411298","0.0-6.0-4.11","2934996","co38965","norming","","","","","","",""
"null","../img/tt/019tt.jpg","null","mooney2","image-keyboard-response","88","413301","0.0-6.0-5.11","2934996","co38965","norming","","","","","","",""
"2698.7999999999884","","","post_reveal_questions","survey-likert","89","416001","0.0-6.0-6.11","2934996","co38965","norming","","","{""aha"":1}","[0]","../img/tt/019tt.jpg","",""
"null","<div style=""font-size:60px;""> </div>","null","fixation","html-keyboard-response","90","416204","0.0-6.0-0.12","2934996","co38965","norming","","","","","","",""
"null","../img/tt/1063tt.jpg","null","mooney1","image-keyboard-response","91","419207","0.0-6.0-1.12","2934996","co38965","norming","","","","","","",""
"5124.700000000012","","","post_mooney1_questions","survey-likert","92","424333","0.0-6.0-2.12","2934996","co38965","norming","","","{""curiosity"":4,""confidence"":3}","[0,1]","../img/tt/1063tt.jpg","",""
"2921.0999999999767","","","recognition","survey-text","93","427265","0.0-6.0-3.12","2934996","co38965","norming","","","{""guess"":""a horse""}","","../img/tt/1063tt.jpg","",""
"null","../img/gs/1063gs.jpg","null","reveal","image-keyboard-response","94","429267","0.0-6.0-4.12","2934996","co38965","norming","","","","","","",""
"null","../img/tt/1063tt.jpg","null","mooney2","image-keyboard-response","95","431269","0.0-6.0-5.12","2934996","co38965","norming","","","","","","",""
"2476.8000000000466","","","post_reveal_questions","survey-likert","96","433748","0.0-6.0-6.12","2934996","co38965","norming","","","{""aha"":4}","[0]","../img/tt/1063tt.jpg","",""
"null","<div style=""font-size:60px;""> </div>","null","fixation","html-keyboard-response","97","433951","0.0-6.0-0.13","2934996","co38965","norming","","","","","","",""
"null","../img/tt/126tt.jpg","null","mooney1","image-keyboard-response","98","436954","0.0-6.0-1.13","2934996","co38965","norming","","","","","","",""
"4851.799999999988","","","post_mooney1_questions","survey-likert","99","441807","0.0-6.0-2.13","2934996","co38965","norming","","","{""curiosity"":4,""confidence"":4}","[0,1]","../img/tt/126tt.jpg","",""
"2584.100000000035","","","recognition","survey-text","100","444402","0.0-6.0-3.13","2934996","co38965","norming","","","{""guess"":""koe""}","","../img/tt/126tt.jpg","",""
"null","../img/gs/126gs.jpg","null","reveal","image-keyboard-response","101","446405","0.0-6.0-4.13","2934996","co38965","norming","","","","","","",""
"null","../img/tt/126tt.jpg","null","mooney2","image-keyboard-response","102","448407","0.0-6.0-5.13","2934996","co38965","norming","","","","","","",""
"4568.599999999977","","","post_reveal_questions","survey-likert","103","452977","0.0-6.0-6.13","2934996","co38965","norming","","","{""aha"":3}","[0]","../img/tt/126tt.jpg","",""
"null","<div style=""font-size:60px;""> </div>","null","fixation","html-keyboard-response","104","453181","0.0-6.0-0.14","2934996","co38965","norming","","","","","","",""
"null","../img/tt/049tt.jpg","null","mooney1","image-keyboard-response","105","456183","0.0-6.0-1.14","2934996","co38965","norming","","","","","","",""
"3955.8000000000466","","","post_mooney1_questions","survey-likert","106","460141","0.0-6.0-2.14","2934996","co38965","norming","","","{""curiosity"":4,""confidence"":1}","[0,1]","../img/tt/049tt.jpg","",""
"5179.700000000012","","","recognition","survey-text","107","465332","0.0-6.0-3.14","2934996","co38965","norming","","","{""guess"":""een varken""}","","../img/tt/049tt.jpg","",""
"null","../img/gs/049gs.jpg","null","reveal","image-keyboard-response","108","467335","0.0-6.0-4.14","2934996","co38965","norming","","","","","","",""
"null","../img/tt/049tt.jpg","null","mooney2","image-keyboard-response","109","469337","0.0-6.0-5.14","2934996","co38965","norming","","","","","","",""
"4192.899999999965","","","post_reveal_questions","survey-likert","110","473532","0.0-6.0-6.14","2934996","co38965","norming","","","{""aha"":3}","[0]","../img/tt/049tt.jpg","",""
"null","<div style=""font-size:60px;""> </div>","null","fixation","html-keyboard-response","111","473735","0.0-6.0-0.15","2934996","co38965","norming","","","","","","",""
"null","../img/tt/549tt.jpg","null","mooney1","image-keyboard-response","112","476737","0.0-6.0-1.15","2934996","co38965","norming","","","","","","",""
"4934.599999999977","","","post_mooney1_questions","survey-likert","113","481674","0.0-6.0-2.15","2934996","co38965","norming","","","{""curiosity"":4,""confidence"":0}","[0,1]","../img/tt/549tt.jpg","",""
"3100.9000000000233","","","recognition","survey-text","114","484786","0.0-6.0-3.15","2934996","co38965","norming","","","{""guess"":""truck""}","","../img/tt/549tt.jpg","",""
"null","../img/gs/549gs.jpg","null","reveal","image-keyboard-response","115","486789","0.0-6.0-4.15","2934996","co38965","norming","","","","","","",""
"null","../img/tt/549tt.jpg","null","mooney2","image-keyboard-response","116","488791","0.0-6.0-5.15","2934996","co38965","norming","","","","","","",""
"5516.799999999988","","","post_reveal_questions","survey-likert","117","494310","0.0-6.0-6.15","2934996","co38965","norming","","","{""aha"":1}","[0]","../img/tt/549tt.jpg","",""
"null","<div style=""font-size:60px;""> </div>","null","fixation","html-keyboard-response","118","494514","0.0-6.0-0.16","2934996","co38965","norming","","","","","","",""
"null","../img/tt/1066tt.jpg","null","mooney1","image-keyboard-response","119","497516","0.0-6.0-1.16","2934996","co38965","norming","","","","","","",""
"7039.200000000012","","","post_mooney1_questions","survey-likert","120","504558","0.0-6.0-2.16","2934996","co38965","norming","","","{""curiosity"":4,""confidence"":2}","[0,1]","../img/tt/1066tt.jpg","",""
"2292.9000000000233","","","recognition","survey-text","121","506862","0.0-6.0-3.16","2934996","co38965","norming","","","{""guess"":""schoolbus""}","","../img/tt/1066tt.jpg","",""
"null","../img/gs/1066gs.jpg","null","reveal","image-keyboard-response","122","508864","0.0-6.0-4.16","2934996","co38965","norming","","","","","","",""
"null","../img/tt/1066tt.jpg","null","mooney2","image-keyboard-response","123","510867","0.0-6.0-5.16","2934996","co38965","norming","","","","","","",""
"3668.5","","","post_reveal_questions","survey-likert","124","514537","0.0-6.0-6.16","2934996","co38965","norming","","","{""aha"":3}","[0]","../img/tt/1066tt.jpg","",""
"null","<div style=""font-size:60px;""> </div>","null","fixation","html-keyboard-response","125","514740","0.0-6.0-0.17","2934996","co38965","norming","","","","","","",""
"null","../img/tt/1247tt.jpg","null","mooney1","image-keyboard-response","126","517742","0.0-6.0-1.17","2934996","co38965","norming","","","","","","",""
"7042.300000000047","","","post_mooney1_questions","survey-likert","127","524787","0.0-6.0-2.17","2934996","co38965","norming","","","{""curiosity"":4,""confidence"":1}","[0,1]","../img/tt/1247tt.jpg","",""
"4751.199999999953","","","recognition","survey-text","128","529550","0.0-6.0-3.17","2934996","co38965","norming","","","{""guess"":""tijger""}","","../img/tt/1247tt.jpg","",""
"null","../img/gs/1247gs.jpg","null","reveal","image-keyboard-response","129","531552","0.0-6.0-4.17","2934996","co38965","norming","","","","","","",""
"null","../img/tt/1247tt.jpg","null","mooney2","image-keyboard-response","130","533555","0.0-6.0-5.17","2934996","co38965","norming","","","","","","",""
"3795.9000000000233","","","post_reveal_questions","survey-likert","131","537352","0.0-6.0-6.17","2934996","co38965","norming","","","{""aha"":2}","[0]","../img/tt/1247tt.jpg","",""
"null","<div style=""font-size:60px;""> </div>","null","fixation","html-keyboard-response","132","537556","0.0-6.0-0.18","2934996","co38965","norming","","","","","","",""
"null","../img/tt/1046tt.jpg","null","mooney1","image-keyboard-response","133","540558","0.0-6.0-1.18","2934996","co38965","norming","","","","","","",""
"3739.20000000007","","","post_mooney1_questions","survey-likert","134","544299","0.0-6.0-2.18","2934996","co38965","norming","","","{""curiosity"":4,""confidence"":0}","[0,1]","../img/tt/1046tt.jpg","",""
"2048.899999999907","","","recognition","survey-text","135","546358","0.0-6.0-3.18","2934996","co38965","norming","","","{""guess"":""varken""}","","../img/tt/1046tt.jpg","",""
"null","../img/gs/1046gs.jpg","null","reveal","image-keyboard-response","136","548360","0.0-6.0-4.18","2934996","co38965","norming","","","","","","",""
"null","../img/tt/1046tt.jpg","null","mooney2","image-keyboard-response","137","550363","0.0-6.0-5.18","2934996","co38965","norming","","","","","","",""
"3493.5999999999767","","","post_reveal_questions","survey-likert","138","553858","0.0-6.0-6.18","2934996","co38965","norming","","","{""aha"":1}","[0]","../img/tt/1046tt.jpg","",""
"null","<div style=""font-size:60px;""> </div>","null","fixation","html-keyboard-response","139","554062","0.0-6.0-0.19","2934996","co38965","norming","","","","","","",""
"null","../img/tt/079tt.jpg","null","mooney1","image-keyboard-response","140","557064","0.0-6.0-1.19","2934996","co38965","norming","","","","","","",""
"8056.000000000116","","","post_mooney1_questions","survey-likert","141","565122","0.0-6.0-2.19","2934996","co38965","norming","","","{""curiosity"":1,""confidence"":4}","[0,1]","../img/tt/079tt.jpg","",""
"2252.20000000007","","","recognition","survey-text","142","567386","0.0-6.0-3.19","2934996","co38965","norming","","","{""guess"":""beer""}","","../img/tt/079tt.jpg","",""
"null","../img/gs/079gs.jpg","null","reveal","image-keyboard-response","143","569388","0.0-6.0-4.19","2934996","co38965","norming","","","","","","",""
"null","../img/tt/079tt.jpg","null","mooney2","image-keyboard-response","144","571391","0.0-6.0-5.19","2934996","co38965","norming","","","","","","",""
"3282.70000000007","","","post_reveal_questions","survey-likert","145","574675","0.0-6.0-6.19","2934996","co38965","norming","","","{""aha"":1}","[0]","../img/tt/079tt.jpg","",""
"null","<div style=""font-size:60px;""> </div>","null","fixation","html-keyboard-response","146","574880","0.0-6.0-0.20","2934996","co38965","norming","","","","","","",""
"null","../img/tt/1181tt.jpg","null","mooney1","image-keyboard-response","147","577882","0.0-6.0-1.20","2934996","co38965","norming","","","","","","",""
"5265.70000000007","","","post_mooney1_questions","survey-likert","148","583150","0.0-6.0-2.20","2934996","co38965","norming","","","{""curiosity"":5,""confidence"":2}","[0,1]","../img/tt/1181tt.jpg","",""
"2480.1999999999534","","","recognition","survey-text","149","585641","0.0-6.0-3.20","2934996","co38965","norming","","","{""guess"":""bakker""}","","../img/tt/1181tt.jpg","",""
"null","../img/gs/1181gs.jpg","null","reveal","image-keyboard-response","150","587644","0.0-6.0-4.20","2934996","co38965","norming","","","","","","",""
"null","../img/tt/1181tt.jpg","null","mooney2","image-keyboard-response","151","589646","0.0-6.0-5.20","2934996","co38965","norming","","","","","","",""
"5924.400000000023","","","post_reveal_questions","survey-likert","152","595573","0.0-6.0-6.20","2934996","co38965","norming","","","{""aha"":3}","[0]","../img/tt/1181tt.jpg","",""
"null","<div style=""font-size:60px;""> </div>","null","fixation","html-keyboard-response","153","595776","0.0-6.0-0.21","2934996","co38965","norming","","","","","","",""
"null","../img/tt/1190tt.jpg","null","mooney1","image-keyboard-response","154","598778","0.0-6.0-1.21","2934996","co38965","norming","","","","","","",""
"4876.699999999953","","","post_mooney1_questions","survey-likert","155","603657","0.0-6.0-2.21","2934996","co38965","norming","","","{""curiosity"":4,""confidence"":2}","[0,1]","../img/tt/1190tt.jpg","",""
"3815.6999999999534","","","recognition","survey-text","156","607483","0.0-6.0-3.21","2934996","co38965","norming","","","{""guess"":""sprinkhaan""}","","../img/tt/1190tt.jpg","",""
"null","../img/gs/1190gs.jpg","null","reveal","image-keyboard-response","157","609486","0.0-6.0-4.21","2934996","co38965","norming","","","","","","",""
"null","../img/tt/1190tt.jpg","null","mooney2","image-keyboard-response","158","611488","0.0-6.0-5.21","2934996","co38965","norming","","","","","","",""
"3551.1999999999534","","","post_reveal_questions","survey-likert","159","615041","0.0-6.0-6.21","2934996","co38965","norming","","","{""aha"":0}","[0]","../img/tt/1190tt.jpg","",""
"null","<div style=""font-size:60px;""> </div>","null","fixation","html-keyboard-response","160","615245","0.0-6.0-0.22","2934996","co38965","norming","","","","","","",""
"null","../img/tt/055tt.jpg","null","mooney1","image-keyboard-response","161","618247","0.0-6.0-1.22","2934996","co38965","norming","","","","","","",""
"5371.899999999907","","","post_mooney1_questions","survey-likert","162","623621","0.0-6.0-2.22","2934996","co38965","norming","","","{""curiosity"":4,""confidence"":4}","[0,1]","../img/tt/055tt.jpg","",""
"1808.5","","","recognition","survey-text","163","625440","0.0-6.0-3.22","2934996","co38965","norming","","","{""guess"":""zadel""}","","../img/tt/055tt.jpg","",""
"null","../img/gs/055gs.jpg","null","reveal","image-keyboard-response","164","627443","0.0-6.0-4.22","2934996","co38965","norming","","","","","","",""
"null","../img/tt/055tt.jpg","null","mooney2","image-keyboard-response","165","629445","0.0-6.0-5.22","2934996","co38965","norming","","","","","","",""
"3453.4999999998836","","","post_reveal_questions","survey-likert","166","632900","0.0-6.0-6.22","2934996","co38965","norming","","","{""aha"":2}","[0]","../img/tt/055tt.jpg","",""
"null","<div style=""font-size:60px;""> </div>","null","fixation","html-keyboard-response","167","633105","0.0-6.0-0.23","2934996","co38965","norming","","","","","","",""
"null","../img/tt/1033tt.jpg","null","mooney1","image-keyboard-response","168","636108","0.0-6.0-1.23","2934996","co38965","norming","","","","","","",""
"7781.599999999977","","","post_mooney1_questions","survey-likert","169","643892","0.0-6.0-2.23","2934996","co38965","norming","","","{""curiosity"":2,""confidence"":1}","[0,1]","../img/tt/1033tt.jpg","",""
"3377.8000000000466","","","recognition","survey-text","170","647281","0.0-6.0-3.23","2934996","co38965","norming","","","{""guess"":""ridder""}","","../img/tt/1033tt.jpg","",""
"null","../img/gs/1033gs.jpg","null","reveal","image-keyboard-response","171","649283","0.0-6.0-4.23","2934996","co38965","norming","","","","","","",""
"null","../img/tt/1033tt.jpg","null","mooney2","image-keyboard-response","172","651286","0.0-6.0-5.23","2934996","co38965","norming","","","","","","",""
"3204.3000000000466","","","post_reveal_questions","survey-likert","173","654492","0.0-6.0-6.23","2934996","co38965","norming","","","{""aha"":1}","[0]","../img/tt/1033tt.jpg","",""
"null","<div style=""font-size:60px;""> </div>","null","fixation","html-keyboard-response","174","654695","0.0-6.0-0.24","2934996","co38965","norming","","","","","","",""
"null","../img/tt/189tt.jpg","null","mooney1","image-keyboard-response","175","657697","0.0-6.0-1.24","2934996","co38965","norming","","","","","","",""
"4850.100000000093","","","post_mooney1_questions","survey-likert","176","662549","0.0-6.0-2.24","2934996","co38965","norming","","","{""curiosity"":5,""confidence"":0}","[0,1]","../img/tt/189tt.jpg","",""
"3447","","","recognition","survey-text","177","666006","0.0-6.0-3.24","2934996","co38965","norming","","","{""guess"":""tractor""}","","../img/tt/189tt.jpg","",""
"null","../img/gs/189gs.jpg","null","reveal","image-keyboard-response","178","668009","0.0-6.0-4.24","2934996","co38965","norming","","","","","","",""
"null","../img/tt/189tt.jpg","null","mooney2","image-keyboard-response","179","670011","0.0-6.0-5.24","2934996","co38965","norming","","","","","","",""
"3569.20000000007","","","post_reveal_questions","survey-likert","180","673582","0.0-6.0-6.24","2934996","co38965","norming","","","{""aha"":2}","[0]","../img/tt/189tt.jpg","",""
"null","<div style=""font-size:60px;""> </div>","null","fixation","html-keyboard-response","181","673785","0.0-6.0-0.25","2934996","co38965","norming","","","","","","",""
"null","../img/tt/552tt.jpg","null","mooney1","image-keyboard-response","182","676788","0.0-6.0-1.25","2934996","co38965","norming","","","","","","",""
"5984.699999999953","","","post_mooney1_questions","survey-likert","183","682774","0.0-6.0-2.25","2934996","co38965","norming","","","{""curiosity"":4,""confidence"":2}","[0,1]","../img/tt/552tt.jpg","",""
"2459.79999999993","","","recognition","survey-text","184","685244","0.0-6.0-3.25","2934996","co38965","norming","","","{""guess"":""stinkdier""}","","../img/tt/552tt.jpg","",""
"null","../img/gs/552gs.jpg","null","reveal","image-keyboard-response","185","687247","0.0-6.0-4.25","2934996","co38965","norming","","","","","","",""
"null","../img/tt/552tt.jpg","null","mooney2","image-keyboard-response","186","689249","0.0-6.0-5.25","2934996","co38965","norming","","","","","","",""
"3860.8000000000466","","","post_reveal_questions","survey-likert","187","693111","0.0-6.0-6.25","2934996","co38965","norming","","","{""aha"":4}","[0]","../img/tt/552tt.jpg","",""
"null","<div style=""font-size:60px;""> </div>","null","fixation","html-keyboard-response","188","693315","0.0-6.0-0.26","2934996","co38965","norming","","","","","","",""
"null","../img/tt/456tt.jpg","null","mooney1","image-keyboard-response","189","696317","0.0-6.0-1.26","2934996","co38965","norming","","","","","","",""
"3738.9999999998836","","","post_mooney1_questions","survey-likert","190","700058","0.0-6.0-2.26","2934996","co38965","norming","","","{""curiosity"":4,""confidence"":5}","[0,1]","../img/tt/456tt.jpg","",""
"1838.3000000000466","","","recognition","survey-text","191","701906","0.0-6.0-3.26","2934996","co38965","norming","","","{""guess"":""ijsbeer""}","","../img/tt/456tt.jpg","",""
"null","../img/gs/456gs.jpg","null","reveal","image-keyboard-response","192","703909","0.0-6.0-4.26","2934996","co38965","norming","","","","","","",""
"null","../img/tt/456tt.jpg","null","mooney2","image-keyboard-response","193","705911","0.0-6.0-5.26","2934996","co38965","norming","","","","","","",""
"3148.3000000000466","","","post_reveal_questions","survey-likert","194","709061","0.0-6.0-6.26","2934996","co38965","norming","","","{""aha"":4}","[0]","../img/tt/456tt.jpg","",""
"null","<div style=""font-size:60px;""> </div>","null","fixation","html-keyboard-response","195","709265","0.0-6.0-0.27","2934996","co38965","norming","","","","","","",""
"null","../img/tt/1053tt.jpg","null","mooney1","image-keyboard-response","196","712267","0.0-6.0-1.27","2934996","co38965","norming","","","","","","",""
"4568.800000000047","","","post_mooney1_questions","survey-likert","197","716839","0.0-6.0-2.27","2934996","co38965","norming","","","{""curiosity"":4,""confidence"":1}","[0,1]","../img/tt/1053tt.jpg","",""
"1148","","","recognition","survey-text","198","717998","0.0-6.0-3.27","2934996","co38965","norming","","","{""guess"":""koe""}","","../img/tt/1053tt.jpg","",""
"null","../img/gs/1053gs.jpg","null","reveal","image-keyboard-response","199","720001","0.0-6.0-4.27","2934996","co38965","norming","","","","","","",""
"null","../img/tt/1053tt.jpg","null","mooney2","image-keyboard-response","200","722003","0.0-6.0-5.27","2934996","co38965","norming","","","","","","",""
"4108.599999999977","","","post_reveal_questions","survey-likert","201","726114","0.0-6.0-6.27","2934996","co38965","norming","","","{""aha"":4}","[0]","../img/tt/1053tt.jpg","",""
"null","<div style=""font-size:60px;""> </div>","null","fixation","html-keyboard-response","202","726317","0.0-6.0-0.28","2934996","co38965","norming","","","","","","",""
"null","../img/tt/031tt.jpg","null","mooney1","image-keyboard-response","203","729319","0.0-6.0-1.28","2934996","co38965","norming","","","","","","",""
"6101.999999999884","","","post_mooney1_questions","survey-likert","204","735424","0.0-6.0-2.28","2934996","co38965","norming","","","{""curiosity"":4,""confidence"":1}","[0,1]","../img/tt/031tt.jpg","",""
"1430.2000000000698","","","recognition","survey-text","205","736864","0.0-6.0-3.28","2934996","co38965","norming","","","{""guess"":""beer""}","","../img/tt/031tt.jpg","",""
"null","../img/gs/031gs.jpg","null","reveal","image-keyboard-response","206","738867","0.0-6.0-4.28","2934996","co38965","norming","","","","","","",""
"null","../img/tt/031tt.jpg","null","mooney2","image-keyboard-response","207","740869","0.0-6.0-5.28","2934996","co38965","norming","","","","","","",""
"2894.4000000000233","","","post_reveal_questions","survey-likert","208","743765","0.0-6.0-6.28","2934996","co38965","norming","","","{""aha"":4}","[0]","../img/tt/031tt.jpg","",""
"null","<div style=""font-size:60px;""> </div>","null","fixation","html-keyboard-response","209","743969","0.0-6.0-0.29","2934996","co38965","norming","","","","","","",""
"null","../img/tt/1161tt.jpg","null","mooney1","image-keyboard-response","210","746971","0.0-6.0-1.29","2934996","co38965","norming","","","","","","",""
"3619.5","","","post_mooney1_questions","survey-likert","211","750592","0.0-6.0-2.29","2934996","co38965","norming","","","{""curiosity"":4,""confidence"":3}","[0,1]","../img/tt/1161tt.jpg","",""
"4820.899999999907","","","recognition","survey-text","212","755422","0.0-6.0-3.29","2934996","co38965","norming","","","{""guess"":""bergbeklimmer""}","","../img/tt/1161tt.jpg","",""
"null","../img/gs/1161gs.jpg","null","reveal","image-keyboard-response","213","757425","0.0-6.0-4.29","2934996","co38965","norming","","","","","","",""
"null","../img/tt/1161tt.jpg","null","mooney2","image-keyboard-response","214","759427","0.0-6.0-5.29","2934996","co38965","norming","","","","","","",""
"3771.399999999907","","","post_reveal_questions","survey-likert","215","763200","0.0-6.0-6.29","2934996","co38965","norming","","","{""aha"":4}","[0]","../img/tt/1161tt.jpg","",""
"null","<div style=""font-size:60px;""> </div>","null","fixation","html-keyboard-response","216","763403","0.0-6.0-0.30","2934996","co38965","norming","","","","","","",""
"null","../img/tt/1262tt.jpg","null","mooney1","image-keyboard-response","217","766406","0.0-6.0-1.30","2934996","co38965","norming","","","","","","",""
"3686.70000000007","","","post_mooney1_questions","survey-likert","218","770094","0.0-6.0-2.30","2934996","co38965","norming","","","{""curiosity"":4,""confidence"":3}","[0,1]","../img/tt/1262tt.jpg","",""
"3603.5999999999767","","","recognition","survey-text","219","773708","0.0-6.0-3.30","2934996","co38965","norming","","","{""guess"":""vogel""}","","../img/tt/1262tt.jpg","",""
"null","../img/gs/1262gs.jpg","null","reveal","image-keyboard-response","220","775711","0.0-6.0-4.30","2934996","co38965","norming","","","","","","",""
"null","../img/tt/1262tt.jpg","null","mooney2","image-keyboard-response","221","777714","0.0-6.0-5.30","2934996","co38965","norming","","","","","","",""
"2958.0999999999767","","","post_reveal_questions","survey-likert","222","780673","0.0-6.0-6.30","2934996","co38965","norming","","","{""aha"":3}","[0]","../img/tt/1262tt.jpg","",""
"null","<div style=""font-size:60px;""> </div>","null","fixation","html-keyboard-response","223","780877","0.0-6.0-0.31","2934996","co38965","norming","","","","","","",""
"null","../img/tt/184tt.jpg","null","mooney1","image-keyboard-response","224","783879","0.0-6.0-1.31","2934996","co38965","norming","","","","","","",""
"6831.699999999953","","","post_mooney1_questions","survey-likert","225","790713","0.0-6.0-2.31","2934996","co38965","norming","","","{""curiosity"":3,""confidence"":3}","[0,1]","../img/tt/184tt.jpg","",""
"1209.5000000001164","","","recognition","survey-text","226","791933","0.0-6.0-3.31","2934996","co38965","norming","","","{""guess"":""beer""}","","../img/tt/184tt.jpg","",""
"null","../img/gs/184gs.jpg","null","reveal","image-keyboard-response","227","793936","0.0-6.0-4.31","2934996","co38965","norming","","","","","","",""
"null","../img/tt/184tt.jpg","null","mooney2","image-keyboard-response","228","795938","0.0-6.0-5.31","2934996","co38965","norming","","","","","","",""
"3673.5999999998603","","","post_reveal_questions","survey-likert","229","799614","0.0-6.0-6.31","2934996","co38965","norming","","","{""aha"":5}","[0]","../img/tt/184tt.jpg","",""
"null","<div style=""font-size:60px;""> </div>","null","fixation","html-keyboard-response","230","799817","0.0-6.0-0.32","2934996","co38965","norming","","","","","","",""
"null","../img/tt/1173tt.jpg","null","mooney1","image-keyboard-response","231","802819","0.0-6.0-1.32","2934996","co38965","norming","","","","","","",""
"6813.100000000093","","","post_mooney1_questions","survey-likert","232","809635","0.0-6.0-2.32","2934996","co38965","norming","","","{""curiosity"":4,""confidence"":1}","[0,1]","../img/tt/1173tt.jpg","",""
"6741.900000000023","","","recognition","survey-text","233","816386","0.0-6.0-3.32","2934996","co38965","norming","","","{""guess"":""ruiters te paard""}","","../img/tt/1173tt.jpg","",""
"null","../img/gs/1173gs.jpg","null","reveal","image-keyboard-response","234","818389","0.0-6.0-4.32","2934996","co38965","norming","","","","","","",""
"null","../img/tt/1173tt.jpg","null","mooney2","image-keyboard-response","235","820392","0.0-6.0-5.32","2934996","co38965","norming","","","","","","",""
"3095.8000000000466","","","post_reveal_questions","survey-likert","236","823489","0.0-6.0-6.32","2934996","co38965","norming","","","{""aha"":2}","[0]","../img/tt/1173tt.jpg","",""
"null","<div style=""font-size:60px;""> </div>","null","fixation","html-keyboard-response","237","823692","0.0-6.0-0.33","2934996","co38965","norming","","","","","","",""
"null","../img/tt/056tt.jpg","null","mooney1","image-keyboard-response","238","826695","0.0-6.0-1.33","2934996","co38965","norming","","","","","","",""
"4900.699999999953","","","post_mooney1_questions","survey-likert","239","831597","0.0-6.0-2.33","2934996","co38965","norming","","","{""curiosity"":3,""confidence"":2}","[0,1]","../img/tt/056tt.jpg","",""
"2184.0999999999767","","","recognition","survey-text","240","833791","0.0-6.0-3.33","2934996","co38965","norming","","","{""guess"":""koala""}","","../img/tt/056tt.jpg","",""
"null","../img/gs/056gs.jpg","null","reveal","image-keyboard-response","241","835793","0.0-6.0-4.33","2934996","co38965","norming","","","","","","",""
"null","../img/tt/056tt.jpg","null","mooney2","image-keyboard-response","242","837796","0.0-6.0-5.33","2934996","co38965","norming","","","","","","",""
"5629.099999999977","","","post_reveal_questions","survey-likert","243","843427","0.0-6.0-6.33","2934996","co38965","norming","","","{""aha"":1}","[0]","../img/tt/056tt.jpg","",""
"null","<div style=""font-size:60px;""> </div>","null","fixation","html-keyboard-response","244","843630","0.0-6.0-0.34","2934996","co38965","norming","","","","","","",""
"null","../img/tt/1128tt.jpg","null","mooney1","image-keyboard-response","245","846633","0.0-6.0-1.34","2934996","co38965","norming","","","","","","",""
"5908.20000000007","","","post_mooney1_questions","survey-likert","246","852543","0.0-6.0-2.34","2934996","co38965","norming","","","{""curiosity"":4,""confidence"":2}","[0,1]","../img/tt/1128tt.jpg","",""
"1713.1999999999534","","","recognition","survey-text","247","854267","0.0-6.0-3.34","2934996","co38965","norming","","","{""guess"":""aap""}","","../img/tt/1128tt.jpg","",""
"null","../img/gs/1128gs.jpg","null","reveal","image-keyboard-response","248","856268","0.0-6.0-4.34","2934996","co38965","norming","","","","","","",""
"null","../img/tt/1128tt.jpg","null","mooney2","image-keyboard-response","249","858270","0.0-6.0-5.34","2934996","co38965","norming","","","","","","",""
"5437.900000000023","","","post_reveal_questions","survey-likert","250","863709","0.0-6.0-6.34","2934996","co38965","norming","","","{""aha"":3}","[0]","../img/tt/1128tt.jpg","",""
"null","<div style=""font-size:60px;""> </div>","null","fixation","html-keyboard-response","251","863914","0.0-6.0-0.35","2934996","co38965","norming","","","","","","",""
"null","../img/tt/1226tt.jpg","null","mooney1","image-keyboard-response","252","866917","0.0-6.0-1.35","2934996","co38965","norming","","","","","","",""
"8137.79999999993","","","post_mooney1_questions","survey-likert","253","875057","0.0-6.0-2.35","2934996","co38965","norming","","","{""curiosity"":1,""confidence"":4}","[0,1]","../img/tt/1226tt.jpg","",""
"3790.6999999999534","","","recognition","survey-text","254","878859","0.0-6.0-3.35","2934996","co38965","norming","","","{""guess"":""zwaan""}","","../img/tt/1226tt.jpg","",""
"null","../img/gs/1226gs.jpg","null","reveal","image-keyboard-response","255","880861","0.0-6.0-4.35","2934996","co38965","norming","","","","","","",""
"null","../img/tt/1226tt.jpg","null","mooney2","image-keyboard-response","256","882863","0.0-6.0-5.35","2934996","co38965","norming","","","","","","",""
"10086.70000000007","","","post_reveal_questions","survey-likert","257","892952","0.0-6.0-6.35","2934996","co38965","norming","","","{""aha"":4}","[0]","../img/tt/1226tt.jpg","",""
"null","<div style=""font-size:60px;""> </div>","null","fixation","html-keyboard-response","258","893155","0.0-6.0-0.36","2934996","co38965","norming","","","","","","",""
"null","../img/tt/032tt.jpg","null","mooney1","image-keyboard-response","259","896157","0.0-6.0-1.36","2934996","co38965","norming","","","","","","",""
"7666.099999999977","","","post_mooney1_questions","survey-likert","260","903825","0.0-6.0-2.36","2934996","co38965","norming","","","{""curiosity"":1,""confidence"":2}","[0,1]","../img/tt/032tt.jpg","",""
"1744.3999999999069","","","recognition","survey-text","261","905579","0.0-6.0-3.36","2934996","co38965","norming","","","{""guess"":""kip""}","","../img/tt/032tt.jpg","",""
"null","../img/gs/032gs.jpg","null","reveal","image-keyboard-response","262","907583","0.0-6.0-4.36","2934996","co38965","norming","","","","","","",""
"null","../img/tt/032tt.jpg","null","mooney2","image-keyboard-response","263","909585","0.0-6.0-5.36","2934996","co38965","norming","","","","","","",""
"3827.399999999907","","","post_reveal_questions","survey-likert","264","913414","0.0-6.0-6.36","2934996","co38965","norming","","","{""aha"":1}","[0]","../img/tt/032tt.jpg","",""
"null","<div style=""font-size:60px;""> </div>","null","fixation","html-keyboard-response","265","913618","0.0-6.0-0.37","2934996","co38965","norming","","","","","","",""
"null","../img/tt/1116tt.jpg","null","mooney1","image-keyboard-response","266","916621","0.0-6.0-1.37","2934996","co38965","norming","","","","","","",""
"6342.59999999986","","","post_mooney1_questions","survey-likert","267","922965","0.0-6.0-2.37","2934996","co38965","norming","","","{""curiosity"":2,""confidence"":0}","[0,1]","../img/tt/1116tt.jpg","",""
"2178.600000000093","","","recognition","survey-text","268","925156","0.0-6.0-3.37","2934996","co38965","norming","","","{""guess"":""boot""}","","../img/tt/1116tt.jpg","",""
"null","../img/gs/1116gs.jpg","null","reveal","image-keyboard-response","269","927159","0.0-6.0-4.37","2934996","co38965","norming","","","","","","",""
"null","../img/tt/1116tt.jpg","null","mooney2","image-keyboard-response","270","929162","0.0-6.0-5.37","2934996","co38965","norming","","","","","","",""
"9316.79999999993","","","post_reveal_questions","survey-likert","271","938481","0.0-6.0-6.37","2934996","co38965","norming","","","{""aha"":2}","[0]","../img/tt/1116tt.jpg","",""
"null","<div style=""font-size:60px;""> </div>","null","fixation","html-keyboard-response","272","938684","0.0-6.0-0.38","2934996","co38965","norming","","","","","","",""
"null","../img/tt/1159tt.jpg","null","mooney1","image-keyboard-response","273","941687","0.0-6.0-1.38","2934996","co38965","norming","","","","","","",""
"4618","","","post_mooney1_questions","survey-likert","274","946307","0.0-6.0-2.38","2934996","co38965","norming","","","{""curiosity"":4,""confidence"":0}","[0,1]","../img/tt/1159tt.jpg","",""
"3560","","","recognition","survey-text","275","949877","0.0-6.0-3.38","2934996","co38965","norming","","","{""guess"":""vliegtuig ""}","","../img/tt/1159tt.jpg","",""
"null","../img/gs/1159gs.jpg","null","reveal","image-keyboard-response","276","951880","0.0-6.0-4.38","2934996","co38965","norming","","","","","","",""
"null","../img/tt/1159tt.jpg","null","mooney2","image-keyboard-response","277","953882","0.0-6.0-5.38","2934996","co38965","norming","","","","","","",""
"5389.70000000007","","","post_reveal_questions","survey-likert","278","959274","0.0-6.0-6.38","2934996","co38965","norming","","","{""aha"":1}","[0]","../img/tt/1159tt.jpg","",""
"null","<div style=""font-size:60px;""> </div>","null","fixation","html-keyboard-response","279","959478","0.0-6.0-0.39","2934996","co38965","norming","","","","","","",""
"null","../img/tt/515tt.jpg","null","mooney1","image-keyboard-response","280","962481","0.0-6.0-1.39","2934996","co38965","norming","","","","","","",""
"6212.900000000023","","","post_mooney1_questions","survey-likert","281","968696","0.0-6.0-2.39","2934996","co38965","norming","","","{""curiosity"":3,""confidence"":0}","[0,1]","../img/tt/515tt.jpg","",""
"1778.5999999999767","","","recognition","survey-text","282","970485","0.0-6.0-3.39","2934996","co38965","norming","","","{""guess"":""bird""}","","../img/tt/515tt.jpg","",""
"null","../img/gs/515gs.jpg","null","reveal","image-keyboard-response","283","972488","0.0-6.0-4.39","2934996","co38965","norming","","","","","","",""
"null","../img/tt/515tt.jpg","null","mooney2","image-keyboard-response","284","974490","0.0-6.0-5.39","2934996","co38965","norming","","","","","","",""
"4024.8000000000466","","","post_reveal_questions","survey-likert","285","978517","0.0-6.0-6.39","2934996","co38965","norming","","","{""aha"":2}","[0]","../img/tt/515tt.jpg","",""
"null","<div style=""font-size:60px;""> </div>","null","fixation","html-keyboard-response","286","978720","0.0-6.0-0.40","2934996","co38965","norming","","","","","","",""
"null","../img/tt/1154tt.jpg","null","mooney1","image-keyboard-response","287","981723","0.0-6.0-1.40","2934996","co38965","norming","","","","","","",""
"5377.400000000023","","","post_mooney1_questions","survey-likert","288","987102","0.0-6.0-2.40","2934996","co38965","norming","","","{""curiosity"":2,""confidence"":1}","[0,1]","../img/tt/1154tt.jpg","",""
"3961.6999999999534","","","recognition","survey-text","289","991073","0.0-6.0-3.40","2934996","co38965","norming","","","{""guess"":""kajak""}","","../img/tt/1154tt.jpg","",""
"null","../img/gs/1154gs.jpg","null","reveal","image-keyboard-response","290","993076","0.0-6.0-4.40","2934996","co38965","norming","","","","","","",""
"null","../img/tt/1154tt.jpg","null","mooney2","image-keyboard-response","291","995079","0.0-6.0-5.40","2934996","co38965","norming","","","","","","",""
"5568.800000000047","","","post_reveal_questions","survey-likert","292","1000649","0.0-6.0-6.40","2934996","co38965","norming","","","{""aha"":3}","[0]","../img/tt/1154tt.jpg","",""
"null","<div style=""font-size:60px;""> </div>","null","fixation","html-keyboard-response","293","1000854","0.0-6.0-0.41","2934996","co38965","norming","","","","","","",""
"null","../img/tt/007tt.jpg","null","mooney1","image-keyboard-response","294","1003856","0.0-6.0-1.41","2934996","co38965","norming","","","","","","",""
"3971.100000000093","","","post_mooney1_questions","survey-likert","295","1007829","0.0-6.0-2.41","2934996","co38965","norming","","","{""curiosity"":3,""confidence"":1}","[0,1]","../img/tt/007tt.jpg","",""
"2012.8000000000466","","","recognition","survey-text","296","1009852","0.0-6.0-3.41","2934996","co38965","norming","","","{""guess"":""paard""}","","../img/tt/007tt.jpg","",""
"null","../img/gs/007gs.jpg","null","reveal","image-keyboard-response","297","1011855","0.0-6.0-4.41","2934996","co38965","norming","","","","","","",""
"null","../img/tt/007tt.jpg","null","mooney2","image-keyboard-response","298","1013857","0.0-6.0-5.41","2934996","co38965","norming","","","","","","",""
"6714.300000000163","","","post_reveal_questions","survey-likert","299","1020574","0.0-6.0-6.41","2934996","co38965","norming","","","{""aha"":2}","[0]","../img/tt/007tt.jpg","",""
"null","<div style=""font-size:60px;""> </div>","null","fixation","html-keyboard-response","300","1020777","0.0-6.0-0.42","2934996","co38965","norming","","","","","","",""
"null","../img/tt/567tt.jpg","null","mooney1","image-keyboard-response","301","1023780","0.0-6.0-1.42","2934996","co38965","norming","","","","","","",""
"4845.699999999837","","","post_mooney1_questions","survey-likert","302","1028628","0.0-6.0-2.42","2934996","co38965","norming","","","{""curiosity"":2,""confidence"":2}","[0,1]","../img/tt/567tt.jpg","",""
"5128.800000000047","","","recognition","survey-text","303","1033767","0.0-6.0-3.42","2934996","co38965","norming","","","{""guess"":""spiegel van een auto""}","","../img/tt/567tt.jpg","",""
"null","../img/gs/567gs.jpg","null","reveal","image-keyboard-response","304","1035770","0.0-6.0-4.42","2934996","co38965","norming","","","","","","",""
"null","../img/tt/567tt.jpg","null","mooney2","image-keyboard-response","305","1037773","0.0-6.0-5.42","2934996","co38965","norming","","","","","","",""
"2353.199999999837","","","post_reveal_questions","survey-likert","306","1040128","0.0-6.0-6.42","2934996","co38965","norming","","","{""aha"":1}","[0]","../img/tt/567tt.jpg","",""
"null","<div style=""font-size:60px;""> </div>","null","fixation","html-keyboard-response","307","1040331","0.0-6.0-0.43","2934996","co38965","norming","","","","","","",""
"null","../img/tt/603tt.jpg","null","mooney1","image-keyboard-response","308","1043334","0.0-6.0-1.43","2934996","co38965","norming","","","","","","",""
"4690.899999999907","","","post_mooney1_questions","survey-likert","309","1048027","0.0-6.0-2.43","2934996","co38965","norming","","","{""curiosity"":2,""confidence"":2}","[0,1]","../img/tt/603tt.jpg","",""
"935.1999999999534","","","recognition","survey-text","310","1048972","0.0-6.0-3.43","2934996","co38965","norming","","","{""guess"":""kat""}","","../img/tt/603tt.jpg","",""
"null","../img/gs/603gs.jpg","null","reveal","image-keyboard-response","311","1050974","0.0-6.0-4.43","2934996","co38965","norming","","","","","","",""
"null","../img/tt/603tt.jpg","null","mooney2","image-keyboard-response","312","1052977","0.0-6.0-5.43","2934996","co38965","norming","","","","","","",""
"4266.90000000014","","","post_reveal_questions","survey-likert","313","1057246","0.0-6.0-6.43","2934996","co38965","norming","","","{""aha"":1}","[0]","../img/tt/603tt.jpg","",""
"null","<div style=""font-size:60px;""> </div>","null","fixation","html-keyboard-response","314","1057449","0.0-6.0-0.44","2934996","co38965","norming","","","","","","",""
"null","../img/tt/477tt.jpg","null","mooney1","image-keyboard-response","315","1060452","0.0-6.0-1.44","2934996","co38965","norming","","","","","","",""
"5176.09999999986","","","post_mooney1_questions","survey-likert","316","1065630","0.0-6.0-2.44","2934996","co38965","norming","","","{""curiosity"":1,""confidence"":0}","[0,1]","../img/tt/477tt.jpg","",""
"2700.8000000000466","","","recognition","survey-text","317","1068340","0.0-6.0-3.44","2934996","co38965","norming","","","{""guess"":""spiegel""}","","../img/tt/477tt.jpg","",""
"null","../img/gs/477gs.jpg","null","reveal","image-keyboard-response","318","1070343","0.0-6.0-4.44","2934996","co38965","norming","","","","","","",""
"null","../img/tt/477tt.jpg","null","mooney2","image-keyboard-response","319","1072345","0.0-6.0-5.44","2934996","co38965","norming","","","","","","",""
"10073.699999999953","","","post_reveal_questions","survey-likert","320","1082421","0.0-6.0-6.44","2934996","co38965","norming","","","{""aha"":1}","[0]","../img/tt/477tt.jpg","",""
"null","<div style=""font-size:60px;""> </div>","null","fixation","html-keyboard-response","321","1082624","0.0-6.0-0.45","2934996","co38965","norming","","","","","","",""
"null","../img/tt/599tt.jpg","null","mooney1","image-keyboard-response","322","1085627","0.0-6.0-1.45","2934996","co38965","norming","","","","","","",""
"6059.500000000233","","","post_mooney1_questions","survey-likert","323","1091689","0.0-6.0-2.45","2934996","co38965","norming","","","{""curiosity"":2,""confidence"":0}","[0,1]","../img/tt/599tt.jpg","",""
"1288.4000000001397","","","recognition","survey-text","324","1092987","0.0-6.0-3.45","2934996","co38965","norming","","","{""guess"":""uil""}","","../img/tt/599tt.jpg","",""
"null","../img/gs/599gs.jpg","null","reveal","image-keyboard-response","325","1094990","0.0-6.0-4.45","2934996","co38965","norming","","","","","","",""
"null","../img/tt/599tt.jpg","null","mooney2","image-keyboard-response","326","1096992","0.0-6.0-5.45","2934996","co38965","norming","","","","","","",""
"4323.200000000186","","","post_reveal_questions","survey-likert","327","1101317","0.0-6.0-6.45","2934996","co38965","norming","","","{""aha"":5}","[0]","../img/tt/599tt.jpg","",""
"null","<div style=""font-size:60px;""> </div>","null","fixation","html-keyboard-response","328","1101520","0.0-6.0-0.46","2934996","co38965","norming","","","","","","",""
"null","../img/tt/416tt.jpg","null","mooney1","image-keyboard-response","329","1104523","0.0-6.0-1.46","2934996","co38965","norming","","","","","","",""
"6044.399999999907","","","post_mooney1_questions","survey-likert","330","1110569","0.0-6.0-2.46","2934996","co38965","norming","","","{""curiosity"":0,""confidence"":0}","[0,1]","../img/tt/416tt.jpg","",""
"5048.600000000093","","","recognition","survey-text","331","1115627","0.0-6.0-3.46","2934996","co38965","norming","","","{""guess"":""vogel""}","","../img/tt/416tt.jpg","",""
"null","../img/gs/416gs.jpg","null","reveal","image-keyboard-response","332","1117630","0.0-6.0-4.46","2934996","co38965","norming","","","","","","",""
"null","../img/tt/416tt.jpg","null","mooney2","image-keyboard-response","333","1119632","0.0-6.0-5.46","2934996","co38965","norming","","","","","","",""
"6175.199999999953","","","post_reveal_questions","survey-likert","334","1125809","0.0-6.0-6.46","2934996","co38965","norming","","","{""aha"":2}","[0]","../img/tt/416tt.jpg","",""
"null","<div style=""font-size:60px;""> </div>","null","fixation","html-keyboard-response","335","1126013","0.0-6.0-0.47","2934996","co38965","norming","","","","","","",""
"null","../img/tt/1086tt.jpg","null","mooney1","image-keyboard-response","336","1129016","0.0-6.0-1.47","2934996","co38965","norming","","","","","","",""
"6058","","","post_mooney1_questions","survey-likert","337","1135076","0.0-6.0-2.47","2934996","co38965","norming","","","{""curiosity"":3,""confidence"":1}","[0,1]","../img/tt/1086tt.jpg","",""
"2701.2999999998137","","","recognition","survey-text","338","1137787","0.0-6.0-3.47","2934996","co38965","norming","","","{""guess"":""koe""}","","../img/tt/1086tt.jpg","",""
"null","../img/gs/1086gs.jpg","null","reveal","image-keyboard-response","339","1139790","0.0-6.0-4.47","2934996","co38965","norming","","","","","","",""
"null","../img/tt/1086tt.jpg","null","mooney2","image-keyboard-response","340","1141792","0.0-6.0-5.47","2934996","co38965","norming","","","","","","",""
"7150.700000000186","","","post_reveal_questions","survey-likert","341","1148945","0.0-6.0-6.47","2934996","co38965","norming","","","{""aha"":1}","[0]","../img/tt/1086tt.jpg","",""
"null","<div style=""font-size:60px;""> </div>","null","fixation","html-keyboard-response","342","1149148","0.0-6.0-0.48","2934996","co38965","norming","","","","","","",""
"null","../img/tt/418tt.jpg","null","mooney1","image-keyboard-response","343","1152151","0.0-6.0-1.48","2934996","co38965","norming","","","","","","",""
"6963.899999999907","","","post_mooney1_questions","survey-likert","344","1159117","0.0-6.0-2.48","2934996","co38965","norming","","","{""curiosity"":3,""confidence"":0}","[0,1]","../img/tt/418tt.jpg","",""
"3947.1999999999534","","","recognition","survey-text","345","1163071","0.0-6.0-3.48","2934996","co38965","norming","","","{""guess"":""mijnwerker""}","","../img/tt/418tt.jpg","",""
"null","../img/gs/418gs.jpg","null","reveal","image-keyboard-response","346","1165074","0.0-6.0-4.48","2934996","co38965","norming","","","","","","",""
"null","../img/tt/418tt.jpg","null","mooney2","image-keyboard-response","347","1167076","0.0-6.0-5.48","2934996","co38965","norming","","","","","","",""
"5447.200000000186","","","post_reveal_questions","survey-likert","348","1172525","0.0-6.0-6.48","2934996","co38965","norming","","","{""aha"":1}","[0]","../img/tt/418tt.jpg","",""
"null","<div style=""font-size:60px;""> </div>","null","fixation","html-keyboard-response","349","1172728","0.0-6.0-0.49","2934996","co38965","norming","","","","","","",""
"null","../img/tt/481tt.jpg","null","mooney1","image-keyboard-response","350","1175731","0.0-6.0-1.49","2934996","co38965","norming","","","","","","",""
"4476.300000000047","","","post_mooney1_questions","survey-likert","351","1180210","0.0-6.0-2.49","2934996","co38965","norming","","","{""curiosity"":2,""confidence"":1}","[0,1]","../img/tt/481tt.jpg","",""
"3269.8000000000466","","","recognition","survey-text","352","1183490","0.0-6.0-3.49","2934996","co38965","norming","","","{""guess"":""panda""}","","../img/tt/481tt.jpg","",""
"null","../img/gs/481gs.jpg","null","reveal","image-keyboard-response","353","1185493","0.0-6.0-4.49","2934996","co38965","norming","","","","","","",""
"null","../img/tt/481tt.jpg","null","mooney2","image-keyboard-response","354","1187494","0.0-6.0-5.49","2934996","co38965","norming","","","","","","",""
"5721","","","post_reveal_questions","survey-likert","355","1193217","0.0-6.0-6.49","2934996","co38965","norming","","","{""aha"":3}","[0]","../img/tt/481tt.jpg","",""
"null","<div style=""font-size:60px;""> </div>","null","fixation","html-keyboard-response","356","1193421","0.0-6.0-0.50","2934996","co38965","norming","","","","","","",""
"null","../img/tt/300tt.jpg","null","mooney1","image-keyboard-response","357","1196423","0.0-6.0-1.50","2934996","co38965","norming","","","","","","",""
"8867.59999999986","","","post_mooney1_questions","survey-likert","358","1205293","0.0-6.0-2.50","2934996","co38965","norming","","","{""curiosity"":3,""confidence"":2}","[0,1]","../img/tt/300tt.jpg","",""
"2788.399999999907","","","recognition","survey-text","359","1208089","0.0-6.0-3.50","2934996","co38965","norming","","","{""guess"":""vrouw""}","","../img/tt/300tt.jpg","",""
"null","../img/gs/300gs.jpg","null","reveal","image-keyboard-response","360","1210097","0.0-6.0-4.50","2934996","co38965","norming","","","","","","",""
"null","../img/tt/300tt.jpg","null","mooney2","image-keyboard-response","361","1212099","0.0-6.0-5.50","2934996","co38965","norming","","","","","","",""
"9658.999999999767","","","post_reveal_questions","survey-likert","362","1221760","0.0-6.0-6.50","2934996","co38965","norming","","","{""aha"":2}","[0]","../img/tt/300tt.jpg","",""
"null","<div style=""font-size:60px;""> </div>","null","fixation","html-keyboard-response","363","1221964","0.0-6.0-0.51","2934996","co38965","norming","","","","","","",""
"null","../img/tt/1228tt.jpg","null","mooney1","image-keyboard-response","364","1224967","0.0-6.0-1.51","2934996","co38965","norming","","","","","","",""
"4247.799999999814","","","post_mooney1_questions","survey-likert","365","1229217","0.0-6.0-2.51","2934996","co38965","norming","","","{""curiosity"":3,""confidence"":3}","[0,1]","../img/tt/1228tt.jpg","",""
"2617.7000000001863","","","recognition","survey-text","366","1231845","0.0-6.0-3.51","2934996","co38965","norming","","","{""guess"":""vogel""}","","../img/tt/1228tt.jpg","",""
"null","../img/gs/1228gs.jpg","null","reveal","image-keyboard-response","367","1233847","0.0-6.0-4.51","2934996","co38965","norming","","","","","","",""
"null","../img/tt/1228tt.jpg","null","mooney2","image-keyboard-response","368","1235850","0.0-6.0-5.51","2934996","co38965","norming","","","","","","",""
"3365.2999999998137","","","post_reveal_questions","survey-likert","369","1239222","0.0-6.0-6.51","2934996","co38965","norming","","","{""aha"":2}","[0]","../img/tt/1228tt.jpg","",""
"null","<div style=""font-size:60px;""> </div>","null","fixation","html-keyboard-response","370","1239426","0.0-6.0-0.52","2934996","co38965","norming","","","","","","",""
"null","../img/tt/1143tt.jpg","null","mooney1","image-keyboard-response","371","1242428","0.0-6.0-1.52","2934996","co38965","norming","","","","","","",""
"5611.600000000093","","","post_mooney1_questions","survey-likert","372","1248042","0.0-6.0-2.52","2934996","co38965","norming","","","{""curiosity"":1,""confidence"":0}","[0,1]","../img/tt/1143tt.jpg","",""
"6840.09999999986","","","recognition","survey-text","373","1254891","0.0-6.0-3.52","2934996","co38965","norming","","","{""guess"":""spinnenwiel""}","","../img/tt/1143tt.jpg","",""
"null","../img/gs/1143gs.jpg","null","reveal","image-keyboard-response","374","1256895","0.0-6.0-4.52","2934996","co38965","norming","","","","","","",""
"null","../img/tt/1143tt.jpg","null","mooney2","image-keyboard-response","375","1258897","0.0-6.0-5.52","2934996","co38965","norming","","","","","","",""
"4182.500000000233","","","post_reveal_questions","survey-likert","376","1263081","0.0-6.0-6.52","2934996","co38965","norming","","","{""aha"":1}","[0]","../img/tt/1143tt.jpg","",""
"null","<div style=""font-size:60px;""> </div>","null","fixation","html-keyboard-response","377","1263285","0.0-6.0-0.53","2934996","co38965","norming","","","","","","",""
"null","../img/tt/1055tt.jpg","null","mooney1","image-keyboard-response","378","1266287","0.0-6.0-1.53","2934996","co38965","norming","","","","","","",""
"4402.700000000186","","","post_mooney1_questions","survey-likert","379","1270691","0.0-6.0-2.53","2934996","co38965","norming","","","{""curiosity"":2,""confidence"":1}","[0,1]","../img/tt/1055tt.jpg","",""
"7633.40000000014","","","recognition","survey-text","380","1278338","0.0-6.0-3.53","2934996","co38965","norming","","","{""guess"":""omgekanteld bootje""}","","../img/tt/1055tt.jpg","",""
"null","../img/gs/1055gs.jpg","null","reveal","image-keyboard-response","381","1280341","0.0-6.0-4.53","2934996","co38965","norming","","","","","","",""
"null","../img/tt/1055tt.jpg","null","mooney2","image-keyboard-response","382","1282343","0.0-6.0-5.53","2934996","co38965","norming","","","","","","",""
"3699.3000000000466","","","post_reveal_questions","survey-likert","383","1286044","0.0-6.0-6.53","2934996","co38965","norming","","","{""aha"":1}","[0]","../img/tt/1055tt.jpg","",""
"null","<div style=""font-size:60px;""> </div>","null","fixation","html-keyboard-response","384","1286248","0.0-6.0-0.54","2934996","co38965","norming","","","","","","",""
"null","../img/tt/353tt.jpg","null","mooney1","image-keyboard-response","385","1289250","0.0-6.0-1.54","2934996","co38965","norming","","","","","","",""
"5714.299999999814","","","post_mooney1_questions","survey-likert","386","1294967","0.0-6.0-2.54","2934996","co38965","norming","","","{""curiosity"":3,""confidence"":5}","[0,1]","../img/tt/353tt.jpg","",""
"3490.5","","","recognition","survey-text","387","1298466","0.0-6.0-3.54","2934996","co38965","norming","","","{""guess"":""pinguin""}","","../img/tt/353tt.jpg","",""
"null","../img/gs/353gs.jpg","null","reveal","image-keyboard-response","388","1300469","0.0-6.0-4.54","2934996","co38965","norming","","","","","","",""
"null","../img/tt/353tt.jpg","null","mooney2","image-keyboard-response","389","1302471","0.0-6.0-5.54","2934996","co38965","norming","","","","","","",""
"4334.799999999814","","","post_reveal_questions","survey-likert","390","1306807","0.0-6.0-6.54","2934996","co38965","norming","","","{""aha"":3}","[0]","../img/tt/353tt.jpg","",""
"null","<div style=""font-size:60px;""> </div>","null","fixation","html-keyboard-response","391","1307011","0.0-6.0-0.55","2934996","co38965","norming","","","","","","",""
"null","../img/tt/270tt.jpg","null","mooney1","image-keyboard-response","392","1310014","0.0-6.0-1.55","2934996","co38965","norming","","","","","","",""
"5064.700000000186","","","post_mooney1_questions","survey-likert","393","1315081","0.0-6.0-2.55","2934996","co38965","norming","","","{""curiosity"":2,""confidence"":0}","[0,1]","../img/tt/270tt.jpg","",""
"2148.5","","","recognition","survey-text","394","1317239","0.0-6.0-3.55","2934996","co38965","norming","","","{""guess"":""muur""}","","../img/tt/270tt.jpg","",""
"null","../img/gs/270gs.jpg","null","reveal","image-keyboard-response","395","1319242","0.0-6.0-4.55","2934996","co38965","norming","","","","","","",""
"null","../img/tt/270tt.jpg","null","mooney2","image-keyboard-response","396","1321245","0.0-6.0-5.55","2934996","co38965","norming","","","","","","",""
"9576.399999999907","","","post_reveal_questions","survey-likert","397","1330823","0.0-6.0-6.55","2934996","co38965","norming","","","{""aha"":2}","[0]","../img/tt/270tt.jpg","",""
"null","<div style=""font-size:60px;""> </div>","null","fixation","html-keyboard-response","398","1331026","0.0-6.0-0.56","2934996","co38965","norming","","","","","","",""
"null","../img/tt/085tt.jpg","null","mooney1","image-keyboard-response","399","1334029","0.0-6.0-1.56","2934996","co38965","norming","","","","","","",""
"8083.899999999674","","","post_mooney1_questions","survey-likert","400","1342115","0.0-6.0-2.56","2934996","co38965","norming","","","{""curiosity"":3,""confidence"":1}","[0,1]","../img/tt/085tt.jpg","",""
"2004.3000000000466","","","recognition","survey-text","401","1344130","0.0-6.0-3.56","2934996","co38965","norming","","","{""guess"":""miv""}","","../img/tt/085tt.jpg","",""
"null","../img/gs/085gs.jpg","null","reveal","image-keyboard-response","402","1346133","0.0-6.0-4.56","2934996","co38965","norming","","","","","","",""
"null","../img/tt/085tt.jpg","null","mooney2","image-keyboard-response","403","1348135","0.0-6.0-5.56","2934996","co38965","norming","","","","","","",""
"5624.90000000014","","","post_reveal_questions","survey-likert","404","1353762","0.0-6.0-6.56","2934996","co38965","norming","","","{""aha"":2}","[0]","../img/tt/085tt.jpg","",""
"null","<div style=""font-size:60px;""> </div>","null","fixation","html-keyboard-response","405","1353966","0.0-6.0-0.57","2934996","co38965","norming","","","","","","",""
"null","../img/tt/052tt.jpg","null","mooney1","image-keyboard-response","406","1356968","0.0-6.0-1.57","2934996","co38965","norming","","","","","","",""
"10185.299999999814","","","post_mooney1_questions","survey-likert","407","1367156","0.0-6.0-2.57","2934996","co38965","norming","","","{""curiosity"":1,""confidence"":1}","[0,1]","../img/tt/052tt.jpg","",""
"3384.7000000001863","","","recognition","survey-text","408","1370550","0.0-6.0-3.57","2934996","co38965","norming","","","{""guess"":""ring""}","","../img/tt/052tt.jpg","",""
"null","../img/gs/052gs.jpg","null","reveal","image-keyboard-response","409","1372553","0.0-6.0-4.57","2934996","co38965","norming","","","","","","",""
"null","../img/tt/052tt.jpg","null","mooney2","image-keyboard-response","410","1374556","0.0-6.0-5.57","2934996","co38965","norming","","","","","","",""
"3622.399999999907","","","post_reveal_questions","survey-likert","411","1378180","0.0-6.0-6.57","2934996","co38965","norming","","","{""aha"":4}","[0]","../img/tt/052tt.jpg","",""
"null","<div style=""font-size:60px;""> </div>","null","fixation","html-keyboard-response","412","1378383","0.0-6.0-0.58","2934996","co38965","norming","","","","","","",""
"null","../img/tt/1251tt.jpg","null","mooney1","image-keyboard-response","413","1381386","0.0-6.0-1.58","2934996","co38965","norming","","","","","","",""
"4260.600000000093","","","post_mooney1_questions","survey-likert","414","1385649","0.0-6.0-2.58","2934996","co38965","norming","","","{""curiosity"":3,""confidence"":0}","[0,1]","../img/tt/1251tt.jpg","",""
"2888.5","","","recognition","survey-text","415","1388547","0.0-6.0-3.58","2934996","co38965","norming","","","{""guess"":""beer""}","","../img/tt/1251tt.jpg","",""
"null","../img/gs/1251gs.jpg","null","reveal","image-keyboard-response","416","1390550","0.0-6.0-4.58","2934996","co38965","norming","","","","","","",""
"null","../img/tt/1251tt.jpg","null","mooney2","image-keyboard-response","417","1392552","0.0-6.0-5.58","2934996","co38965","norming","","","","","","",""
"1963.7999999998137","","","post_reveal_questions","survey-likert","418","1394517","0.0-6.0-6.58","2934996","co38965","norming","","","{""aha"":3}","[0]","../img/tt/1251tt.jpg","",""
"null","<div style=""font-size:60px;""> </div>","null","fixation","html-keyboard-response","419","1394722","0.0-6.0-0.59","2934996","co38965","norming","","","","","","",""
"null","../img/tt/1268tt.jpg","null","mooney1","image-keyboard-response","420","1397725","0.0-6.0-1.59","2934996","co38965","norming","","","","","","",""
"4299","","","post_mooney1_questions","survey-likert","421","1402076","0.0-6.0-2.59","2934996","co38965","norming","","","{""curiosity"":2,""confidence"":1}","[0,1]","../img/tt/1268tt.jpg","",""
"3504.3000000000466","","","recognition","survey-text","422","1405589","0.0-6.0-3.59","2934996","co38965","norming","","","{""guess"":""nijlpaard""}","","../img/tt/1268tt.jpg","",""
"null","../img/gs/1268gs.jpg","null","reveal","image-keyboard-response","423","1407592","0.0-6.0-4.59","2934996","co38965","norming","","","","","","",""
"null","../img/tt/1268tt.jpg","null","mooney2","image-keyboard-response","424","1409595","0.0-6.0-5.59","2934996","co38965","norming","","","","","","",""
"7254","","","post_reveal_questions","survey-likert","425","1416851","0.0-6.0-6.59","2934996","co38965","norming","","","{""aha"":1}","[0]","../img/tt/1268tt.jpg","",""
"null","<div style=""font-size:60px;""> </div>","null","fixation","html-keyboard-response","426","1417055","0.0-6.0-0.60","2934996","co38965","norming","","","","","","",""
"null","../img/tt/1101tt.jpg","null","mooney1","image-keyboard-response","427","1420058","0.0-6.0-1.60","2934996","co38965","norming","","","","","","",""
"6889.300000000047","","","post_mooney1_questions","survey-likert","428","1426949","0.0-6.0-2.60","2934996","co38965","norming","","","{""curiosity"":3,""confidence"":2}","[0,1]","../img/tt/1101tt.jpg","",""
"3843.8000000000466","","","recognition","survey-text","429","1430804","0.0-6.0-3.60","2934996","co38965","norming","","","{""guess"":""rodeo ""}","","../img/tt/1101tt.jpg","",""
"null","../img/gs/1101gs.jpg","null","reveal","image-keyboard-response","430","1432807","0.0-6.0-4.60","2934996","co38965","norming","","","","","","",""
"null","../img/tt/1101tt.jpg","null","mooney2","image-keyboard-response","431","1434808","0.0-6.0-5.60","2934996","co38965","norming","","","","","","",""
"13338.5","","","post_reveal_questions","survey-likert","432","1448156","0.0-6.0-6.60","2934996","co38965","norming","","","{""aha"":1}","[0]","../img/tt/1101tt.jpg","",""
"null","<div style=""font-size:60px;""> </div>","null","fixation","html-keyboard-response","433","1448359","0.0-6.0-0.61","2934996","co38965","norming","","","","","","",""
"null","../img/tt/064tt.jpg","null","mooney1","image-keyboard-response","434","1451362","0.0-6.0-1.61","2934996","co38965","norming","","","","","","",""
"3285.9000000001397","","","post_mooney1_questions","survey-likert","435","1454650","0.0-6.0-2.61","2934996","co38965","norming","","","{""curiosity"":2,""confidence"":4}","[0,1]","../img/tt/064tt.jpg","",""
"4382.40000000014","","","recognition","survey-text","436","1459044","0.0-6.0-3.61","2934996","co38965","norming","","","{""guess"":""schildpad""}","","../img/tt/064tt.jpg","",""
"null","../img/gs/064gs.jpg","null","reveal","image-keyboard-response","437","1461046","0.0-6.0-4.61","2934996","co38965","norming","","","","","","",""
"null","../img/tt/064tt.jpg","null","mooney2","image-keyboard-response","438","1463049","0.0-6.0-5.61","2934996","co38965","norming","","","","","","",""
"2573.600000000093","","","post_reveal_questions","survey-likert","439","1465625","0.0-6.0-6.61","2934996","co38965","norming","","","{""aha"":4}","[0]","../img/tt/064tt.jpg","",""
"null","<div style=""font-size:60px;""> </div>","null","fixation","html-keyboard-response","440","1465828","0.0-6.0-0.62","2934996","co38965","norming","","","","","","",""
"null","../img/tt/1260tt.jpg","null","mooney1","image-keyboard-response","441","1468831","0.0-6.0-1.62","2934996","co38965","norming","","","","","","",""
"5237.59999999986","","","post_mooney1_questions","survey-likert","442","1474070","0.0-6.0-2.62","2934996","co38965","norming","","","{""curiosity"":2,""confidence"":1}","[0,1]","../img/tt/1260tt.jpg","",""
"2940.1999999999534","","","recognition","survey-text","443","1477022","0.0-6.0-3.62","2934996","co38965","norming","","","{""guess"":""zaklamp""}","","../img/tt/1260tt.jpg","",""
"null","../img/gs/1260gs.jpg","null","reveal","image-keyboard-response","444","1479025","0.0-6.0-4.62","2934996","co38965","norming","","","","","","",""
"null","../img/tt/1260tt.jpg","null","mooney2","image-keyboard-response","445","1481027","0.0-6.0-5.62","2934996","co38965","norming","","","","","","",""
"6923.100000000093","","","post_reveal_questions","survey-likert","446","1487958","0.0-6.0-6.62","2934996","co38965","norming","","","{""aha"":4}","[0]","../img/tt/1260tt.jpg","",""
"null","<div style=""font-size:60px;""> </div>","null","fixation","html-keyboard-response","447","1488162","0.0-6.0-0.63","2934996","co38965","norming","","","","","","",""
"null","../img/tt/380tt.jpg","null","mooney1","image-keyboard-response","448","1491165","0.0-6.0-1.63","2934996","co38965","norming","","","","","","",""
"6398","","","post_mooney1_questions","survey-likert","449","1497569","0.0-6.0-2.63","2934996","co38965","norming","","","{""curiosity"":2,""confidence"":0}","[0,1]","../img/tt/380tt.jpg","",""
"2459.8000000002794","","","recognition","survey-text","450","1500040","0.0-6.0-3.63","2934996","co38965","norming","","","{""guess"":""rat""}","","../img/tt/380tt.jpg","",""
"null","../img/gs/380gs.jpg","null","reveal","image-keyboard-response","451","1502043","0.0-6.0-4.63","2934996","co38965","norming","","","","","","",""
"null","../img/tt/380tt.jpg","null","mooney2","image-keyboard-response","452","1504045","0.0-6.0-5.63","2934996","co38965","norming","","","","","","",""
"4255.100000000093","","","post_reveal_questions","survey-likert","453","1508302","0.0-6.0-6.63","2934996","co38965","norming","","","{""aha"":0}","[0]","../img/tt/380tt.jpg","",""
"null","<div style=""font-size:60px;""> </div>","null","fixation","html-keyboard-response","454","1508505","0.0-6.0-0.64","2934996","co38965","norming","","","","","","",""
"null","../img/tt/1239tt.jpg","null","mooney1","image-keyboard-response","455","1511508","0.0-6.0-1.64","2934996","co38965","norming","","","","","","",""
"5535.500000000233","","","post_mooney1_questions","survey-likert","456","1517046","0.0-6.0-2.64","2934996","co38965","norming","","","{""curiosity"":3,""confidence"":5}","[0,1]","../img/tt/1239tt.jpg","",""
"2658.100000000093","","","recognition","survey-text","457","1519714","0.0-6.0-3.64","2934996","co38965","norming","","","{""guess"":""hond""}","","../img/tt/1239tt.jpg","",""
"null","../img/gs/1239gs.jpg","null","reveal","image-keyboard-response","458","1521716","0.0-6.0-4.64","2934996","co38965","norming","","","","","","",""
"null","../img/tt/1239tt.jpg","null","mooney2","image-keyboard-response","459","1523718","0.0-6.0-5.64","2934996","co38965","norming","","","","","","",""
"4123.699999999953","","","post_reveal_questions","survey-likert","460","1527844","0.0-6.0-6.64","2934996","co38965","norming","","","{""aha"":2}","[0]","../img/tt/1239tt.jpg","",""
"null","<div style=""font-size:60px;""> </div>","null","fixation","html-keyboard-response","461","1528053","0.0-6.0-0.65","2934996","co38965","norming","","","","","","",""
"null","../img/tt/1278tt.jpg","null","mooney1","image-keyboard-response","462","1531055","0.0-6.0-1.65","2934996","co38965","norming","","","","","","",""
"5184.40000000014","","","post_mooney1_questions","survey-likert","463","1536242","0.0-6.0-2.65","2934996","co38965","norming","","","{""curiosity"":2,""confidence"":0}","[0,1]","../img/tt/1278tt.jpg","",""
"2627.399999999907","","","recognition","survey-text","464","1538883","0.0-6.0-3.65","2934996","co38965","norming","","","{""guess"":""hond""}","","../img/tt/1278tt.jpg","",""
"null","../img/gs/1278gs.jpg","null","reveal","image-keyboard-response","465","1540886","0.0-6.0-4.65","2934996","co38965","norming","","","","","","",""
"null","../img/tt/1278tt.jpg","null","mooney2","image-keyboard-response","466","1542888","0.0-6.0-5.65","2934996","co38965","norming","","","","","","",""
"3648","","","post_reveal_questions","survey-likert","467","1546538","0.0-6.0-6.65","2934996","co38965","norming","","","{""aha"":2}","[0]","../img/tt/1278tt.jpg","",""
"null","<div style=""font-size:60px;""> </div>","null","fixation","html-keyboard-response","468","1546740","0.0-6.0-0.66","2934996","co38965","norming","","","","","","",""
"null","../img/tt/1102tt.jpg","null","mooney1","image-keyboard-response","469","1549743","0.0-6.0-1.66","2934996","co38965","norming","","","","","","",""
"4509.5","","","post_mooney1_questions","survey-likert","470","1554254","0.0-6.0-2.66","2934996","co38965","norming","","","{""curiosity"":2,""confidence"":0}","[0,1]","../img/tt/1102tt.jpg","",""
"2894.899999999907","","","recognition","survey-text","471","1557159","0.0-6.0-3.66","2934996","co38965","norming","","","{""guess"":""bomen""}","","../img/tt/1102tt.jpg","",""
"null","../img/gs/1102gs.jpg","null","reveal","image-keyboard-response","472","1559162","0.0-6.0-4.66","2934996","co38965","norming","","","","","","",""
"null","../img/tt/1102tt.jpg","null","mooney2","image-keyboard-response","473","1561164","0.0-6.0-5.66","2934996","co38965","norming","","","","","","",""
"4192.399999999907","","","post_reveal_questions","survey-likert","474","1565358","0.0-6.0-6.66","2934996","co38965","norming","","","{""aha"":1}","[0]","../img/tt/1102tt.jpg","",""
"null","<div style=""font-size:60px;""> </div>","null","fixation","html-keyboard-response","475","1565562","0.0-6.0-0.67","2934996","co38965","norming","","","","","","",""
"null","../img/tt/1091tt.jpg","null","mooney1","image-keyboard-response","476","1568564","0.0-6.0-1.67","2934996","co38965","norming","","","","","","",""
"4876.399999999907","","","post_mooney1_questions","survey-likert","477","1573443","0.0-6.0-2.67","2934996","co38965","norming","","","{""curiosity"":2,""confidence"":5}","[0,1]","../img/tt/1091tt.jpg","",""
"2821.5","","","recognition","survey-text","478","1576276","0.0-6.0-3.67","2934996","co38965","norming","","","{""guess"":""paard""}","","../img/tt/1091tt.jpg","",""
"null","../img/gs/1091gs.jpg","null","reveal","image-keyboard-response","479","1578279","0.0-6.0-4.67","2934996","co38965","norming","","","","","","",""
"null","../img/tt/1091tt.jpg","null","mooney2","image-keyboard-response","480","1580282","0.0-6.0-5.67","2934996","co38965","norming","","","","","","",""
"2948.399999999907","","","post_reveal_questions","survey-likert","481","1583232","0.0-6.0-6.67","2934996","co38965","norming","","","{""aha"":3}","[0]","../img/tt/1091tt.jpg","",""
"null","<div style=""font-size:60px;""> </div>","null","fixation","html-keyboard-response","482","1583436","0.0-6.0-0.68","2934996","co38965","norming","","","","","","",""
"null","../img/tt/1276tt.jpg","null","mooney1","image-keyboard-response","483","1586437","0.0-6.0-1.68","2934996","co38965","norming","","","","","","",""
"5157.199999999953","","","post_mooney1_questions","survey-likert","484","1591597","0.0-6.0-2.68","2934996","co38965","norming","","","{""curiosity"":4,""confidence"":1}","[0,1]","../img/tt/1276tt.jpg","",""
"2820.100000000093","","","recognition","survey-text","485","1594428","0.0-6.0-3.68","2934996","co38965","norming","","","{""guess"":""vogel""}","","../img/tt/1276tt.jpg","",""
"null","../img/gs/1276gs.jpg","null","reveal","image-keyboard-response","486","1596431","0.0-6.0-4.68","2934996","co38965","norming","","","","","","",""
"null","../img/tt/1276tt.jpg","null","mooney2","image-keyboard-response","487","1598433","0.0-6.0-5.68","2934996","co38965","norming","","","","","","",""
"4947.299999999814","","","post_reveal_questions","survey-likert","488","1603382","0.0-6.0-6.68","2934996","co38965","norming","","","{""aha"":1}","[0]","../img/tt/1276tt.jpg","",""
"null","<div style=""font-size:60px;""> </div>","null","fixation","html-keyboard-response","489","1603587","0.0-6.0-0.69","2934996","co38965","norming","","","","","","",""
"null","../img/tt/063tt.jpg","null","mooney1","image-keyboard-response","490","1606589","0.0-6.0-1.69","2934996","co38965","norming","","","","","","",""
"4903.40000000014","","","post_mooney1_questions","survey-likert","491","1611495","0.0-6.0-2.69","2934996","co38965","norming","","","{""curiosity"":1,""confidence"":1}","[0,1]","../img/tt/063tt.jpg","",""
"6426.499999999767","","","recognition","survey-text","492","1617931","0.0-6.0-3.69","2934996","co38965","norming","","","{""guess"":""telefoon""}","","../img/tt/063tt.jpg","",""
"null","../img/gs/063gs.jpg","null","reveal","image-keyboard-response","493","1619934","0.0-6.0-4.69","2934996","co38965","norming","","","","","","",""
"null","../img/tt/063tt.jpg","null","mooney2","image-keyboard-response","494","1621936","0.0-6.0-5.69","2934996","co38965","norming","","","","","","",""
"2606.499999999767","","","post_reveal_questions","survey-likert","495","1624545","0.0-6.0-6.69","2934996","co38965","norming","","","{""aha"":2}","[0]","../img/tt/063tt.jpg","",""
"null","<div style=""font-size:60px;""> </div>","null","fixation","html-keyboard-response","496","1624748","0.0-6.0-0.70","2934996","co38965","norming","","","","","","",""
"null","../img/tt/517tt.jpg","null","mooney1","image-keyboard-response","497","1627750","0.0-6.0-1.70","2934996","co38965","norming","","","","","","",""
"5832.800000000047","","","post_mooney1_questions","survey-likert","498","1633585","0.0-6.0-2.70","2934996","co38965","norming","","","{""curiosity"":1,""confidence"":3}","[0,1]","../img/tt/517tt.jpg","",""
"3444.7000000001863","","","recognition","survey-text","499","1637039","0.0-6.0-3.70","2934996","co38965","norming","","","{""guess"":""varken""}","","../img/tt/517tt.jpg","",""
"null","../img/gs/517gs.jpg","null","reveal","image-keyboard-response","500","1639042","0.0-6.0-4.70","2934996","co38965","norming","","","","","","",""
"null","../img/tt/517tt.jpg","null","mooney2","image-keyboard-response","501","1641045","0.0-6.0-5.70","2934996","co38965","norming","","","","","","",""
"2835.399999999907","","","post_reveal_questions","survey-likert","502","1643887","0.0-6.0-6.70","2934996","co38965","norming","","","{""aha"":2}","[0]","../img/tt/517tt.jpg","",""
"null","<div style=""font-size:60px;""> </div>","null","fixation","html-keyboard-response","503","1644090","0.0-6.0-0.71","2934996","co38965","norming","","","","","","",""
"null","../img/tt/053tt.jpg","null","mooney1","image-keyboard-response","504","1647093","0.0-6.0-1.71","2934996","co38965","norming","","","","","","",""
"8638.40000000014","","","post_mooney1_questions","survey-likert","505","1655734","0.0-6.0-2.71","2934996","co38965","norming","","","{""curiosity"":2,""confidence"":3}","[0,1]","../img/tt/053tt.jpg","",""
"3813.3000000000466","","","recognition","survey-text","506","1659560","0.0-6.0-3.71","2934996","co38965","norming","","","{""guess"":""kajak""}","","../img/tt/053tt.jpg","",""
"null","../img/gs/053gs.jpg","null","reveal","image-keyboard-response","507","1661563","0.0-6.0-4.71","2934996","co38965","norming","","","","","","",""
"null","../img/tt/053tt.jpg","null","mooney2","image-keyboard-response","508","1663565","0.0-6.0-5.71","2934996","co38965","norming","","","","","","",""
"8238.5","","","post_reveal_questions","survey-likert","509","1671805","0.0-6.0-6.71","2934996","co38965","norming","","","{""aha"":1}","[0]","../img/tt/053tt.jpg","",""
"null","<div style=""font-size:60px;""> </div>","null","fixation","html-keyboard-response","510","1672009","0.0-6.0-0.72","2934996","co38965","norming","","","","","","",""
"null","../img/tt/584tt.jpg","null","mooney1","image-keyboard-response","511","1675012","0.0-6.0-1.72","2934996","co38965","norming","","","","","","",""
"4813.899999999907","","","post_mooney1_questions","survey-likert","512","1679828","0.0-6.0-2.72","2934996","co38965","norming","","","{""curiosity"":3,""confidence"":1}","[0,1]","../img/tt/584tt.jpg","",""
"2787","","","recognition","survey-text","513","1682626","0.0-6.0-3.72","2934996","co38965","norming","","","{""guess"":""plyers""}","","../img/tt/584tt.jpg","",""
"null","../img/gs/584gs.jpg","null","reveal","image-keyboard-response","514","1684629","0.0-6.0-4.72","2934996","co38965","norming","","","","","","",""
"null","../img/tt/584tt.jpg","null","mooney2","image-keyboard-response","515","1686631","0.0-6.0-5.72","2934996","co38965","norming","","","","","","",""
"3738.7000000001863","","","post_reveal_questions","survey-likert","516","1690372","0.0-6.0-6.72","2934996","co38965","norming","","","{""aha"":4}","[0]","../img/tt/584tt.jpg","",""
"null","<div style=""font-size:60px;""> </div>","null","fixation","html-keyboard-response","517","1690575","0.0-6.0-0.73","2934996","co38965","norming","","","","","","",""
"null","../img/tt/140tt.jpg","null","mooney1","image-keyboard-response","518","1693577","0.0-6.0-1.73","2934996","co38965","norming","","","","","","",""
"4363.199999999953","","","post_mooney1_questions","survey-likert","519","1697942","0.0-6.0-2.73","2934996","co38965","norming","","","{""curiosity"":2,""confidence"":5}","[0,1]","../img/tt/140tt.jpg","",""
"3984.6999999999534","","","recognition","survey-text","520","1701938","0.0-6.0-3.73","2934996","co38965","norming","","","{""guess"":""vorken""}","","../img/tt/140tt.jpg","",""
"null","../img/gs/140gs.jpg","null","reveal","image-keyboard-response","521","1703941","0.0-6.0-4.73","2934996","co38965","norming","","","","","","",""
"null","../img/tt/140tt.jpg","null","mooney2","image-keyboard-response","522","1705943","0.0-6.0-5.73","2934996","co38965","norming","","","","","","",""
"7016","","","post_reveal_questions","survey-likert","523","1712961","0.0-6.0-6.73","2934996","co38965","norming","","","{""aha"":2}","[0]","../img/tt/140tt.jpg","",""
"null","<div style=""font-size:60px;""> </div>","null","fixation","html-keyboard-response","524","1713166","0.0-6.0-0.74","2934996","co38965","norming","","","","","","",""
"null","../img/tt/112tt.jpg","null","mooney1","image-keyboard-response","525","1716168","0.0-6.0-1.74","2934996","co38965","norming","","","","","","",""
"4424","","","post_mooney1_questions","survey-likert","526","1720595","0.0-6.0-2.74","2934996","co38965","norming","","","{""curiosity"":2,""confidence"":1}","[0,1]","../img/tt/112tt.jpg","",""
"2703.2999999998137","","","recognition","survey-text","527","1723307","0.0-6.0-3.74","2934996","co38965","norming","","","{""guess"":""rasp""}","","../img/tt/112tt.jpg","",""
"null","../img/gs/112gs.jpg","null","reveal","image-keyboard-response","528","1725311","0.0-6.0-4.74","2934996","co38965","norming","","","","","","",""
"null","../img/tt/112tt.jpg","null","mooney2","image-keyboard-response","529","1727313","0.0-6.0-5.74","2934996","co38965","norming","","","","","","",""
"8068.699999999953","","","post_reveal_questions","survey-likert","530","1735384","0.0-6.0-6.74","2934996","co38965","norming","","","{""aha"":1}","[0]","../img/tt/112tt.jpg","",""
"null","<div style=""font-size:60px;""> </div>","null","fixation","html-keyboard-response","531","1735587","0.0-6.0-0.75","2934996","co38965","norming","","","","","","",""
"null","../img/tt/044tt.jpg","null","mooney1","image-keyboard-response","532","1738590","0.0-6.0-1.75","2934996","co38965","norming","","","","","","",""
"10168.699999999953","","","post_mooney1_questions","survey-likert","533","1748761","0.0-6.0-2.75","2934996","co38965","norming","","","{""curiosity"":1,""confidence"":0}","[0,1]","../img/tt/044tt.jpg","",""
"4045.399999999907","","","recognition","survey-text","534","1752817","0.0-6.0-3.75","2934996","co38965","norming","","","{""guess"":""/""}","","../img/tt/044tt.jpg","",""
"null","../img/gs/044gs.jpg","null","reveal","image-keyboard-response","535","1754821","0.0-6.0-4.75","2934996","co38965","norming","","","","","","",""
"null","../img/tt/044tt.jpg","null","mooney2","image-keyboard-response","536","1756823","0.0-6.0-5.75","2934996","co38965","norming","","","","","","",""
"3134.100000000093","","","post_reveal_questions","survey-likert","537","1759959","0.0-6.0-6.75","2934996","co38965","norming","","","{""aha"":1}","[0]","../img/tt/044tt.jpg","",""
"null","<div style=""font-size:60px;""> </div>","null","fixation","html-keyboard-response","538","1760163","0.0-6.0-0.76","2934996","co38965","norming","","","","","","",""
"null","../img/tt/315tt.jpg","null","mooney1","image-keyboard-response","539","1763165","0.0-6.0-1.76","2934996","co38965","norming","","","","","","",""
"5357","","","post_mooney1_questions","survey-likert","540","1768524","0.0-6.0-2.76","2934996","co38965","norming","","","{""curiosity"":2,""confidence"":1}","[0,1]","../img/tt/315tt.jpg","",""
"2145.4000000001397","","","recognition","survey-text","541","1770682","0.0-6.0-3.76","2934996","co38965","norming","","","{""guess"":""rots""}","","../img/tt/315tt.jpg","",""
"null","../img/gs/315gs.jpg","null","reveal","image-keyboard-response","542","1772685","0.0-6.0-4.76","2934996","co38965","norming","","","","","","",""
"null","../img/tt/315tt.jpg","null","mooney2","image-keyboard-response","543","1774687","0.0-6.0-5.76","2934996","co38965","norming","","","","","","",""
"14338.700000000186","","","post_reveal_questions","survey-likert","544","1789034","0.0-6.0-6.76","2934996","co38965","norming","","","{""aha"":2}","[0]","../img/tt/315tt.jpg","",""
"null","<div style=""font-size:60px;""> </div>","null","fixation","html-keyboard-response","545","1789238","0.0-6.0-0.77","2934996","co38965","norming","","","","","","",""
"null","../img/tt/060tt.jpg","null","mooney1","image-keyboard-response","546","1792245","0.0-6.0-1.77","2934996","co38965","norming","","","","","","",""
"3718.1999999999534","","","post_mooney1_questions","survey-likert","547","1795965","0.0-6.0-2.77","2934996","co38965","norming","","","{""curiosity"":1,""confidence"":1}","[0,1]","../img/tt/060tt.jpg","",""
"3307.1999999999534","","","recognition","survey-text","548","1799284","0.0-6.0-3.77","2934996","co38965","norming","","","{""guess"":""kever""}","","../img/tt/060tt.jpg","",""
"null","../img/gs/060gs.jpg","null","reveal","image-keyboard-response","549","1801286","0.0-6.0-4.77","2934996","co38965","norming","","","","","","",""
"null","../img/tt/060tt.jpg","null","mooney2","image-keyboard-response","550","1803288","0.0-6.0-5.77","2934996","co38965","norming","","","","","","",""
"2360.100000000093","","","post_reveal_questions","survey-likert","551","1805650","0.0-6.0-6.77","2934996","co38965","norming","","","{""aha"":1}","[0]","../img/tt/060tt.jpg","",""
"null","<div style=""font-size:60px;""> </div>","null","fixation","html-keyboard-response","552","1805854","0.0-6.0-0.78","2934996","co38965","norming","","","","","","",""
"null","../img/tt/1283tt.jpg","null","mooney1","image-keyboard-response","553","1808856","0.0-6.0-1.78","2934996","co38965","norming","","","","","","",""
