"rt","stimulus","key_press","test_part","trial_type","trial_index","time_elapsed","internal_node_id","totalTime","subject","experiment_name","button_pressed","success","responses","question_order","currentStim","old","correct"
"8009.014999959618","Welcome to the experiment. This is an online experiment so please don't close the tab/window until we say goodbye.  Press any key to begin.","32","instructions","html-keyboard-response","0","8108","0.0-0.0","4051722","co38683","norming","","","","","","",""
"4133.739999961108","<div style='word-wrap: break-word; width: 900px'><h3>Please consider this information carefully before deciding whether to participate in this research</h3><ul style='text-align: left; font-size: .8em;'><li><b>Purpose of the research</b>: To examine how people process images.</li><li><b>What you will do in this research</b>:  Stimuli (images) will be presented on the computer and you will be asked different questions about them.</li><li><b>Time required</b>: Participation will take between 45 and 60 minutes to complete.</li><li><b>Risks</b>:  There are no anticipated risks associated with participating in this study. The effects of participating should be comparable to those you would experience from viewing a computer monitor for 30 minutes and using a mouse or keyboard.</li><li><b>Benefits</b>:  This study provides no benefits to you individually except for the credit. The study provides important information about the nature of perception and learning.</li><li><b>Confidentiality</b>:  Your participation in this study will remain confidential. No personally identifiable information will be associated with your data. Your de-identified data may be shared with other researchers and used in future projects.</li><li><b>Participation and withdrawal</b>:  Your participation in this study is completely voluntary and you may refuse to participate or you may choose to withdraw at any time without penalty.</li><li><b>How to contact the researchers</b>: If you have questions or concerns about your participation or payment, or want to request a summary of research findings, please contact Sander Van de Cruys (KU Leuven), at sander.vandecruys@kuleuven.be.</li></ul><p>The nature and purpose of this research have been sufficiently explained and I agree to participate in this study.  I understand that I am free to withdraw at any time without incurring any penalty.</p><p>Please consent by clicking the button below to continue. Otherwise, please exit the study at this time.</p></div>","","instructions","html-button-response","1","12247","0.0-1.0","4051722","co38683","norming","0","","","","","",""
"","","","instructions","fullscreen","2","16256","0.0-2.0","4051722","co38683","norming","","true","","","","",""
"206198.8049999345","","","sona","survey-html-form","3","222461","0.0-3.0","4051722","co38683","norming","","","[{""name"":""sonaid"",""value"":""38683""},{""name"":""debrief"",""value"":""yes""},{""name"":""datajoin"",""value"":""yes""}]","","","",""
"113451.69999997597","<div style='word-wrap: break-word; width: 900px'><h3>Instructions</h3><p>This experiment will have 3 parts. In the first part you will see a series of distorted images like the one below on the left. As you can see in the righthand image, the distorted images are derived from actual photographs. In what follows, you will <strong>briefly</strong> be presented with <strong>only</strong> the distorted image.</p> <div style='float: left; margin-right: 20px;'><img src='../img/018tt.jpg' height='250' width='250'></img></div><div style='float: right; margin-left: 20px;'><img src='../img/018gs.jpg' height='250' width='250'></img></div><p>Subsequently you will be asked a few questions about the image: One question on how <strong>curious</strong> you are about the solution and one on how <strong>confident</strong> you are that you know the solution.</p>Next, we ask you to make a guess on what is in the image. Note that it is OK to name just the <strong>basic level category</strong>. For example when you see a parrot in the image, 'parrot' will obviously be a correct answer but also correct is 'bird'. However, 'animal' will <strong>not</strong> be counted as a correct response. For the example above, 'rose' would be correct or 'flower', but not 'plant'. When soccer players are depicted, 'soccer', 'football', 'soccer players' will be correct, but not 'humans', 'outdoors', or 'sports'. You do not need to describe the image in full, just name the main object in it <strong>in one or two words</strong>. All images depict objects from one of the following broad level categories: animals, inanimate objects, plants, sports, vehicles, and food. Recognizing means knowing <strong>more</strong> than these broad labels for a given image. But we always encourage you to <strong>make a guess</strong> if you can. Note that you are allowed to use <strong>Dutch and English</strong> in your answers, whatever comes easiest for you.</p><p>Press any key to continue.</p></div>","122","instructions","html-keyboard-response","4","335919","0.0-4.0","4051722","co38683","norming","","","","","","",""
"23648.000000044703","<div style='word-wrap: break-word; width: 900px'><h3>Instructions</h3> <p>Next, the solution image will be revealed to you and you'll be asked to indicate how strong your <strong>aha-experience</strong> was after seeing the solution. This describes the positive feeling of the 'click' you sometimes experience, when the pieces of the 'puzzle' fall together and you suddenly have 'insight' in the image.</p><img src='aha.jpg' height='188' width='250'></img><p>Note that there are no right or wrong answers. We are interested in what <strong>you</strong> see in the image and how <strong>you</strong> feel about it.</p><p>Press any key to start the experiment.</p></div>","18","instructions","html-keyboard-response","5","359570","0.0-5.0","4051722","co38683","norming","","","","","","",""
"null","<div style=""font-size:60px;""> </div>","null","fixation","html-keyboard-response","6","359772","0.0-6.0-0.0","4051722","co38683","norming","","","","","","",""
"null","../img/tt/052tt.jpg","null","mooney1","image-keyboard-response","7","362778","0.0-6.0-1.0","4051722","co38683","norming","","","","","","",""
"6798.4700000379235","","","post_mooney1_questions","survey-likert","8","369582","0.0-6.0-2.0","4051722","co38683","norming","","","{""curiosity"":4,""confidence"":4}","[0,1]","../img/tt/052tt.jpg","",""
"7715.124999987893","","","recognition","survey-text","9","377301","0.0-6.0-3.0","4051722","co38683","norming","","","{""guess"":""beef""}","","../img/tt/052tt.jpg","",""
"null","../img/gs/052gs.jpg","null","reveal","image-keyboard-response","10","379303","0.0-6.0-4.0","4051722","co38683","norming","","","","","","",""
"null","../img/tt/052tt.jpg","null","mooney2","image-keyboard-response","11","381306","0.0-6.0-5.0","4051722","co38683","norming","","","","","","",""
"4967.4449999583885","","","post_reveal_questions","survey-likert","12","386277","0.0-6.0-6.0","4051722","co38683","norming","","","{""aha"":6}","[0]","../img/tt/052tt.jpg","",""
"null","<div style=""font-size:60px;""> </div>","null","fixation","html-keyboard-response","13","386484","0.0-6.0-0.1","4051722","co38683","norming","","","","","","",""
"null","../img/tt/1024tt.jpg","null","mooney1","image-keyboard-response","14","389486","0.0-6.0-1.1","4051722","co38683","norming","","","","","","",""
"11879.729999927804","","","post_mooney1_questions","survey-likert","15","401370","0.0-6.0-2.1","4051722","co38683","norming","","","{""curiosity"":4,""confidence"":1}","[0,1]","../img/tt/1024tt.jpg","",""
"4693.5649999650195","","","recognition","survey-text","16","406071","0.0-6.0-3.1","4051722","co38683","norming","","","{""guess"":""squirrel""}","","../img/tt/1024tt.jpg","",""
"null","../img/gs/1024gs.jpg","null","reveal","image-keyboard-response","17","408076","0.0-6.0-4.1","4051722","co38683","norming","","","","","","",""
"null","../img/tt/1024tt.jpg","null","mooney2","image-keyboard-response","18","410079","0.0-6.0-5.1","4051722","co38683","norming","","","","","","",""
"3882.080000010319","","","post_reveal_questions","survey-likert","19","413965","0.0-6.0-6.1","4051722","co38683","norming","","","{""aha"":6}","[0]","../img/tt/1024tt.jpg","",""
"null","<div style=""font-size:60px;""> </div>","null","fixation","html-keyboard-response","20","414170","0.0-6.0-0.2","4051722","co38683","norming","","","","","","",""
"null","../img/tt/1290tt.jpg","null","mooney1","image-keyboard-response","21","417175","0.0-6.0-1.2","4051722","co38683","norming","","","","","","",""
"14933.025000034831","","","post_mooney1_questions","survey-likert","22","432114","0.0-6.0-2.2","4051722","co38683","norming","","","{""curiosity"":5,""confidence"":0}","[0,1]","../img/tt/1290tt.jpg","",""
"10689.434999949299","","","recognition","survey-text","23","442810","0.0-6.0-3.2","4051722","co38683","norming","","","{""guess"":""three""}","","../img/tt/1290tt.jpg","",""
"null","../img/gs/1290gs.jpg","null","reveal","image-keyboard-response","24","444814","0.0-6.0-4.2","4051722","co38683","norming","","","","","","",""
"null","../img/tt/1290tt.jpg","null","mooney2","image-keyboard-response","25","446817","0.0-6.0-5.2","4051722","co38683","norming","","","","","","",""
"5897.150000091642","","","post_reveal_questions","survey-likert","26","452718","0.0-6.0-6.2","4051722","co38683","norming","","","{""aha"":5}","[0]","../img/tt/1290tt.jpg","",""
"null","<div style=""font-size:60px;""> </div>","null","fixation","html-keyboard-response","27","452922","0.0-6.0-0.3","4051722","co38683","norming","","","","","","",""
"null","../img/tt/301tt.jpg","null","mooney1","image-keyboard-response","28","455927","0.0-6.0-1.3","4051722","co38683","norming","","","","","","",""
"7517.4150000093505","","","post_mooney1_questions","survey-likert","29","463448","0.0-6.0-2.3","4051722","co38683","norming","","","{""curiosity"":5,""confidence"":1}","[0,1]","../img/tt/301tt.jpg","",""
"3254.229999962263","","","recognition","survey-text","30","466706","0.0-6.0-3.3","4051722","co38683","norming","","","{""guess"":""cinema""}","","../img/tt/301tt.jpg","",""
"null","../img/gs/301gs.jpg","null","reveal","image-keyboard-response","31","468709","0.0-6.0-4.3","4051722","co38683","norming","","","","","","",""
"null","../img/tt/301tt.jpg","null","mooney2","image-keyboard-response","32","470713","0.0-6.0-5.3","4051722","co38683","norming","","","","","","",""
"3298.9049999741837","","","post_reveal_questions","survey-likert","33","474016","0.0-6.0-6.3","4051722","co38683","norming","","","{""aha"":5}","[0]","../img/tt/301tt.jpg","",""
"null","<div style=""font-size:60px;""> </div>","null","fixation","html-keyboard-response","34","474221","0.0-6.0-0.4","4051722","co38683","norming","","","","","","",""
"null","../img/tt/1283tt.jpg","null","mooney1","image-keyboard-response","35","477224","0.0-6.0-1.4","4051722","co38683","norming","","","","","","",""
"11689.899999997579","","","post_mooney1_questions","survey-likert","36","488919","0.0-6.0-2.4","4051722","co38683","norming","","","{""curiosity"":5,""confidence"":1}","[0,1]","../img/tt/1283tt.jpg","",""
"3568.8300000038","","","recognition","survey-text","37","492495","0.0-6.0-3.4","4051722","co38683","norming","","","{""guess"":""forest""}","","../img/tt/1283tt.jpg","",""
"null","../img/gs/1283gs.jpg","null","reveal","image-keyboard-response","38","494497","0.0-6.0-4.4","4051722","co38683","norming","","","","","","",""
"null","../img/tt/1283tt.jpg","null","mooney2","image-keyboard-response","39","496501","0.0-6.0-5.4","4051722","co38683","norming","","","","","","",""
"11678.67000005208","","","post_reveal_questions","survey-likert","40","508182","0.0-6.0-6.4","4051722","co38683","norming","","","{""aha"":1}","[0]","../img/tt/1283tt.jpg","",""
"null","<div style=""font-size:60px;""> </div>","null","fixation","html-keyboard-response","41","508385","0.0-6.0-0.5","4051722","co38683","norming","","","","","","",""
"null","../img/tt/1251tt.jpg","null","mooney1","image-keyboard-response","42","511389","0.0-6.0-1.5","4051722","co38683","norming","","","","","","",""
"26215.745000052266","","","post_mooney1_questions","survey-likert","43","537609","0.0-6.0-2.5","4051722","co38683","norming","","","{""curiosity"":5,""confidence"":0}","[0,1]","../img/tt/1251tt.jpg","",""
"5521.719999960624","","","recognition","survey-text","44","543139","0.0-6.0-3.5","4051722","co38683","norming","","","{""guess"":""bush""}","","../img/tt/1251tt.jpg","",""
"null","../img/gs/1251gs.jpg","null","reveal","image-keyboard-response","45","545142","0.0-6.0-4.5","4051722","co38683","norming","","","","","","",""
"null","../img/tt/1251tt.jpg","null","mooney2","image-keyboard-response","46","547146","0.0-6.0-5.5","4051722","co38683","norming","","","","","","",""
"3636.930000036955","","","post_reveal_questions","survey-likert","47","550787","0.0-6.0-6.5","4051722","co38683","norming","","","{""aha"":5}","[0]","../img/tt/1251tt.jpg","",""
"null","<div style=""font-size:60px;""> </div>","null","fixation","html-keyboard-response","48","550990","0.0-6.0-0.6","4051722","co38683","norming","","","","","","",""
"null","../img/tt/307tt.jpg","null","mooney1","image-keyboard-response","49","553993","0.0-6.0-1.6","4051722","co38683","norming","","","","","","",""
"7417.454999987967","","","post_mooney1_questions","survey-likert","50","561415","0.0-6.0-2.6","4051722","co38683","norming","","","{""curiosity"":5,""confidence"":0}","[0,1]","../img/tt/307tt.jpg","",""
"4383.474999922328","","","recognition","survey-text","51","565801","0.0-6.0-3.6","4051722","co38683","norming","","","{""guess"":""henche""}","","../img/tt/307tt.jpg","",""
"null","../img/gs/307gs.jpg","null","reveal","image-keyboard-response","52","567804","0.0-6.0-4.6","4051722","co38683","norming","","","","","","",""
"null","../img/tt/307tt.jpg","null","mooney2","image-keyboard-response","53","569807","0.0-6.0-5.6","4051722","co38683","norming","","","","","","",""
"3801.7199999885634","","","post_reveal_questions","survey-likert","54","573612","0.0-6.0-6.6","4051722","co38683","norming","","","{""aha"":5}","[0]","../img/tt/307tt.jpg","",""
"null","<div style=""font-size:60px;""> </div>","null","fixation","html-keyboard-response","55","573816","0.0-6.0-0.7","4051722","co38683","norming","","","","","","",""
"null","../img/tt/524tt.jpg","null","mooney1","image-keyboard-response","56","576820","0.0-6.0-1.7","4051722","co38683","norming","","","","","","",""
"5745.375000056811","","","post_mooney1_questions","survey-likert","57","582570","0.0-6.0-2.7","4051722","co38683","norming","","","{""curiosity"":5,""confidence"":0}","[0,1]","../img/tt/524tt.jpg","",""
"4102.804999914952","","","recognition","survey-text","58","586680","0.0-6.0-3.7","4051722","co38683","norming","","","{""guess"":""olifant""}","","../img/tt/524tt.jpg","",""
"null","../img/gs/524gs.jpg","null","reveal","image-keyboard-response","59","588683","0.0-6.0-4.7","4051722","co38683","norming","","","","","","",""
"null","../img/tt/524tt.jpg","null","mooney2","image-keyboard-response","60","590686","0.0-6.0-5.7","4051722","co38683","norming","","","","","","",""
"4027.0650000311434","","","post_reveal_questions","survey-likert","61","594715","0.0-6.0-6.7","4051722","co38683","norming","","","{""aha"":5}","[0]","../img/tt/524tt.jpg","",""
"null","<div style=""font-size:60px;""> </div>","null","fixation","html-keyboard-response","62","594920","0.0-6.0-0.8","4051722","co38683","norming","","","","","","",""
"null","../img/tt/515tt.jpg","null","mooney1","image-keyboard-response","63","597924","0.0-6.0-1.8","4051722","co38683","norming","","","","","","",""
"6563.809999963269","","","post_mooney1_questions","survey-likert","64","604493","0.0-6.0-2.8","4051722","co38683","norming","","","{""curiosity"":5,""confidence"":1}","[0,1]","../img/tt/515tt.jpg","",""
"2983.0549999605864","","","recognition","survey-text","65","607483","0.0-6.0-3.8","4051722","co38683","norming","","","{""guess"":""piano""}","","../img/tt/515tt.jpg","",""
"null","../img/gs/515gs.jpg","null","reveal","image-keyboard-response","66","609486","0.0-6.0-4.8","4051722","co38683","norming","","","","","","",""
"null","../img/tt/515tt.jpg","null","mooney2","image-keyboard-response","67","611490","0.0-6.0-5.8","4051722","co38683","norming","","","","","","",""
"4629.635000019334","","","post_reveal_questions","survey-likert","68","616123","0.0-6.0-6.8","4051722","co38683","norming","","","{""aha"":5}","[0]","../img/tt/515tt.jpg","",""
"null","<div style=""font-size:60px;""> </div>","null","fixation","html-keyboard-response","69","616332","0.0-6.0-0.9","4051722","co38683","norming","","","","","","",""
"null","../img/tt/1070tt.jpg","null","mooney1","image-keyboard-response","70","619335","0.0-6.0-1.9","4051722","co38683","norming","","","","","","",""
"6407.600000035018","","","post_mooney1_questions","survey-likert","71","625747","0.0-6.0-2.9","4051722","co38683","norming","","","{""curiosity"":5,""confidence"":5}","[0,1]","../img/tt/1070tt.jpg","",""
"10462.765000062063","","","recognition","survey-text","72","636212","0.0-6.0-3.9","4051722","co38683","norming","","","{""guess"":""boterham""}","","../img/tt/1070tt.jpg","",""
"null","../img/gs/1070gs.jpg","null","reveal","image-keyboard-response","73","638216","0.0-6.0-4.9","4051722","co38683","norming","","","","","","",""
"null","../img/tt/1070tt.jpg","null","mooney2","image-keyboard-response","74","640218","0.0-6.0-5.9","4051722","co38683","norming","","","","","","",""
"3232.9449999378994","","","post_reveal_questions","survey-likert","75","643455","0.0-6.0-6.9","4051722","co38683","norming","","","{""aha"":3}","[0]","../img/tt/1070tt.jpg","",""
"null","<div style=""font-size:60px;""> </div>","null","fixation","html-keyboard-response","76","643660","0.0-6.0-0.10","4051722","co38683","norming","","","","","","",""
"null","../img/tt/013tt.jpg","null","mooney1","image-keyboard-response","77","646664","0.0-6.0-1.10","4051722","co38683","norming","","","","","","",""
"10256.380000035278","","","post_mooney1_questions","survey-likert","78","656925","0.0-6.0-2.10","4051722","co38683","norming","","","{""curiosity"":5,""confidence"":0}","[0,1]","../img/tt/013tt.jpg","",""
"10310.135000036098","","","recognition","survey-text","79","667240","0.0-6.0-3.10","4051722","co38683","norming","","","{""guess"":""2 people""}","","../img/tt/013tt.jpg","",""
"null","../img/gs/013gs.jpg","null","reveal","image-keyboard-response","80","669243","0.0-6.0-4.10","4051722","co38683","norming","","","","","","",""
"null","../img/tt/013tt.jpg","null","mooney2","image-keyboard-response","81","671247","0.0-6.0-5.10","4051722","co38683","norming","","","","","","",""
"15476.464999956079","","","post_reveal_questions","survey-likert","82","686726","0.0-6.0-6.10","4051722","co38683","norming","","","{""aha"":5}","[0]","../img/tt/013tt.jpg","",""
"null","<div style=""font-size:60px;""> </div>","null","fixation","html-keyboard-response","83","686930","0.0-6.0-0.11","4051722","co38683","norming","","","","","","",""
"null","../img/tt/1279tt.jpg","null","mooney1","image-keyboard-response","84","689935","0.0-6.0-1.11","4051722","co38683","norming","","","","","","",""
"7665.429999935441","","","post_mooney1_questions","survey-likert","85","697602","0.0-6.0-2.11","4051722","co38683","norming","","","{""curiosity"":5,""confidence"":1}","[0,1]","../img/tt/1279tt.jpg","",""
"14821.955000050366","","","recognition","survey-text","86","712429","0.0-6.0-3.11","4051722","co38683","norming","","","{""guess"":""tuinkabouters""}","","../img/tt/1279tt.jpg","",""
"null","../img/gs/1279gs.jpg","null","reveal","image-keyboard-response","87","714433","0.0-6.0-4.11","4051722","co38683","norming","","","","","","",""
"null","../img/tt/1279tt.jpg","null","mooney2","image-keyboard-response","88","716436","0.0-6.0-5.11","4051722","co38683","norming","","","","","","",""
"4026.8899999791756","","","post_reveal_questions","survey-likert","89","720465","0.0-6.0-6.11","4051722","co38683","norming","","","{""aha"":5}","[0]","../img/tt/1279tt.jpg","",""
"null","<div style=""font-size:60px;""> </div>","null","fixation","html-keyboard-response","90","720669","0.0-6.0-0.12","4051722","co38683","norming","","","","","","",""
"null","../img/tt/1366tt.jpg","null","mooney1","image-keyboard-response","91","723673","0.0-6.0-1.12","4051722","co38683","norming","","","","","","",""
"6699.209999991581","","","post_mooney1_questions","survey-likert","92","730375","0.0-6.0-2.12","4051722","co38683","norming","","","{""curiosity"":5,""confidence"":0}","[0,1]","../img/tt/1366tt.jpg","",""
"4160.524999955669","","","recognition","survey-text","93","734543","0.0-6.0-3.12","4051722","co38683","norming","","","{""guess"":""turtle""}","","../img/tt/1366tt.jpg","",""
"null","../img/gs/1366gs.jpg","null","reveal","image-keyboard-response","94","736546","0.0-6.0-4.12","4051722","co38683","norming","","","","","","",""
"null","../img/tt/1366tt.jpg","null","mooney2","image-keyboard-response","95","738548","0.0-6.0-5.12","4051722","co38683","norming","","","","","","",""
"6476.6100000124425","","","post_reveal_questions","survey-likert","96","745028","0.0-6.0-6.12","4051722","co38683","norming","","","{""aha"":5}","[0]","../img/tt/1366tt.jpg","",""
"null","<div style=""font-size:60px;""> </div>","null","fixation","html-keyboard-response","97","745231","0.0-6.0-0.13","4051722","co38683","norming","","","","","","",""
"null","../img/tt/055tt.jpg","null","mooney1","image-keyboard-response","98","748234","0.0-6.0-1.13","4051722","co38683","norming","","","","","","",""
"4592.364999931306","","","post_mooney1_questions","survey-likert","99","752829","0.0-6.0-2.13","4051722","co38683","norming","","","{""curiosity"":5,""confidence"":5}","[0,1]","../img/tt/055tt.jpg","",""
"4713.830000022426","","","recognition","survey-text","100","757550","0.0-6.0-3.13","4051722","co38683","norming","","","{""guess"":""giraffe""}","","../img/tt/055tt.jpg","",""
"null","../img/gs/055gs.jpg","null","reveal","image-keyboard-response","101","759552","0.0-6.0-4.13","4051722","co38683","norming","","","","","","",""
"null","../img/tt/055tt.jpg","null","mooney2","image-keyboard-response","102","761556","0.0-6.0-5.13","4051722","co38683","norming","","","","","","",""
"4153.150000027381","","","post_reveal_questions","survey-likert","103","765712","0.0-6.0-6.13","4051722","co38683","norming","","","{""aha"":5}","[0]","../img/tt/055tt.jpg","",""
"null","<div style=""font-size:60px;""> </div>","null","fixation","html-keyboard-response","104","765916","0.0-6.0-0.14","4051722","co38683","norming","","","","","","",""
"null","../img/tt/189tt.jpg","null","mooney1","image-keyboard-response","105","768918","0.0-6.0-1.14","4051722","co38683","norming","","","","","","",""
"8557.125000050291","","","post_mooney1_questions","survey-likert","106","777480","0.0-6.0-2.14","4051722","co38683","norming","","","{""curiosity"":5,""confidence"":1}","[0,1]","../img/tt/189tt.jpg","",""
"4285.759999998845","","","recognition","survey-text","107","781774","0.0-6.0-3.14","4051722","co38683","norming","","","{""guess"":""hangmat""}","","../img/tt/189tt.jpg","",""
"null","../img/gs/189gs.jpg","null","reveal","image-keyboard-response","108","783776","0.0-6.0-4.14","4051722","co38683","norming","","","","","","",""
"null","../img/tt/189tt.jpg","null","mooney2","image-keyboard-response","109","785778","0.0-6.0-5.14","4051722","co38683","norming","","","","","","",""
"4621.874999953434","","","post_reveal_questions","survey-likert","110","790402","0.0-6.0-6.14","4051722","co38683","norming","","","{""aha"":2}","[0]","../img/tt/189tt.jpg","",""
"null","<div style=""font-size:60px;""> </div>","null","fixation","html-keyboard-response","111","790606","0.0-6.0-0.15","4051722","co38683","norming","","","","","","",""
"null","../img/tt/064tt.jpg","null","mooney1","image-keyboard-response","112","793611","0.0-6.0-1.15","4051722","co38683","norming","","","","","","",""
"5311.970000038855","","","post_mooney1_questions","survey-likert","113","798926","0.0-6.0-2.15","4051722","co38683","norming","","","{""curiosity"":4,""confidence"":2}","[0,1]","../img/tt/064tt.jpg","",""
"2102.2150000790134","","","recognition","survey-text","114","801034","0.0-6.0-3.15","4051722","co38683","norming","","","{""guess"":""duck""}","","../img/tt/064tt.jpg","",""
"null","../img/gs/064gs.jpg","null","reveal","image-keyboard-response","115","803036","0.0-6.0-4.15","4051722","co38683","norming","","","","","","",""
"null","../img/tt/064tt.jpg","null","mooney2","image-keyboard-response","116","805039","0.0-6.0-5.15","4051722","co38683","norming","","","","","","",""
"9742.244999972172","","","post_reveal_questions","survey-likert","117","814786","0.0-6.0-6.15","4051722","co38683","norming","","","{""aha"":5}","[0]","../img/tt/064tt.jpg","",""
"null","<div style=""font-size:60px;""> </div>","null","fixation","html-keyboard-response","118","814992","0.0-6.0-0.16","4051722","co38683","norming","","","","","","",""
"null","../img/tt/135tt.jpg","null","mooney1","image-keyboard-response","119","817998","0.0-6.0-1.16","4051722","co38683","norming","","","","","","",""
"23753.80999990739","","","post_mooney1_questions","survey-likert","120","841757","0.0-6.0-2.16","4051722","co38683","norming","","","{""curiosity"":4,""confidence"":1}","[0,1]","../img/tt/135tt.jpg","",""
"36866.690000053495","","","recognition","survey-text","121","878631","0.0-6.0-3.16","4051722","co38683","norming","","","{""guess"":""dog""}","","../img/tt/135tt.jpg","",""
"null","../img/gs/135gs.jpg","null","reveal","image-keyboard-response","122","880633","0.0-6.0-4.16","4051722","co38683","norming","","","","","","",""
"null","../img/tt/135tt.jpg","null","mooney2","image-keyboard-response","123","882636","0.0-6.0-5.16","4051722","co38683","norming","","","","","","",""
"11498.410000000149","","","post_reveal_questions","survey-likert","124","894139","0.0-6.0-6.16","4051722","co38683","norming","","","{""aha"":4}","[0]","../img/tt/135tt.jpg","",""
"null","<div style=""font-size:60px;""> </div>","null","fixation","html-keyboard-response","125","894342","0.0-6.0-0.17","4051722","co38683","norming","","","","","","",""
"null","../img/tt/222tt.jpg","null","mooney1","image-keyboard-response","126","897347","0.0-6.0-1.17","4051722","co38683","norming","","","","","","",""
"6584.195000003092","","","post_mooney1_questions","survey-likert","127","903935","0.0-6.0-2.17","4051722","co38683","norming","","","{""curiosity"":5,""confidence"":0}","[0,1]","../img/tt/222tt.jpg","",""
"2715.1199999498203","","","recognition","survey-text","128","906657","0.0-6.0-3.17","4051722","co38683","norming","","","{""guess"":""boat""}","","../img/tt/222tt.jpg","",""
"null","../img/gs/222gs.jpg","null","reveal","image-keyboard-response","129","908660","0.0-6.0-4.17","4051722","co38683","norming","","","","","","",""
"null","../img/tt/222tt.jpg","null","mooney2","image-keyboard-response","130","910663","0.0-6.0-5.17","4051722","co38683","norming","","","","","","",""
"4539.390000049025","","","post_reveal_questions","survey-likert","131","915204","0.0-6.0-6.17","4051722","co38683","norming","","","{""aha"":5}","[0]","../img/tt/222tt.jpg","",""
"null","<div style=""font-size:60px;""> </div>","null","fixation","html-keyboard-response","132","915406","0.0-6.0-0.18","4051722","co38683","norming","","","","","","",""
"null","../img/tt/1268tt.jpg","null","mooney1","image-keyboard-response","133","918409","0.0-6.0-1.18","4051722","co38683","norming","","","","","","",""
"20094.829999958165","","","post_mooney1_questions","survey-likert","134","938507","0.0-6.0-2.18","4051722","co38683","norming","","","{""curiosity"":5,""confidence"":1}","[0,1]","../img/tt/1268tt.jpg","",""
"65869.21999999322","","","recognition","survey-text","135","1004385","0.0-6.0-3.18","4051722","co38683","norming","","","{""guess"":""""}","","../img/tt/1268tt.jpg","",""
"null","../img/gs/1268gs.jpg","null","reveal","image-keyboard-response","136","1006390","0.0-6.0-4.18","4051722","co38683","norming","","","","","","",""
"null","../img/tt/1268tt.jpg","null","mooney2","image-keyboard-response","137","1008393","0.0-6.0-5.18","4051722","co38683","norming","","","","","","",""
"12296.465000021271","","","post_reveal_questions","survey-likert","138","1020693","0.0-6.0-6.18","4051722","co38683","norming","","","{""aha"":5}","[0]","../img/tt/1268tt.jpg","",""
"null","<div style=""font-size:60px;""> </div>","null","fixation","html-keyboard-response","139","1020898","0.0-6.0-0.19","4051722","co38683","norming","","","","","","",""
"null","../img/tt/194tt.jpg","null","mooney1","image-keyboard-response","140","1023902","0.0-6.0-1.19","4051722","co38683","norming","","","","","","",""
"24373.70999995619","","","post_mooney1_questions","survey-likert","141","1048280","0.0-6.0-2.19","4051722","co38683","norming","","","{""curiosity"":5,""confidence"":0}","[0,1]","../img/tt/194tt.jpg","",""
"1138.3950000163168","","","recognition","survey-text","142","1049427","0.0-6.0-3.19","4051722","co38683","norming","","","{""guess"":""""}","","../img/tt/194tt.jpg","",""
"null","../img/gs/194gs.jpg","null","reveal","image-keyboard-response","143","1051431","0.0-6.0-4.19","4051722","co38683","norming","","","","","","",""
"null","../img/tt/194tt.jpg","null","mooney2","image-keyboard-response","144","1053433","0.0-6.0-5.19","4051722","co38683","norming","","","","","","",""
"21482.2250000434","","","post_reveal_questions","survey-likert","145","1074918","0.0-6.0-6.19","4051722","co38683","norming","","","{""aha"":4}","[0]","../img/tt/194tt.jpg","",""
"null","<div style=""font-size:60px;""> </div>","null","fixation","html-keyboard-response","146","1075122","0.0-6.0-0.20","4051722","co38683","norming","","","","","","",""
"null","../img/tt/126tt.jpg","null","mooney1","image-keyboard-response","147","1078126","0.0-6.0-1.20","4051722","co38683","norming","","","","","","",""
"5130.8699999935925","","","post_mooney1_questions","survey-likert","148","1083264","0.0-6.0-2.20","4051722","co38683","norming","","","{""curiosity"":5,""confidence"":5}","[0,1]","../img/tt/126tt.jpg","",""
"2976.3899999670684","","","recognition","survey-text","149","1086248","0.0-6.0-3.20","4051722","co38683","norming","","","{""guess"":""cow""}","","../img/tt/126tt.jpg","",""
"null","../img/gs/126gs.jpg","null","reveal","image-keyboard-response","150","1088250","0.0-6.0-4.20","4051722","co38683","norming","","","","","","",""
"null","../img/tt/126tt.jpg","null","mooney2","image-keyboard-response","151","1090253","0.0-6.0-5.20","4051722","co38683","norming","","","","","","",""
"16526.98500000406","","","post_reveal_questions","survey-likert","152","1106785","0.0-6.0-6.20","4051722","co38683","norming","","","{""aha"":1}","[0]","../img/tt/126tt.jpg","",""
"null","<div style=""font-size:60px;""> </div>","null","fixation","html-keyboard-response","153","1106989","0.0-6.0-0.21","4051722","co38683","norming","","","","","","",""
"null","../img/tt/1072tt.jpg","null","mooney1","image-keyboard-response","154","1109993","0.0-6.0-1.21","4051722","co38683","norming","","","","","","",""
"38591.59500000533","","","post_mooney1_questions","survey-likert","155","1148589","0.0-6.0-2.21","4051722","co38683","norming","","","{""curiosity"":5,""confidence"":1}","[0,1]","../img/tt/1072tt.jpg","",""
"3205.2950001088902","","","recognition","survey-text","156","1151802","0.0-6.0-3.21","4051722","co38683","norming","","","{""guess"":""""}","","../img/tt/1072tt.jpg","",""
"null","../img/gs/1072gs.jpg","null","reveal","image-keyboard-response","157","1153807","0.0-6.0-4.21","4051722","co38683","norming","","","","","","",""
"null","../img/tt/1072tt.jpg","null","mooney2","image-keyboard-response","158","1155810","0.0-6.0-5.21","4051722","co38683","norming","","","","","","",""
"28056.440000073053","","","post_reveal_questions","survey-likert","159","1183868","0.0-6.0-6.21","4051722","co38683","norming","","","{""aha"":5}","[0]","../img/tt/1072tt.jpg","",""
"null","<div style=""font-size:60px;""> </div>","null","fixation","html-keyboard-response","160","1184072","0.0-6.0-0.22","4051722","co38683","norming","","","","","","",""
"null","../img/tt/1123tt.jpg","null","mooney1","image-keyboard-response","161","1187078","0.0-6.0-1.22","4051722","co38683","norming","","","","","","",""
"28564.335000002757","","","post_mooney1_questions","survey-likert","162","1215647","0.0-6.0-2.22","4051722","co38683","norming","","","{""curiosity"":5,""confidence"":1}","[0,1]","../img/tt/1123tt.jpg","",""
"6754.334999946877","","","recognition","survey-text","163","1222405","0.0-6.0-3.22","4051722","co38683","norming","","","{""guess"":""2 people""}","","../img/tt/1123tt.jpg","",""
"null","../img/gs/1123gs.jpg","null","reveal","image-keyboard-response","164","1224407","0.0-6.0-4.22","4051722","co38683","norming","","","","","","",""
"null","../img/tt/1123tt.jpg","null","mooney2","image-keyboard-response","165","1226409","0.0-6.0-5.22","4051722","co38683","norming","","","","","","",""
"9270.385000039823","","","post_reveal_questions","survey-likert","166","1235683","0.0-6.0-6.22","4051722","co38683","norming","","","{""aha"":5}","[0]","../img/tt/1123tt.jpg","",""
"null","<div style=""font-size:60px;""> </div>","null","fixation","html-keyboard-response","167","1235886","0.0-6.0-0.23","4051722","co38683","norming","","","","","","",""
"null","../img/tt/1055tt.jpg","null","mooney1","image-keyboard-response","168","1238891","0.0-6.0-1.23","4051722","co38683","norming","","","","","","",""
"10428.710000007413","","","post_mooney1_questions","survey-likert","169","1249325","0.0-6.0-2.23","4051722","co38683","norming","","","{""curiosity"":5,""confidence"":4}","[0,1]","../img/tt/1055tt.jpg","",""
"3059.834999963641","","","recognition","survey-text","170","1252391","0.0-6.0-3.23","4051722","co38683","norming","","","{""guess"":""boat""}","","../img/tt/1055tt.jpg","",""
"null","../img/gs/1055gs.jpg","null","reveal","image-keyboard-response","171","1254395","0.0-6.0-4.23","4051722","co38683","norming","","","","","","",""
"null","../img/tt/1055tt.jpg","null","mooney2","image-keyboard-response","172","1256398","0.0-6.0-5.23","4051722","co38683","norming","","","","","","",""
"4051.4850000618026","","","post_reveal_questions","survey-likert","173","1260453","0.0-6.0-6.23","4051722","co38683","norming","","","{""aha"":3}","[0]","../img/tt/1055tt.jpg","",""
"null","<div style=""font-size:60px;""> </div>","null","fixation","html-keyboard-response","174","1260656","0.0-6.0-0.24","4051722","co38683","norming","","","","","","",""
"null","../img/tt/044tt.jpg","null","mooney1","image-keyboard-response","175","1263660","0.0-6.0-1.24","4051722","co38683","norming","","","","","","",""
"6102.680000010878","","","post_mooney1_questions","survey-likert","176","1269767","0.0-6.0-2.24","4051722","co38683","norming","","","{""curiosity"":5,""confidence"":3}","[0,1]","../img/tt/044tt.jpg","",""
"2137.7599999541417","","","recognition","survey-text","177","1271912","0.0-6.0-3.24","4051722","co38683","norming","","","{""guess"":""man""}","","../img/tt/044tt.jpg","",""
"null","../img/gs/044gs.jpg","null","reveal","image-keyboard-response","178","1273914","0.0-6.0-4.24","4051722","co38683","norming","","","","","","",""
"null","../img/tt/044tt.jpg","null","mooney2","image-keyboard-response","179","1275917","0.0-6.0-5.24","4051722","co38683","norming","","","","","","",""
"19584.255000110716","","","post_reveal_questions","survey-likert","180","1295504","0.0-6.0-6.24","4051722","co38683","norming","","","{""aha"":5}","[0]","../img/tt/044tt.jpg","",""
"null","<div style=""font-size:60px;""> </div>","null","fixation","html-keyboard-response","181","1295707","0.0-6.0-0.25","4051722","co38683","norming","","","","","","",""
"null","../img/tt/001tt.jpg","null","mooney1","image-keyboard-response","182","1298711","0.0-6.0-1.25","4051722","co38683","norming","","","","","","",""
"6812.145000090823","","","post_mooney1_questions","survey-likert","183","1305527","0.0-6.0-2.25","4051722","co38683","norming","","","{""curiosity"":5,""confidence"":0}","[0,1]","../img/tt/001tt.jpg","",""
"40919.74499996286","","","recognition","survey-text","184","1346453","0.0-6.0-3.25","4051722","co38683","norming","","","{""guess"":""little monster""}","","../img/tt/001tt.jpg","",""
"null","../img/gs/001gs.jpg","null","reveal","image-keyboard-response","185","1348455","0.0-6.0-4.25","4051722","co38683","norming","","","","","","",""
"null","../img/tt/001tt.jpg","null","mooney2","image-keyboard-response","186","1350458","0.0-6.0-5.25","4051722","co38683","norming","","","","","","",""
"68601.78500006441","","","post_reveal_questions","survey-likert","187","1419064","0.0-6.0-6.25","4051722","co38683","norming","","","{""aha"":4}","[0]","../img/tt/001tt.jpg","",""
"null","<div style=""font-size:60px;""> </div>","null","fixation","html-keyboard-response","188","1419269","0.0-6.0-0.26","4051722","co38683","norming","","","","","","",""
"null","../img/tt/040tt.jpg","null","mooney1","image-keyboard-response","189","1422274","0.0-6.0-1.26","4051722","co38683","norming","","","","","","",""
"4903.319999924861","","","post_mooney1_questions","survey-likert","190","1427181","0.0-6.0-2.26","4051722","co38683","norming","","","{""curiosity"":5,""confidence"":2}","[0,1]","../img/tt/040tt.jpg","",""
"6974.144999985583","","","recognition","survey-text","191","1434158","0.0-6.0-3.26","4051722","co38683","norming","","","{""guess"":""dog""}","","../img/tt/040tt.jpg","",""
"null","../img/gs/040gs.jpg","null","reveal","image-keyboard-response","192","1436160","0.0-6.0-4.26","4051722","co38683","norming","","","","","","",""
"null","../img/tt/040tt.jpg","null","mooney2","image-keyboard-response","193","1438163","0.0-6.0-5.26","4051722","co38683","norming","","","","","","",""
"2879.895000020042","","","post_reveal_questions","survey-likert","194","1441046","0.0-6.0-6.26","4051722","co38683","norming","","","{""aha"":3}","[0]","../img/tt/040tt.jpg","",""
"null","<div style=""font-size:60px;""> </div>","null","fixation","html-keyboard-response","195","1441248","0.0-6.0-0.27","4051722","co38683","norming","","","","","","",""
"null","../img/tt/598tt.jpg","null","mooney1","image-keyboard-response","196","1444253","0.0-6.0-1.27","4051722","co38683","norming","","","","","","",""
"7395.729999989271","","","post_mooney1_questions","survey-likert","197","1451653","0.0-6.0-2.27","4051722","co38683","norming","","","{""curiosity"":4,""confidence"":2}","[0,1]","../img/tt/598tt.jpg","",""
"5417.81999997329","","","recognition","survey-text","198","1457078","0.0-6.0-3.27","4051722","co38683","norming","","","{""guess"":""heteluchtballon""}","","../img/tt/598tt.jpg","",""
"null","../img/gs/598gs.jpg","null","reveal","image-keyboard-response","199","1459082","0.0-6.0-4.27","4051722","co38683","norming","","","","","","",""
"null","../img/tt/598tt.jpg","null","mooney2","image-keyboard-response","200","1461084","0.0-6.0-5.27","4051722","co38683","norming","","","","","","",""
"9657.895000069402","","","post_reveal_questions","survey-likert","201","1470746","0.0-6.0-6.27","4051722","co38683","norming","","","{""aha"":2}","[0]","../img/tt/598tt.jpg","",""
"null","<div style=""font-size:60px;""> </div>","null","fixation","html-keyboard-response","202","1470950","0.0-6.0-0.28","4051722","co38683","norming","","","","","","",""
"null","../img/tt/1199tt.jpg","null","mooney1","image-keyboard-response","203","1473954","0.0-6.0-1.28","4051722","co38683","norming","","","","","","",""
"21958.459999994375","","","post_mooney1_questions","survey-likert","204","1495917","0.0-6.0-2.28","4051722","co38683","norming","","","{""curiosity"":4,""confidence"":1}","[0,1]","../img/tt/1199tt.jpg","",""
"15276.110000093468","","","recognition","survey-text","205","1511202","0.0-6.0-3.28","4051722","co38683","norming","","","{""guess"":""beach""}","","../img/tt/1199tt.jpg","",""
"null","../img/gs/1199gs.jpg","null","reveal","image-keyboard-response","206","1513204","0.0-6.0-4.28","4051722","co38683","norming","","","","","","",""
"null","../img/tt/1199tt.jpg","null","mooney2","image-keyboard-response","207","1515207","0.0-6.0-5.28","4051722","co38683","norming","","","","","","",""
"8860.884999972768","","","post_reveal_questions","survey-likert","208","1524071","0.0-6.0-6.28","4051722","co38683","norming","","","{""aha"":3}","[0]","../img/tt/1199tt.jpg","",""
"null","<div style=""font-size:60px;""> </div>","null","fixation","html-keyboard-response","209","1524275","0.0-6.0-0.29","4051722","co38683","norming","","","","","","",""
"null","../img/tt/1188tt.jpg","null","mooney1","image-keyboard-response","210","1527279","0.0-6.0-1.29","4051722","co38683","norming","","","","","","",""
"7069.230000022799","","","post_mooney1_questions","survey-likert","211","1534353","0.0-6.0-2.29","4051722","co38683","norming","","","{""curiosity"":4,""confidence"":0}","[0,1]","../img/tt/1188tt.jpg","",""
"8135.290000005625","","","recognition","survey-text","212","1542496","0.0-6.0-3.29","4051722","co38683","norming","","","{""guess"":""""}","","../img/tt/1188tt.jpg","",""
"null","../img/gs/1188gs.jpg","null","reveal","image-keyboard-response","213","1544498","0.0-6.0-4.29","4051722","co38683","norming","","","","","","",""
"null","../img/tt/1188tt.jpg","null","mooney2","image-keyboard-response","214","1546501","0.0-6.0-5.29","4051722","co38683","norming","","","","","","",""
"4829.165000002831","","","post_reveal_questions","survey-likert","215","1551332","0.0-6.0-6.29","4051722","co38683","norming","","","{""aha"":4}","[0]","../img/tt/1188tt.jpg","",""
"null","<div style=""font-size:60px;""> </div>","null","fixation","html-keyboard-response","216","1551535","0.0-6.0-0.30","4051722","co38683","norming","","","","","","",""
"null","../img/tt/329tt.jpg","null","mooney1","image-keyboard-response","217","1554537","0.0-6.0-1.30","4051722","co38683","norming","","","","","","",""
"5800.200000056066","","","post_mooney1_questions","survey-likert","218","1560342","0.0-6.0-2.30","4051722","co38683","norming","","","{""curiosity"":4,""confidence"":1}","[0,1]","../img/tt/329tt.jpg","",""
"3383.4350000834092","","","recognition","survey-text","219","1563732","0.0-6.0-3.30","4051722","co38683","norming","","","{""guess"":""gymnast""}","","../img/tt/329tt.jpg","",""
"null","../img/gs/329gs.jpg","null","reveal","image-keyboard-response","220","1565735","0.0-6.0-4.30","4051722","co38683","norming","","","","","","",""
"null","../img/tt/329tt.jpg","null","mooney2","image-keyboard-response","221","1567739","0.0-6.0-5.30","4051722","co38683","norming","","","","","","",""
"67705.79499995802","","","post_reveal_questions","survey-likert","222","1635449","0.0-6.0-6.30","4051722","co38683","norming","","","{""aha"":4}","[0]","../img/tt/329tt.jpg","",""
"null","<div style=""font-size:60px;""> </div>","null","fixation","html-keyboard-response","223","1635652","0.0-6.0-0.31","4051722","co38683","norming","","","","","","",""
"null","../img/tt/1254tt.jpg","null","mooney1","image-keyboard-response","224","1638654","0.0-6.0-1.31","4051722","co38683","norming","","","","","","",""
"9012.50000006985","","","post_mooney1_questions","survey-likert","225","1647671","0.0-6.0-2.31","4051722","co38683","norming","","","{""curiosity"":5,""confidence"":1}","[0,1]","../img/tt/1254tt.jpg","",""
"3549.7050000121817","","","recognition","survey-text","226","1651228","0.0-6.0-3.31","4051722","co38683","norming","","","{""guess"":""een kussen""}","","../img/tt/1254tt.jpg","",""
"null","../img/gs/1254gs.jpg","null","reveal","image-keyboard-response","227","1653231","0.0-6.0-4.31","4051722","co38683","norming","","","","","","",""
"null","../img/tt/1254tt.jpg","null","mooney2","image-keyboard-response","228","1655235","0.0-6.0-5.31","4051722","co38683","norming","","","","","","",""
"27812.710000085644","","","post_reveal_questions","survey-likert","229","1683051","0.0-6.0-6.31","4051722","co38683","norming","","","{""aha"":4}","[0]","../img/tt/1254tt.jpg","",""
"null","<div style=""font-size:60px;""> </div>","null","fixation","html-keyboard-response","230","1683255","0.0-6.0-0.32","4051722","co38683","norming","","","","","","",""
"null","../img/tt/1033tt.jpg","null","mooney1","image-keyboard-response","231","1686261","0.0-6.0-1.32","4051722","co38683","norming","","","","","","",""
"13906.150000053458","","","post_mooney1_questions","survey-likert","232","1700171","0.0-6.0-2.32","4051722","co38683","norming","","","{""curiosity"":5,""confidence"":0}","[0,1]","../img/tt/1033tt.jpg","",""
"10314.939999952912","","","recognition","survey-text","233","1710494","0.0-6.0-3.32","4051722","co38683","norming","","","{""guess"":""""}","","../img/tt/1033tt.jpg","",""
"null","../img/gs/1033gs.jpg","null","reveal","image-keyboard-response","234","1712496","0.0-6.0-4.32","4051722","co38683","norming","","","","","","",""
"null","../img/tt/1033tt.jpg","null","mooney2","image-keyboard-response","235","1714500","0.0-6.0-5.32","4051722","co38683","norming","","","","","","",""
"4000.149999978021","","","post_reveal_questions","survey-likert","236","1718503","0.0-6.0-6.32","4051722","co38683","norming","","","{""aha"":4}","[0]","../img/tt/1033tt.jpg","",""
"null","<div style=""font-size:60px;""> </div>","null","fixation","html-keyboard-response","237","1718707","0.0-6.0-0.33","4051722","co38683","norming","","","","","","",""
"null","../img/tt/111tt.jpg","null","mooney1","image-keyboard-response","238","1721712","0.0-6.0-1.33","4051722","co38683","norming","","","","","","",""
"16613.764999900013","","","post_mooney1_questions","survey-likert","239","1738330","0.0-6.0-2.33","4051722","co38683","norming","","","{""curiosity"":5,""confidence"":1}","[0,1]","../img/tt/111tt.jpg","",""
"2802.2400001063943","","","recognition","survey-text","240","1741139","0.0-6.0-3.33","4051722","co38683","norming","","","{""guess"":""car""}","","../img/tt/111tt.jpg","",""
"null","../img/gs/111gs.jpg","null","reveal","image-keyboard-response","241","1743143","0.0-6.0-4.33","4051722","co38683","norming","","","","","","",""
"null","../img/tt/111tt.jpg","null","mooney2","image-keyboard-response","242","1745145","0.0-6.0-5.33","4051722","co38683","norming","","","","","","",""
"11912.684999988414","","","post_reveal_questions","survey-likert","243","1757061","0.0-6.0-6.33","4051722","co38683","norming","","","{""aha"":4}","[0]","../img/tt/111tt.jpg","",""
"null","<div style=""font-size:60px;""> </div>","null","fixation","html-keyboard-response","244","1757264","0.0-6.0-0.34","4051722","co38683","norming","","","","","","",""
"null","../img/tt/1066tt.jpg","null","mooney1","image-keyboard-response","245","1760269","0.0-6.0-1.34","4051722","co38683","norming","","","","","","",""
"6568.390000029467","","","post_mooney1_questions","survey-likert","246","1766842","0.0-6.0-2.34","4051722","co38683","norming","","","{""curiosity"":4,""confidence"":0}","[0,1]","../img/tt/1066tt.jpg","",""
"1411.0750000691041","","","recognition","survey-text","247","1768261","0.0-6.0-3.34","4051722","co38683","norming","","","{""guess"":""""}","","../img/tt/1066tt.jpg","",""
"null","../img/gs/1066gs.jpg","null","reveal","image-keyboard-response","248","1770265","0.0-6.0-4.34","4051722","co38683","norming","","","","","","",""
"null","../img/tt/1066tt.jpg","null","mooney2","image-keyboard-response","249","1772269","0.0-6.0-5.34","4051722","co38683","norming","","","","","","",""
"5282.570000039414","","","post_reveal_questions","survey-likert","250","1777556","0.0-6.0-6.34","4051722","co38683","norming","","","{""aha"":6}","[0]","../img/tt/1066tt.jpg","",""
"null","<div style=""font-size:60px;""> </div>","null","fixation","html-keyboard-response","251","1777759","0.0-6.0-0.35","4051722","co38683","norming","","","","","","",""
"null","../img/tt/1232tt.jpg","null","mooney1","image-keyboard-response","252","1780763","0.0-6.0-1.35","4051722","co38683","norming","","","","","","",""
"8486.284999991767","","","post_mooney1_questions","survey-likert","253","1789254","0.0-6.0-2.35","4051722","co38683","norming","","","{""curiosity"":4,""confidence"":5}","[0,1]","../img/tt/1232tt.jpg","",""
"3040.999999968335","","","recognition","survey-text","254","1792302","0.0-6.0-3.35","4051722","co38683","norming","","","{""guess"":""duck""}","","../img/tt/1232tt.jpg","",""
"null","../img/gs/1232gs.jpg","null","reveal","image-keyboard-response","255","1794305","0.0-6.0-4.35","4051722","co38683","norming","","","","","","",""
"null","../img/tt/1232tt.jpg","null","mooney2","image-keyboard-response","256","1796308","0.0-6.0-5.35","4051722","co38683","norming","","","","","","",""
"9993.845000048168","","","post_reveal_questions","survey-likert","257","1806304","0.0-6.0-6.35","4051722","co38683","norming","","","{""aha"":2}","[0]","../img/tt/1232tt.jpg","",""
"null","<div style=""font-size:60px;""> </div>","null","fixation","html-keyboard-response","258","1806506","0.0-6.0-0.36","4051722","co38683","norming","","","","","","",""
"null","../img/tt/1126tt.jpg","null","mooney1","image-keyboard-response","259","1809512","0.0-6.0-1.36","4051722","co38683","norming","","","","","","",""
"5639.604999916628","","","post_mooney1_questions","survey-likert","260","1815158","0.0-6.0-2.36","4051722","co38683","norming","","","{""curiosity"":3,""confidence"":6}","[0,1]","../img/tt/1126tt.jpg","",""
"5387.289999984205","","","recognition","survey-text","261","1820550","0.0-6.0-3.36","4051722","co38683","norming","","","{""guess"":""rock climber""}","","../img/tt/1126tt.jpg","",""
"null","../img/gs/1126gs.jpg","null","reveal","image-keyboard-response","262","1822552","0.0-6.0-4.36","4051722","co38683","norming","","","","","","",""
"null","../img/tt/1126tt.jpg","null","mooney2","image-keyboard-response","263","1824556","0.0-6.0-5.36","4051722","co38683","norming","","","","","","",""
"33158.43499999028","","","post_reveal_questions","survey-likert","264","1857718","0.0-6.0-6.36","4051722","co38683","norming","","","{""aha"":4}","[0]","../img/tt/1126tt.jpg","",""
"null","<div style=""font-size:60px;""> </div>","null","fixation","html-keyboard-response","265","1857921","0.0-6.0-0.37","4051722","co38683","norming","","","","","","",""
"null","../img/tt/1156tt.jpg","null","mooney1","image-keyboard-response","266","1860925","0.0-6.0-1.37","4051722","co38683","norming","","","","","","",""
"7389.65000002645","","","post_mooney1_questions","survey-likert","267","1868319","0.0-6.0-2.37","4051722","co38683","norming","","","{""curiosity"":5,""confidence"":1}","[0,1]","../img/tt/1156tt.jpg","",""
"3644.0050000092015","","","recognition","survey-text","268","1871975","0.0-6.0-3.37","4051722","co38683","norming","","","{""guess"":""tunnels""}","","../img/tt/1156tt.jpg","",""
"null","../img/gs/1156gs.jpg","null","reveal","image-keyboard-response","269","1873979","0.0-6.0-4.37","4051722","co38683","norming","","","","","","",""
"null","../img/tt/1156tt.jpg","null","mooney2","image-keyboard-response","270","1875982","0.0-6.0-5.37","4051722","co38683","norming","","","","","","",""
"288174.4249999756","","","post_reveal_questions","survey-likert","271","2164158","0.0-6.0-6.37","4051722","co38683","norming","","","{""aha"":5}","[0]","../img/tt/1156tt.jpg","",""
"null","<div style=""font-size:60px;""> </div>","null","fixation","html-keyboard-response","272","2164361","0.0-6.0-0.38","4051722","co38683","norming","","","","","","",""
"null","../img/tt/118tt.jpg","null","mooney1","image-keyboard-response","273","2167365","0.0-6.0-1.38","4051722","co38683","norming","","","","","","",""
"5968.910000054166","","","post_mooney1_questions","survey-likert","274","2173339","0.0-6.0-2.38","4051722","co38683","norming","","","{""curiosity"":3,""confidence"":4}","[0,1]","../img/tt/118tt.jpg","",""
"4738.859999924898","","","recognition","survey-text","275","2178085","0.0-6.0-3.38","4051722","co38683","norming","","","{""guess"":""stairs""}","","../img/tt/118tt.jpg","",""
"null","../img/gs/118gs.jpg","null","reveal","image-keyboard-response","276","2180088","0.0-6.0-4.38","4051722","co38683","norming","","","","","","",""
"null","../img/tt/118tt.jpg","null","mooney2","image-keyboard-response","277","2182091","0.0-6.0-5.38","4051722","co38683","norming","","","","","","",""
"5935.69000007119","","","post_reveal_questions","survey-likert","278","2188031","0.0-6.0-6.38","4051722","co38683","norming","","","{""aha"":2}","[0]","../img/tt/118tt.jpg","",""
"null","<div style=""font-size:60px;""> </div>","null","fixation","html-keyboard-response","279","2188235","0.0-6.0-0.39","4051722","co38683","norming","","","","","","",""
"null","../img/tt/1272tt.jpg","null","mooney1","image-keyboard-response","280","2191240","0.0-6.0-1.39","4051722","co38683","norming","","","","","","",""
"5413.500000024214","","","post_mooney1_questions","survey-likert","281","2196658","0.0-6.0-2.39","4051722","co38683","norming","","","{""curiosity"":5,""confidence"":2}","[0,1]","../img/tt/1272tt.jpg","",""
"3605.4549999535084","","","recognition","survey-text","282","2200271","0.0-6.0-3.39","4051722","co38683","norming","","","{""guess"":""net""}","","../img/tt/1272tt.jpg","",""
"null","../img/gs/1272gs.jpg","null","reveal","image-keyboard-response","283","2202273","0.0-6.0-4.39","4051722","co38683","norming","","","","","","",""
"null","../img/tt/1272tt.jpg","null","mooney2","image-keyboard-response","284","2204277","0.0-6.0-5.39","4051722","co38683","norming","","","","","","",""
"44847.68000000622","","","post_reveal_questions","survey-likert","285","2249128","0.0-6.0-6.39","4051722","co38683","norming","","","{""aha"":4}","[0]","../img/tt/1272tt.jpg","",""
"null","<div style=""font-size:60px;""> </div>","null","fixation","html-keyboard-response","286","2249332","0.0-6.0-0.40","4051722","co38683","norming","","","","","","",""
"null","../img/tt/1362tt.jpg","null","mooney1","image-keyboard-response","287","2252336","0.0-6.0-1.40","4051722","co38683","norming","","","","","","",""
"7775.309999939054","","","post_mooney1_questions","survey-likert","288","2260114","0.0-6.0-2.40","4051722","co38683","norming","","","{""curiosity"":5,""confidence"":0}","[0,1]","../img/tt/1362tt.jpg","",""
"5726.714999997057","","","recognition","survey-text","289","2265848","0.0-6.0-3.40","4051722","co38683","norming","","","{""guess"":""""}","","../img/tt/1362tt.jpg","",""
"null","../img/gs/1362gs.jpg","null","reveal","image-keyboard-response","290","2267851","0.0-6.0-4.40","4051722","co38683","norming","","","","","","",""
"null","../img/tt/1362tt.jpg","null","mooney2","image-keyboard-response","291","2269854","0.0-6.0-5.40","4051722","co38683","norming","","","","","","",""
"8181.929999962449","","","post_reveal_questions","survey-likert","292","2278039","0.0-6.0-6.40","4051722","co38683","norming","","","{""aha"":4}","[0]","../img/tt/1362tt.jpg","",""
"null","<div style=""font-size:60px;""> </div>","null","fixation","html-keyboard-response","293","2278243","0.0-6.0-0.41","4051722","co38683","norming","","","","","","",""
"null","../img/tt/084tt.jpg","null","mooney1","image-keyboard-response","294","2281247","0.0-6.0-1.41","4051722","co38683","norming","","","","","","",""
"5820.085000013933","","","post_mooney1_questions","survey-likert","295","2287072","0.0-6.0-2.41","4051722","co38683","norming","","","{""curiosity"":4,""confidence"":6}","[0,1]","../img/tt/084tt.jpg","",""
"7434.460000018589","","","recognition","survey-text","296","2294513","0.0-6.0-3.41","4051722","co38683","norming","","","{""guess"":""duck :)""}","","../img/tt/084tt.jpg","",""
"null","../img/gs/084gs.jpg","null","reveal","image-keyboard-response","297","2296516","0.0-6.0-4.41","4051722","co38683","norming","","","","","","",""
"null","../img/tt/084tt.jpg","null","mooney2","image-keyboard-response","298","2298519","0.0-6.0-5.41","4051722","co38683","norming","","","","","","",""
"4210.829999996349","","","post_reveal_questions","survey-likert","299","2302735","0.0-6.0-6.41","4051722","co38683","norming","","","{""aha"":5}","[0]","../img/tt/084tt.jpg","",""
"null","<div style=""font-size:60px;""> </div>","null","fixation","html-keyboard-response","300","2302938","0.0-6.0-0.42","4051722","co38683","norming","","","","","","",""
"null","../img/tt/1091tt.jpg","null","mooney1","image-keyboard-response","301","2305942","0.0-6.0-1.42","4051722","co38683","norming","","","","","","",""
"5149.055000045337","","","post_mooney1_questions","survey-likert","302","2311094","0.0-6.0-2.42","4051722","co38683","norming","","","{""curiosity"":4,""confidence"":6}","[0,1]","../img/tt/1091tt.jpg","",""
"2264.964999980293","","","recognition","survey-text","303","2313366","0.0-6.0-3.42","4051722","co38683","norming","","","{""guess"":""horse""}","","../img/tt/1091tt.jpg","",""
"null","../img/gs/1091gs.jpg","null","reveal","image-keyboard-response","304","2315368","0.0-6.0-4.42","4051722","co38683","norming","","","","","","",""
"null","../img/tt/1091tt.jpg","null","mooney2","image-keyboard-response","305","2317371","0.0-6.0-5.42","4051722","co38683","norming","","","","","","",""
"21017.669999971986","","","post_reveal_questions","survey-likert","306","2338394","0.0-6.0-6.42","4051722","co38683","norming","","","{""aha"":2}","[0]","../img/tt/1091tt.jpg","",""
"null","<div style=""font-size:60px;""> </div>","null","fixation","html-keyboard-response","307","2338598","0.0-6.0-0.43","4051722","co38683","norming","","","","","","",""
"null","../img/tt/318tt.jpg","null","mooney1","image-keyboard-response","308","2341607","0.0-6.0-1.43","4051722","co38683","norming","","","","","","",""
"5512.145000044256","","","post_mooney1_questions","survey-likert","309","2347126","0.0-6.0-2.43","4051722","co38683","norming","","","{""curiosity"":4,""confidence"":6}","[0,1]","../img/tt/318tt.jpg","",""
"4358.989999978803","","","recognition","survey-text","310","2351494","0.0-6.0-3.43","4051722","co38683","norming","","","{""guess"":""budha""}","","../img/tt/318tt.jpg","",""
"null","../img/gs/318gs.jpg","null","reveal","image-keyboard-response","311","2353497","0.0-6.0-4.43","4051722","co38683","norming","","","","","","",""
"null","../img/tt/318tt.jpg","null","mooney2","image-keyboard-response","312","2355499","0.0-6.0-5.43","4051722","co38683","norming","","","","","","",""
"3637.955000041984","","","post_reveal_questions","survey-likert","313","2359140","0.0-6.0-6.43","4051722","co38683","norming","","","{""aha"":6}","[0]","../img/tt/318tt.jpg","",""
"null","<div style=""font-size:60px;""> </div>","null","fixation","html-keyboard-response","314","2359343","0.0-6.0-0.44","4051722","co38683","norming","","","","","","",""
"null","../img/tt/081tt.jpg","null","mooney1","image-keyboard-response","315","2362347","0.0-6.0-1.44","4051722","co38683","norming","","","","","","",""
"4352.095000096597","","","post_mooney1_questions","survey-likert","316","2366703","0.0-6.0-2.44","4051722","co38683","norming","","","{""curiosity"":6,""confidence"":0}","[0,1]","../img/tt/081tt.jpg","",""
"1849.129999987781","","","recognition","survey-text","317","2368559","0.0-6.0-3.44","4051722","co38683","norming","","","{""guess"":""""}","","../img/tt/081tt.jpg","",""
"null","../img/gs/081gs.jpg","null","reveal","image-keyboard-response","318","2370564","0.0-6.0-4.44","4051722","co38683","norming","","","","","","",""
"null","../img/tt/081tt.jpg","null","mooney2","image-keyboard-response","319","2372567","0.0-6.0-5.44","4051722","co38683","norming","","","","","","",""
"5037.324999924749","","","post_reveal_questions","survey-likert","320","2377608","0.0-6.0-6.44","4051722","co38683","norming","","","{""aha"":6}","[0]","../img/tt/081tt.jpg","",""
"null","<div style=""font-size:60px;""> </div>","null","fixation","html-keyboard-response","321","2377812","0.0-6.0-0.45","4051722","co38683","norming","","","","","","",""
"null","../img/tt/296tt.jpg","null","mooney1","image-keyboard-response","322","2380816","0.0-6.0-1.45","4051722","co38683","norming","","","","","","",""
"9104.980000061914","","","post_mooney1_questions","survey-likert","323","2389925","0.0-6.0-2.45","4051722","co38683","norming","","","{""curiosity"":4,""confidence"":3}","[0,1]","../img/tt/296tt.jpg","",""
"1989.7999999811873","","","recognition","survey-text","324","2391921","0.0-6.0-3.45","4051722","co38683","norming","","","{""guess"":""bed""}","","../img/tt/296tt.jpg","",""
"null","../img/gs/296gs.jpg","null","reveal","image-keyboard-response","325","2393924","0.0-6.0-4.45","4051722","co38683","norming","","","","","","",""
"null","../img/tt/296tt.jpg","null","mooney2","image-keyboard-response","326","2395927","0.0-6.0-5.45","4051722","co38683","norming","","","","","","",""
"3542.739999946207","","","post_reveal_questions","survey-likert","327","2399473","0.0-6.0-6.45","4051722","co38683","norming","","","{""aha"":4}","[0]","../img/tt/296tt.jpg","",""
"null","<div style=""font-size:60px;""> </div>","null","fixation","html-keyboard-response","328","2399677","0.0-6.0-0.46","4051722","co38683","norming","","","","","","",""
"null","../img/tt/353tt.jpg","null","mooney1","image-keyboard-response","329","2402682","0.0-6.0-1.46","4051722","co38683","norming","","","","","","",""
"3974.80500000529","","","post_mooney1_questions","survey-likert","330","2406661","0.0-6.0-2.46","4051722","co38683","norming","","","{""curiosity"":5,""confidence"":4}","[0,1]","../img/tt/353tt.jpg","",""
"3425.740000093356","","","recognition","survey-text","331","2410094","0.0-6.0-3.46","4051722","co38683","norming","","","{""guess"":""penguin""}","","../img/tt/353tt.jpg","",""
"null","../img/gs/353gs.jpg","null","reveal","image-keyboard-response","332","2412096","0.0-6.0-4.46","4051722","co38683","norming","","","","","","",""
"null","../img/tt/353tt.jpg","null","mooney2","image-keyboard-response","333","2414098","0.0-6.0-5.46","4051722","co38683","norming","","","","","","",""
"3555.0400000065565","","","post_reveal_questions","survey-likert","334","2417657","0.0-6.0-6.46","4051722","co38683","norming","","","{""aha"":3}","[0]","../img/tt/353tt.jpg","",""
"null","<div style=""font-size:60px;""> </div>","null","fixation","html-keyboard-response","335","2417859","0.0-6.0-0.47","4051722","co38683","norming","","","","","","",""
"null","../img/tt/091tt.jpg","null","mooney1","image-keyboard-response","336","2420862","0.0-6.0-1.47","4051722","co38683","norming","","","","","","",""
"4255.4950000485405","","","post_mooney1_questions","survey-likert","337","2425121","0.0-6.0-2.47","4051722","co38683","norming","","","{""curiosity"":5,""confidence"":2}","[0,1]","../img/tt/091tt.jpg","",""
"3711.394999991171","","","recognition","survey-text","338","2428840","0.0-6.0-3.47","4051722","co38683","norming","","","{""guess"":""salamander""}","","../img/tt/091tt.jpg","",""
"null","../img/gs/091gs.jpg","null","reveal","image-keyboard-response","339","2430843","0.0-6.0-4.47","4051722","co38683","norming","","","","","","",""
"null","../img/tt/091tt.jpg","null","mooney2","image-keyboard-response","340","2432846","0.0-6.0-5.47","4051722","co38683","norming","","","","","","",""
"21419.244999997318","","","post_reveal_questions","survey-likert","341","2454269","0.0-6.0-6.47","4051722","co38683","norming","","","{""aha"":2}","[0]","../img/tt/091tt.jpg","",""
"null","<div style=""font-size:60px;""> </div>","null","fixation","html-keyboard-response","342","2454475","0.0-6.0-0.48","4051722","co38683","norming","","","","","","",""
"null","../img/tt/599tt.jpg","null","mooney1","image-keyboard-response","343","2457477","0.0-6.0-1.48","4051722","co38683","norming","","","","","","",""
"5433.225000044331","","","post_mooney1_questions","survey-likert","344","2462915","0.0-6.0-2.48","4051722","co38683","norming","","","{""curiosity"":5,""confidence"":2}","[0,1]","../img/tt/599tt.jpg","",""
"2861.5999999456108","","","recognition","survey-text","345","2465784","0.0-6.0-3.48","4051722","co38683","norming","","","{""guess"":""owl""}","","../img/tt/599tt.jpg","",""
"null","../img/gs/599gs.jpg","null","reveal","image-keyboard-response","346","2467788","0.0-6.0-4.48","4051722","co38683","norming","","","","","","",""
"null","../img/tt/599tt.jpg","null","mooney2","image-keyboard-response","347","2469790","0.0-6.0-5.48","4051722","co38683","norming","","","","","","",""
"2810.2649999782443","","","post_reveal_questions","survey-likert","348","2472604","0.0-6.0-6.48","4051722","co38683","norming","","","{""aha"":2}","[0]","../img/tt/599tt.jpg","",""
"null","<div style=""font-size:60px;""> </div>","null","fixation","html-keyboard-response","349","2472809","0.0-6.0-0.49","4051722","co38683","norming","","","","","","",""
"null","../img/tt/270tt.jpg","null","mooney1","image-keyboard-response","350","2475811","0.0-6.0-1.49","4051722","co38683","norming","","","","","","",""
"8576.379999984056","","","post_mooney1_questions","survey-likert","351","2484392","0.0-6.0-2.49","4051722","co38683","norming","","","{""curiosity"":5,""confidence"":1}","[0,1]","../img/tt/270tt.jpg","",""
"2291.190000018105","","","recognition","survey-text","352","2486690","0.0-6.0-3.49","4051722","co38683","norming","","","{""guess"":""hek""}","","../img/tt/270tt.jpg","",""
"null","../img/gs/270gs.jpg","null","reveal","image-keyboard-response","353","2488693","0.0-6.0-4.49","4051722","co38683","norming","","","","","","",""
"null","../img/tt/270tt.jpg","null","mooney2","image-keyboard-response","354","2490695","0.0-6.0-5.49","4051722","co38683","norming","","","","","","",""
"8169.099999940954","","","post_reveal_questions","survey-likert","355","2498868","0.0-6.0-6.49","4051722","co38683","norming","","","{""aha"":3}","[0]","../img/tt/270tt.jpg","",""
"null","<div style=""font-size:60px;""> </div>","null","fixation","html-keyboard-response","356","2499072","0.0-6.0-0.50","4051722","co38683","norming","","","","","","",""
"null","../img/tt/1224tt.jpg","null","mooney1","image-keyboard-response","357","2502077","0.0-6.0-1.50","4051722","co38683","norming","","","","","","",""
"4784.274999983609","","","post_mooney1_questions","survey-likert","358","2506865","0.0-6.0-2.50","4051722","co38683","norming","","","{""curiosity"":5,""confidence"":3}","[0,1]","../img/tt/1224tt.jpg","",""
"3555.389999994077","","","recognition","survey-text","359","2510427","0.0-6.0-3.50","4051722","co38683","norming","","","{""guess"":""person""}","","../img/tt/1224tt.jpg","",""
"null","../img/gs/1224gs.jpg","null","reveal","image-keyboard-response","360","2512430","0.0-6.0-4.50","4051722","co38683","norming","","","","","","",""
"null","../img/tt/1224tt.jpg","null","mooney2","image-keyboard-response","361","2514433","0.0-6.0-5.50","4051722","co38683","norming","","","","","","",""
"3004.194999928586","","","post_reveal_questions","survey-likert","362","2517441","0.0-6.0-6.50","4051722","co38683","norming","","","{""aha"":3}","[0]","../img/tt/1224tt.jpg","",""
"null","<div style=""font-size:60px;""> </div>","null","fixation","html-keyboard-response","363","2517645","0.0-6.0-0.51","4051722","co38683","norming","","","","","","",""
"null","../img/tt/1243tt.jpg","null","mooney1","image-keyboard-response","364","2520647","0.0-6.0-1.51","4051722","co38683","norming","","","","","","",""
"5276.055000023916","","","post_mooney1_questions","survey-likert","365","2525927","0.0-6.0-2.51","4051722","co38683","norming","","","{""curiosity"":5,""confidence"":2}","[0,1]","../img/tt/1243tt.jpg","",""
"4767.010000068694","","","recognition","survey-text","366","2530696","0.0-6.0-3.51","4051722","co38683","norming","","","{""guess"":""2 persons""}","","../img/tt/1243tt.jpg","",""
"null","../img/gs/1243gs.jpg","null","reveal","image-keyboard-response","367","2532700","0.0-6.0-4.51","4051722","co38683","norming","","","","","","",""
"null","../img/tt/1243tt.jpg","null","mooney2","image-keyboard-response","368","2534702","0.0-6.0-5.51","4051722","co38683","norming","","","","","","",""
"4379.710000008345","","","post_reveal_questions","survey-likert","369","2539085","0.0-6.0-6.51","4051722","co38683","norming","","","{""aha"":3}","[0]","../img/tt/1243tt.jpg","",""
"null","<div style=""font-size:60px;""> </div>","null","fixation","html-keyboard-response","370","2539289","0.0-6.0-0.52","4051722","co38683","norming","","","","","","",""
"null","../img/tt/1096tt.jpg","null","mooney1","image-keyboard-response","371","2542293","0.0-6.0-1.52","4051722","co38683","norming","","","","","","",""
"11510.93500002753","","","post_mooney1_questions","survey-likert","372","2553810","0.0-6.0-2.52","4051722","co38683","norming","","","{""curiosity"":4,""confidence"":3}","[0,1]","../img/tt/1096tt.jpg","",""
"43892.98000000417","","","recognition","survey-text","373","2597710","0.0-6.0-3.52","4051722","co38683","norming","","","{""guess"":""""}","","../img/tt/1096tt.jpg","",""
"null","../img/gs/1096gs.jpg","null","reveal","image-keyboard-response","374","2599715","0.0-6.0-4.52","4051722","co38683","norming","","","","","","",""
"null","../img/tt/1096tt.jpg","null","mooney2","image-keyboard-response","375","2601718","0.0-6.0-5.52","4051722","co38683","norming","","","","","","",""
"27342.064999975264","","","post_reveal_questions","survey-likert","376","2629064","0.0-6.0-6.52","4051722","co38683","norming","","","{""aha"":4}","[0]","../img/tt/1096tt.jpg","",""
"null","<div style=""font-size:60px;""> </div>","null","fixation","html-keyboard-response","377","2629268","0.0-6.0-0.53","4051722","co38683","norming","","","","","","",""
"null","../img/tt/060tt.jpg","null","mooney1","image-keyboard-response","378","2632272","0.0-6.0-1.53","4051722","co38683","norming","","","","","","",""
"6749.270000029355","","","post_mooney1_questions","survey-likert","379","2639026","0.0-6.0-2.53","4051722","co38683","norming","","","{""curiosity"":5,""confidence"":1}","[0,1]","../img/tt/060tt.jpg","",""
"5270.570000051521","","","recognition","survey-text","380","2644303","0.0-6.0-3.53","4051722","co38683","norming","","","{""guess"":""shor""}","","../img/tt/060tt.jpg","",""
"null","../img/gs/060gs.jpg","null","reveal","image-keyboard-response","381","2646305","0.0-6.0-4.53","4051722","co38683","norming","","","","","","",""
"null","../img/tt/060tt.jpg","null","mooney2","image-keyboard-response","382","2648308","0.0-6.0-5.53","4051722","co38683","norming","","","","","","",""
"40859.489999944344","","","post_reveal_questions","survey-likert","383","2689172","0.0-6.0-6.53","4051722","co38683","norming","","","{""aha"":5}","[0]","../img/tt/060tt.jpg","",""
"null","<div style=""font-size:60px;""> </div>","null","fixation","html-keyboard-response","384","2689377","0.0-6.0-0.54","4051722","co38683","norming","","","","","","",""
"null","../img/tt/1043tt.jpg","null","mooney1","image-keyboard-response","385","2692382","0.0-6.0-1.54","4051722","co38683","norming","","","","","","",""
"9505.43000001926","","","post_mooney1_questions","survey-likert","386","2701892","0.0-6.0-2.54","4051722","co38683","norming","","","{""curiosity"":5,""confidence"":4}","[0,1]","../img/tt/1043tt.jpg","",""
"2867.050000000745","","","recognition","survey-text","387","2704766","0.0-6.0-3.54","4051722","co38683","norming","","","{""guess"":""""}","","../img/tt/1043tt.jpg","",""
"null","../img/gs/1043gs.jpg","null","reveal","image-keyboard-response","388","2706770","0.0-6.0-4.54","4051722","co38683","norming","","","","","","",""
"null","../img/tt/1043tt.jpg","null","mooney2","image-keyboard-response","389","2708773","0.0-6.0-5.54","4051722","co38683","norming","","","","","","",""
"9775.934999925084","","","post_reveal_questions","survey-likert","390","2718553","0.0-6.0-6.54","4051722","co38683","norming","","","{""aha"":4}","[0]","../img/tt/1043tt.jpg","",""
"null","<div style=""font-size:60px;""> </div>","null","fixation","html-keyboard-response","391","2718756","0.0-6.0-0.55","4051722","co38683","norming","","","","","","",""
"null","../img/tt/056tt.jpg","null","mooney1","image-keyboard-response","392","2721761","0.0-6.0-1.55","4051722","co38683","norming","","","","","","",""
"6326.6500000609085","","","post_mooney1_questions","survey-likert","393","2728092","0.0-6.0-2.55","4051722","co38683","norming","","","{""curiosity"":5,""confidence"":5}","[0,1]","../img/tt/056tt.jpg","",""
"3105.6850000750273","","","recognition","survey-text","394","2731205","0.0-6.0-3.55","4051722","co38683","norming","","","{""guess"":""tiger""}","","../img/tt/056tt.jpg","",""
"null","../img/gs/056gs.jpg","null","reveal","image-keyboard-response","395","2733207","0.0-6.0-4.55","4051722","co38683","norming","","","","","","",""
"null","../img/tt/056tt.jpg","null","mooney2","image-keyboard-response","396","2735208","0.0-6.0-5.55","4051722","co38683","norming","","","","","","",""
"10538.915000041015","","","post_reveal_questions","survey-likert","397","2745751","0.0-6.0-6.55","4051722","co38683","norming","","","{""aha"":4}","[0]","../img/tt/056tt.jpg","",""
"null","<div style=""font-size:60px;""> </div>","null","fixation","html-keyboard-response","398","2745956","0.0-6.0-0.56","4051722","co38683","norming","","","","","","",""
"null","../img/tt/1211tt.jpg","null","mooney1","image-keyboard-response","399","2748959","0.0-6.0-1.56","4051722","co38683","norming","","","","","","",""
"5982.3900000192225","","","post_mooney1_questions","survey-likert","400","2754946","0.0-6.0-2.56","4051722","co38683","norming","","","{""curiosity"":5,""confidence"":1}","[0,1]","../img/tt/1211tt.jpg","",""
"2780.365000013262","","","recognition","survey-text","401","2757733","0.0-6.0-3.56","4051722","co38683","norming","","","{""guess"":""""}","","../img/tt/1211tt.jpg","",""
"null","../img/gs/1211gs.jpg","null","reveal","image-keyboard-response","402","2759737","0.0-6.0-4.56","4051722","co38683","norming","","","","","","",""
"null","../img/tt/1211tt.jpg","null","mooney2","image-keyboard-response","403","2761740","0.0-6.0-5.56","4051722","co38683","norming","","","","","","",""
"26040.700000012293","","","post_reveal_questions","survey-likert","404","2787785","0.0-6.0-6.56","4051722","co38683","norming","","","{""aha"":5}","[0]","../img/tt/1211tt.jpg","",""
"null","<div style=""font-size:60px;""> </div>","null","fixation","html-keyboard-response","405","2787989","0.0-6.0-0.57","4051722","co38683","norming","","","","","","",""
"null","../img/tt/603tt.jpg","null","mooney1","image-keyboard-response","406","2790991","0.0-6.0-1.57","4051722","co38683","norming","","","","","","",""
"5191.119999974035","","","post_mooney1_questions","survey-likert","407","2796185","0.0-6.0-2.57","4051722","co38683","norming","","","{""curiosity"":5,""confidence"":3}","[0,1]","../img/tt/603tt.jpg","",""
"8270.015000016429","","","recognition","survey-text","408","2804462","0.0-6.0-3.57","4051722","co38683","norming","","","{""guess"":""auto""}","","../img/tt/603tt.jpg","",""
"null","../img/gs/603gs.jpg","null","reveal","image-keyboard-response","409","2806464","0.0-6.0-4.57","4051722","co38683","norming","","","","","","",""
"null","../img/tt/603tt.jpg","null","mooney2","image-keyboard-response","410","2808468","0.0-6.0-5.57","4051722","co38683","norming","","","","","","",""
"8134.545000037178","","","post_reveal_questions","survey-likert","411","2816607","0.0-6.0-6.57","4051722","co38683","norming","","","{""aha"":6}","[0]","../img/tt/603tt.jpg","",""
"null","<div style=""font-size:60px;""> </div>","null","fixation","html-keyboard-response","412","2816811","0.0-6.0-0.58","4051722","co38683","norming","","","","","","",""
"null","../img/tt/1196tt.jpg","null","mooney1","image-keyboard-response","413","2819815","0.0-6.0-1.58","4051722","co38683","norming","","","","","","",""
"6128.069999977015","","","post_mooney1_questions","survey-likert","414","2825947","0.0-6.0-2.58","4051722","co38683","norming","","","{""curiosity"":5,""confidence"":2}","[0,1]","../img/tt/1196tt.jpg","",""
"4358.1900000572205","","","recognition","survey-text","415","2830312","0.0-6.0-3.58","4051722","co38683","norming","","","{""guess"":""presentation""}","","../img/tt/1196tt.jpg","",""
"null","../img/gs/1196gs.jpg","null","reveal","image-keyboard-response","416","2832314","0.0-6.0-4.58","4051722","co38683","norming","","","","","","",""
"null","../img/tt/1196tt.jpg","null","mooney2","image-keyboard-response","417","2834318","0.0-6.0-5.58","4051722","co38683","norming","","","","","","",""
"2983.5600000806153","","","post_reveal_questions","survey-likert","418","2837306","0.0-6.0-6.58","4051722","co38683","norming","","","{""aha"":4}","[0]","../img/tt/1196tt.jpg","",""
"null","<div style=""font-size:60px;""> </div>","null","fixation","html-keyboard-response","419","2837510","0.0-6.0-0.59","4051722","co38683","norming","","","","","","",""
"null","../img/tt/438tt.jpg","null","mooney1","image-keyboard-response","420","2840515","0.0-6.0-1.59","4051722","co38683","norming","","","","","","",""
"6823.475000099279","","","post_mooney1_questions","survey-likert","421","2847344","0.0-6.0-2.59","4051722","co38683","norming","","","{""curiosity"":4,""confidence"":6}","[0,1]","../img/tt/438tt.jpg","",""
"2623.2249999884516","","","recognition","survey-text","422","2849973","0.0-6.0-3.59","4051722","co38683","norming","","","{""guess"":""snake""}","","../img/tt/438tt.jpg","",""
"null","../img/gs/438gs.jpg","null","reveal","image-keyboard-response","423","2851977","0.0-6.0-4.59","4051722","co38683","norming","","","","","","",""
"null","../img/tt/438tt.jpg","null","mooney2","image-keyboard-response","424","2853980","0.0-6.0-5.59","4051722","co38683","norming","","","","","","",""
"8471.474999911152","","","post_reveal_questions","survey-likert","425","2862455","0.0-6.0-6.59","4051722","co38683","norming","","","{""aha"":4}","[0]","../img/tt/438tt.jpg","",""
"null","<div style=""font-size:60px;""> </div>","null","fixation","html-keyboard-response","426","2862660","0.0-6.0-0.60","4051722","co38683","norming","","","","","","",""
"null","../img/tt/1260tt.jpg","null","mooney1","image-keyboard-response","427","2865665","0.0-6.0-1.60","4051722","co38683","norming","","","","","","",""
"4817.38999998197","","","post_mooney1_questions","survey-likert","428","2870488","0.0-6.0-2.60","4051722","co38683","norming","","","{""curiosity"":5,""confidence"":5}","[0,1]","../img/tt/1260tt.jpg","",""
"2469.5150000043213","","","recognition","survey-text","429","2872964","0.0-6.0-3.60","4051722","co38683","norming","","","{""guess"":""rat""}","","../img/tt/1260tt.jpg","",""
"null","../img/gs/1260gs.jpg","null","reveal","image-keyboard-response","430","2874967","0.0-6.0-4.60","4051722","co38683","norming","","","","","","",""
"null","../img/tt/1260tt.jpg","null","mooney2","image-keyboard-response","431","2876970","0.0-6.0-5.60","4051722","co38683","norming","","","","","","",""
"3776.090000057593","","","post_reveal_questions","survey-likert","432","2880750","0.0-6.0-6.60","4051722","co38683","norming","","","{""aha"":5}","[0]","../img/tt/1260tt.jpg","",""
"null","<div style=""font-size:60px;""> </div>","null","fixation","html-keyboard-response","433","2880954","0.0-6.0-0.61","4051722","co38683","norming","","","","","","",""
"null","../img/tt/1087tt.jpg","null","mooney1","image-keyboard-response","434","2883958","0.0-6.0-1.61","4051722","co38683","norming","","","","","","",""
"5002.839999971911","","","post_mooney1_questions","survey-likert","435","2888966","0.0-6.0-2.61","4051722","co38683","norming","","","{""curiosity"":5,""confidence"":1}","[0,1]","../img/tt/1087tt.jpg","",""
"4575.744999921881","","","recognition","survey-text","436","2893546","0.0-6.0-3.61","4051722","co38683","norming","","","{""guess"":""goats""}","","../img/tt/1087tt.jpg","",""
"null","../img/gs/1087gs.jpg","null","reveal","image-keyboard-response","437","2895549","0.0-6.0-4.61","4051722","co38683","norming","","","","","","",""
"null","../img/tt/1087tt.jpg","null","mooney2","image-keyboard-response","438","2897552","0.0-6.0-5.61","4051722","co38683","norming","","","","","","",""
"4340.779999969527","","","post_reveal_questions","survey-likert","439","2901894","0.0-6.0-6.61","4051722","co38683","norming","","","{""aha"":4}","[0]","../img/tt/1087tt.jpg","",""
"null","<div style=""font-size:60px;""> </div>","null","fixation","html-keyboard-response","440","2902096","0.0-6.0-0.62","4051722","co38683","norming","","","","","","",""
"null","../img/tt/435tt.jpg","null","mooney1","image-keyboard-response","441","2905099","0.0-6.0-1.62","4051722","co38683","norming","","","","","","",""
"6473.995000007562","","","post_mooney1_questions","survey-likert","442","2911575","0.0-6.0-2.62","4051722","co38683","norming","","","{""curiosity"":5,""confidence"":5}","[0,1]","../img/tt/435tt.jpg","",""
"4803.025000030175","","","recognition","survey-text","443","2916380","0.0-6.0-3.62","4051722","co38683","norming","","","{""guess"":""pooltable""}","","../img/tt/435tt.jpg","",""
"null","../img/gs/435gs.jpg","null","reveal","image-keyboard-response","444","2918383","0.0-6.0-4.62","4051722","co38683","norming","","","","","","",""
"null","../img/tt/435tt.jpg","null","mooney2","image-keyboard-response","445","2920386","0.0-6.0-5.62","4051722","co38683","norming","","","","","","",""
"18059.329999960028","","","post_reveal_questions","survey-likert","446","2938449","0.0-6.0-6.62","4051722","co38683","norming","","","{""aha"":2}","[0]","../img/tt/435tt.jpg","",""
"null","<div style=""font-size:60px;""> </div>","null","fixation","html-keyboard-response","447","2938652","0.0-6.0-0.63","4051722","co38683","norming","","","","","","",""
"null","../img/tt/380tt.jpg","null","mooney1","image-keyboard-response","448","2941657","0.0-6.0-1.63","4051722","co38683","norming","","","","","","",""
"9212.094999966212","","","post_mooney1_questions","survey-likert","449","2950874","0.0-6.0-2.63","4051722","co38683","norming","","","{""curiosity"":5,""confidence"":0}","[0,1]","../img/tt/380tt.jpg","",""
"1316.3100000238046","","","recognition","survey-text","450","2952199","0.0-6.0-3.63","4051722","co38683","norming","","","{""guess"":""""}","","../img/tt/380tt.jpg","",""
"null","../img/gs/380gs.jpg","null","reveal","image-keyboard-response","451","2954203","0.0-6.0-4.63","4051722","co38683","norming","","","","","","",""
"null","../img/tt/380tt.jpg","null","mooney2","image-keyboard-response","452","2956207","0.0-6.0-5.63","4051722","co38683","norming","","","","","","",""
"2872.854999965057","","","post_reveal_questions","survey-likert","453","2959084","0.0-6.0-6.63","4051722","co38683","norming","","","{""aha"":4}","[0]","../img/tt/380tt.jpg","",""
"null","<div style=""font-size:60px;""> </div>","null","fixation","html-keyboard-response","454","2959288","0.0-6.0-0.64","4051722","co38683","norming","","","","","","",""
"null","../img/tt/082tt.jpg","null","mooney1","image-keyboard-response","455","2962293","0.0-6.0-1.64","4051722","co38683","norming","","","","","","",""
"6623.7200000323355","","","post_mooney1_questions","survey-likert","456","2968921","0.0-6.0-2.64","4051722","co38683","norming","","","{""curiosity"":4,""confidence"":0}","[0,1]","../img/tt/082tt.jpg","",""
"1275.870000012219","","","recognition","survey-text","457","2970204","0.0-6.0-3.64","4051722","co38683","norming","","","{""guess"":""""}","","../img/tt/082tt.jpg","",""
"null","../img/gs/082gs.jpg","null","reveal","image-keyboard-response","458","2972210","0.0-6.0-4.64","4051722","co38683","norming","","","","","","",""
"null","../img/tt/082tt.jpg","null","mooney2","image-keyboard-response","459","2974213","0.0-6.0-5.64","4051722","co38683","norming","","","","","","",""
"6305.685000028461","","","post_reveal_questions","survey-likert","460","2980522","0.0-6.0-6.64","4051722","co38683","norming","","","{""aha"":5}","[0]","../img/tt/082tt.jpg","",""
"null","<div style=""font-size:60px;""> </div>","null","fixation","html-keyboard-response","461","2980727","0.0-6.0-0.65","4051722","co38683","norming","","","","","","",""
"null","../img/tt/1173tt.jpg","null","mooney1","image-keyboard-response","462","2983731","0.0-6.0-1.65","4051722","co38683","norming","","","","","","",""
"4601.845000055619","","","post_mooney1_questions","survey-likert","463","2988338","0.0-6.0-2.65","4051722","co38683","norming","","","{""curiosity"":5,""confidence"":5}","[0,1]","../img/tt/1173tt.jpg","",""
"5697.149999905378","","","recognition","survey-text","464","2994045","0.0-6.0-3.65","4051722","co38683","norming","","","{""guess"":""playing kids""}","","../img/tt/1173tt.jpg","",""
"null","../img/gs/1173gs.jpg","null","reveal","image-keyboard-response","465","2996047","0.0-6.0-4.65","4051722","co38683","norming","","","","","","",""
"null","../img/tt/1173tt.jpg","null","mooney2","image-keyboard-response","466","2998050","0.0-6.0-5.65","4051722","co38683","norming","","","","","","",""
"14118.40499995742","","","post_reveal_questions","survey-likert","467","3012173","0.0-6.0-6.65","4051722","co38683","norming","","","{""aha"":2}","[0]","../img/tt/1173tt.jpg","",""
"null","<div style=""font-size:60px;""> </div>","null","fixation","html-keyboard-response","468","3012376","0.0-6.0-0.66","4051722","co38683","norming","","","","","","",""
"null","../img/tt/1239tt.jpg","null","mooney1","image-keyboard-response","469","3015379","0.0-6.0-1.66","4051722","co38683","norming","","","","","","",""
"5293.71999995783","","","post_mooney1_questions","survey-likert","470","3020675","0.0-6.0-2.66","4051722","co38683","norming","","","{""curiosity"":4,""confidence"":6}","[0,1]","../img/tt/1239tt.jpg","",""
"2999.625000054948","","","recognition","survey-text","471","3023681","0.0-6.0-3.66","4051722","co38683","norming","","","{""guess"":""dog""}","","../img/tt/1239tt.jpg","",""
"null","../img/gs/1239gs.jpg","null","reveal","image-keyboard-response","472","3025683","0.0-6.0-4.66","4051722","co38683","norming","","","","","","",""
"null","../img/tt/1239tt.jpg","null","mooney2","image-keyboard-response","473","3027686","0.0-6.0-5.66","4051722","co38683","norming","","","","","","",""
"5890.774999978021","","","post_reveal_questions","survey-likert","474","3033580","0.0-6.0-6.66","4051722","co38683","norming","","","{""aha"":2}","[0]","../img/tt/1239tt.jpg","",""
"null","<div style=""font-size:60px;""> </div>","null","fixation","html-keyboard-response","475","3033784","0.0-6.0-0.67","4051722","co38683","norming","","","","","","",""
"null","../img/tt/300tt.jpg","null","mooney1","image-keyboard-response","476","3036789","0.0-6.0-1.67","4051722","co38683","norming","","","","","","",""
"6592.880000011064","","","post_mooney1_questions","survey-likert","477","3043386","0.0-6.0-2.67","4051722","co38683","norming","","","{""curiosity"":3,""confidence"":6}","[0,1]","../img/tt/300tt.jpg","",""
"6693.840000079945","","","recognition","survey-text","478","3050082","0.0-6.0-3.67","4051722","co38683","norming","","","{""guess"":""sitting man""}","","../img/tt/300tt.jpg","",""
"null","../img/gs/300gs.jpg","null","reveal","image-keyboard-response","479","3052085","0.0-6.0-4.67","4051722","co38683","norming","","","","","","",""
"null","../img/tt/300tt.jpg","null","mooney2","image-keyboard-response","480","3054088","0.0-6.0-5.67","4051722","co38683","norming","","","","","","",""
"2788.82999997586","","","post_reveal_questions","survey-likert","481","3056880","0.0-6.0-6.67","4051722","co38683","norming","","","{""aha"":2}","[0]","../img/tt/300tt.jpg","",""
"null","<div style=""font-size:60px;""> </div>","null","fixation","html-keyboard-response","482","3057083","0.0-6.0-0.68","4051722","co38683","norming","","","","","","",""
"null","../img/tt/522tt.jpg","null","mooney1","image-keyboard-response","483","3060088","0.0-6.0-1.68","4051722","co38683","norming","","","","","","",""
"6222.73999999743","","","post_mooney1_questions","survey-likert","484","3066314","0.0-6.0-2.68","4051722","co38683","norming","","","{""curiosity"":5,""confidence"":0}","[0,1]","../img/tt/522tt.jpg","",""
"1452.515000011772","","","recognition","survey-text","485","3067775","0.0-6.0-3.68","4051722","co38683","norming","","","{""guess"":""""}","","../img/tt/522tt.jpg","",""
"null","../img/gs/522gs.jpg","null","reveal","image-keyboard-response","486","3069779","0.0-6.0-4.68","4051722","co38683","norming","","","","","","",""
"null","../img/tt/522tt.jpg","null","mooney2","image-keyboard-response","487","3071783","0.0-6.0-5.68","4051722","co38683","norming","","","","","","",""
"3444.305000011809","","","post_reveal_questions","survey-likert","488","3075231","0.0-6.0-6.68","4051722","co38683","norming","","","{""aha"":6}","[0]","../img/tt/522tt.jpg","",""
"null","<div style=""font-size:60px;""> </div>","null","fixation","html-keyboard-response","489","3075435","0.0-6.0-0.69","4051722","co38683","norming","","","","","","",""
"null","../img/tt/1171tt.jpg","null","mooney1","image-keyboard-response","490","3078439","0.0-6.0-1.69","4051722","co38683","norming","","","","","","",""
"4902.930000098422","","","post_mooney1_questions","survey-likert","491","3083348","0.0-6.0-2.69","4051722","co38683","norming","","","{""curiosity"":5,""confidence"":1}","[0,1]","../img/tt/1171tt.jpg","",""
"3025.5000001052395","","","recognition","survey-text","492","3086381","0.0-6.0-3.69","4051722","co38683","norming","","","{""guess"":""church""}","","../img/tt/1171tt.jpg","",""
"null","../img/gs/1171gs.jpg","null","reveal","image-keyboard-response","493","3088384","0.0-6.0-4.69","4051722","co38683","norming","","","","","","",""
"null","../img/tt/1171tt.jpg","null","mooney2","image-keyboard-response","494","3090386","0.0-6.0-5.69","4051722","co38683","norming","","","","","","",""
"3998.2249999884516","","","post_reveal_questions","survey-likert","495","3094389","0.0-6.0-6.69","4051722","co38683","norming","","","{""aha"":4}","[0]","../img/tt/1171tt.jpg","",""
"null","<div style=""font-size:60px;""> </div>","null","fixation","html-keyboard-response","496","3094593","0.0-6.0-0.70","4051722","co38683","norming","","","","","","",""
"null","../img/tt/1027tt.jpg","null","mooney1","image-keyboard-response","497","3097597","0.0-6.0-1.70","4051722","co38683","norming","","","","","","",""
"5840.654999949038","","","post_mooney1_questions","survey-likert","498","3103445","0.0-6.0-2.70","4051722","co38683","norming","","","{""curiosity"":4,""confidence"":5}","[0,1]","../img/tt/1027tt.jpg","",""
"2635.969999944791","","","recognition","survey-text","499","3106087","0.0-6.0-3.70","4051722","co38683","norming","","","{""guess"":""cow""}","","../img/tt/1027tt.jpg","",""
"null","../img/gs/1027gs.jpg","null","reveal","image-keyboard-response","500","3108089","0.0-6.0-4.70","4051722","co38683","norming","","","","","","",""
"null","../img/tt/1027tt.jpg","null","mooney2","image-keyboard-response","501","3110092","0.0-6.0-5.70","4051722","co38683","norming","","","","","","",""
"4223.265000036918","","","post_reveal_questions","survey-likert","502","3114319","0.0-6.0-6.70","4051722","co38683","norming","","","{""aha"":0}","[0]","../img/tt/1027tt.jpg","",""
"null","<div style=""font-size:60px;""> </div>","null","fixation","html-keyboard-response","503","3114523","0.0-6.0-0.71","4051722","co38683","norming","","","","","","",""
"null","../img/tt/549tt.jpg","null","mooney1","image-keyboard-response","504","3117528","0.0-6.0-1.71","4051722","co38683","norming","","","","","","",""
"6078.905000002123","","","post_mooney1_questions","survey-likert","505","3123611","0.0-6.0-2.71","4051722","co38683","norming","","","{""curiosity"":4,""confidence"":0}","[0,1]","../img/tt/549tt.jpg","",""
"1461.405000067316","","","recognition","survey-text","506","3125080","0.0-6.0-3.71","4051722","co38683","norming","","","{""guess"":""""}","","../img/tt/549tt.jpg","",""
"null","../img/gs/549gs.jpg","null","reveal","image-keyboard-response","507","3127084","0.0-6.0-4.71","4051722","co38683","norming","","","","","","",""
"null","../img/tt/549tt.jpg","null","mooney2","image-keyboard-response","508","3129086","0.0-6.0-5.71","4051722","co38683","norming","","","","","","",""
"5167.434999952093","","","post_reveal_questions","survey-likert","509","3134259","0.0-6.0-6.71","4051722","co38683","norming","","","{""aha"":5}","[0]","../img/tt/549tt.jpg","",""
"null","<div style=""font-size:60px;""> </div>","null","fixation","html-keyboard-response","510","3134466","0.0-6.0-0.72","4051722","co38683","norming","","","","","","",""
"null","../img/tt/019tt.jpg","null","mooney1","image-keyboard-response","511","3137471","0.0-6.0-1.72","4051722","co38683","norming","","","","","","",""
"4610.224999953061","","","post_mooney1_questions","survey-likert","512","3142088","0.0-6.0-2.72","4051722","co38683","norming","","","{""curiosity"":5,""confidence"":5}","[0,1]","../img/tt/019tt.jpg","",""
"4498.464999953285","","","recognition","survey-text","513","3146594","0.0-6.0-3.72","4051722","co38683","norming","","","{""guess"":""nijptang""}","","../img/tt/019tt.jpg","",""
"null","../img/gs/019gs.jpg","null","reveal","image-keyboard-response","514","3148597","0.0-6.0-4.72","4051722","co38683","norming","","","","","","",""
"null","../img/tt/019tt.jpg","null","mooney2","image-keyboard-response","515","3150600","0.0-6.0-5.72","4051722","co38683","norming","","","","","","",""
"10752.494999906048","","","post_reveal_questions","survey-likert","516","3161356","0.0-6.0-6.72","4051722","co38683","norming","","","{""aha"":4}","[0]","../img/tt/019tt.jpg","",""
"null","<div style=""font-size:60px;""> </div>","null","fixation","html-keyboard-response","517","3161560","0.0-6.0-0.73","4051722","co38683","norming","","","","","","",""
"null","../img/tt/1228tt.jpg","null","mooney1","image-keyboard-response","518","3164565","0.0-6.0-1.73","4051722","co38683","norming","","","","","","",""
"5862.900000065565","","","post_mooney1_questions","survey-likert","519","3170433","0.0-6.0-2.73","4051722","co38683","norming","","","{""curiosity"":5,""confidence"":1}","[0,1]","../img/tt/1228tt.jpg","",""
"2982.560000033118","","","recognition","survey-text","520","3173423","0.0-6.0-3.73","4051722","co38683","norming","","","{""guess"":""animals""}","","../img/tt/1228tt.jpg","",""
"null","../img/gs/1228gs.jpg","null","reveal","image-keyboard-response","521","3175427","0.0-6.0-4.73","4051722","co38683","norming","","","","","","",""
"null","../img/tt/1228tt.jpg","null","mooney2","image-keyboard-response","522","3177431","0.0-6.0-5.73","4051722","co38683","norming","","","","","","",""
"9937.43499997072","","","post_reveal_questions","survey-likert","523","3187373","0.0-6.0-6.73","4051722","co38683","norming","","","{""aha"":4}","[0]","../img/tt/1228tt.jpg","",""
"null","<div style=""font-size:60px;""> </div>","null","fixation","html-keyboard-response","524","3187576","0.0-6.0-0.74","4051722","co38683","norming","","","","","","",""
"null","../img/tt/1151tt.jpg","null","mooney1","image-keyboard-response","525","3190580","0.0-6.0-1.74","4051722","co38683","norming","","","","","","",""
"9921.284999931231","","","post_mooney1_questions","survey-likert","526","3200507","0.0-6.0-2.74","4051722","co38683","norming","","","{""curiosity"":4,""confidence"":0}","[0,1]","../img/tt/1151tt.jpg","",""
"1131.0450000455603","","","recognition","survey-text","527","3201646","0.0-6.0-3.74","4051722","co38683","norming","","","{""guess"":""""}","","../img/tt/1151tt.jpg","",""
"null","../img/gs/1151gs.jpg","null","reveal","image-keyboard-response","528","3203651","0.0-6.0-4.74","4051722","co38683","norming","","","","","","",""
"null","../img/tt/1151tt.jpg","null","mooney2","image-keyboard-response","529","3205655","0.0-6.0-5.74","4051722","co38683","norming","","","","","","",""
"3735.370000009425","","","post_reveal_questions","survey-likert","530","3209394","0.0-6.0-6.74","4051722","co38683","norming","","","{""aha"":6}","[0]","../img/tt/1151tt.jpg","",""
"null","<div style=""font-size:60px;""> </div>","null","fixation","html-keyboard-response","531","3209598","0.0-6.0-0.75","4051722","co38683","norming","","","","","","",""
"null","../img/tt/1122tt.jpg","null","mooney1","image-keyboard-response","532","3212602","0.0-6.0-1.75","4051722","co38683","norming","","","","","","",""
"4395.254999981262","","","post_mooney1_questions","survey-likert","533","3217002","0.0-6.0-2.75","4051722","co38683","norming","","","{""curiosity"":5,""confidence"":5}","[0,1]","../img/tt/1122tt.jpg","",""
"3078.2800000160933","","","recognition","survey-text","534","3220087","0.0-6.0-3.75","4051722","co38683","norming","","","{""guess"":""docks""}","","../img/tt/1122tt.jpg","",""
"null","../img/gs/1122gs.jpg","null","reveal","image-keyboard-response","535","3222090","0.0-6.0-4.75","4051722","co38683","norming","","","","","","",""
"null","../img/tt/1122tt.jpg","null","mooney2","image-keyboard-response","536","3224093","0.0-6.0-5.75","4051722","co38683","norming","","","","","","",""
"15160.969999968074","","","post_reveal_questions","survey-likert","537","3239257","0.0-6.0-6.75","4051722","co38683","norming","","","{""aha"":5}","[0]","../img/tt/1122tt.jpg","",""
"null","<div style=""font-size:60px;""> </div>","null","fixation","html-keyboard-response","538","3239461","0.0-6.0-0.76","4051722","co38683","norming","","","","","","",""
"null","../img/tt/1200tt.jpg","null","mooney1","image-keyboard-response","539","3242463","0.0-6.0-1.76","4051722","co38683","norming","","","","","","",""
"28736.64000001736","","","post_mooney1_questions","survey-likert","540","3271205","0.0-6.0-2.76","4051722","co38683","norming","","","{""curiosity"":5,""confidence"":0}","[0,1]","../img/tt/1200tt.jpg","",""
"4424.469999969006","","","recognition","survey-text","541","3275636","0.0-6.0-3.76","4051722","co38683","norming","","","{""guess"":""bridge""}","","../img/tt/1200tt.jpg","",""
"null","../img/gs/1200gs.jpg","null","reveal","image-keyboard-response","542","3277639","0.0-6.0-4.76","4051722","co38683","norming","","","","","","",""
"null","../img/tt/1200tt.jpg","null","mooney2","image-keyboard-response","543","3279641","0.0-6.0-5.76","4051722","co38683","norming","","","","","","",""
"7007.295000017621","","","post_reveal_questions","survey-likert","544","3286653","0.0-6.0-6.76","4051722","co38683","norming","","","{""aha"":3}","[0]","../img/tt/1200tt.jpg","",""
"null","<div style=""font-size:60px;""> </div>","null","fixation","html-keyboard-response","545","3286857","0.0-6.0-0.77","4051722","co38683","norming","","","","","","",""
"null","../img/tt/049tt.jpg","null","mooney1","image-keyboard-response","546","3289862","0.0-6.0-1.77","4051722","co38683","norming","","","","","","",""
"5801.785000017844","","","post_mooney1_questions","survey-likert","547","3295666","0.0-6.0-2.77","4051722","co38683","norming","","","{""curiosity"":5,""confidence"":0}","[0,1]","../img/tt/049tt.jpg","",""
"1387.540000025183","","","recognition","survey-text","548","3297061","0.0-6.0-3.77","4051722","co38683","norming","","","{""guess"":""""}","","../img/tt/049tt.jpg","",""
"null","../img/gs/049gs.jpg","null","reveal","image-keyboard-response","549","3299066","0.0-6.0-4.77","4051722","co38683","norming","","","","","","",""
"null","../img/tt/049tt.jpg","null","mooney2","image-keyboard-response","550","3301069","0.0-6.0-5.77","4051722","co38683","norming","","","","","","",""
"5393.98000005167","","","post_reveal_questions","survey-likert","551","3306467","0.0-6.0-6.77","4051722","co38683","norming","","","{""aha"":4}","[0]","../img/tt/049tt.jpg","",""
