"rt","stimulus","key_press","test_part","trial_type","trial_index","time_elapsed","internal_node_id","totalTime","subject","experiment_name","button_pressed","success","responses","question_order","currentStim","old","correct"
"6621.739999973215","Welcome to the experiment. This is an online experiment so please don't close the tab/window until we say goodbye.  Press any key to begin.","32","instructions","html-keyboard-response","0","6678","0.0-0.0","2943335","co38689","norming","","","","","","",""
"10928.280000109226","<div style='word-wrap: break-word; width: 900px'><h3>Please consider this information carefully before deciding whether to participate in this research</h3><ul style='text-align: left; font-size: .8em;'><li><b>Purpose of the research</b>: To examine how people process images.</li><li><b>What you will do in this research</b>:  Stimuli (images) will be presented on the computer and you will be asked different questions about them.</li><li><b>Time required</b>: Participation will take between 45 and 60 minutes to complete.</li><li><b>Risks</b>:  There are no anticipated risks associated with participating in this study. The effects of participating should be comparable to those you would experience from viewing a computer monitor for 30 minutes and using a mouse or keyboard.</li><li><b>Benefits</b>:  This study provides no benefits to you individually except for the credit. The study provides important information about the nature of perception and learning.</li><li><b>Confidentiality</b>:  Your participation in this study will remain confidential. No personally identifiable information will be associated with your data. Your de-identified data may be shared with other researchers and used in future projects.</li><li><b>Participation and withdrawal</b>:  Your participation in this study is completely voluntary and you may refuse to participate or you may choose to withdraw at any time without penalty.</li><li><b>How to contact the researchers</b>: If you have questions or concerns about your participation or payment, or want to request a summary of research findings, please contact Sander Van de Cruys (KU Leuven), at sander.vandecruys@kuleuven.be.</li></ul><p>The nature and purpose of this research have been sufficiently explained and I agree to participate in this study.  I understand that I am free to withdraw at any time without incurring any penalty.</p><p>Please consent by clicking the button below to continue. Otherwise, please exit the study at this time.</p></div>","","instructions","html-button-response","1","17610","0.0-1.0","2943335","co38689","norming","0","","","","","",""
"","","","instructions","fullscreen","2","25078","0.0-2.0","2943335","co38689","norming","","true","","","","",""
"27436.085000052117","","","sona","survey-html-form","3","52519","0.0-3.0","2943335","co38689","norming","","","[{""name"":""sonaid"",""value"":""38689""},{""name"":""debrief"",""value"":""yes""},{""name"":""datajoin"",""value"":""yes""}]","","","",""
"108005.12500002515","<div style='word-wrap: break-word; width: 900px'><h3>Instructions</h3><p>This experiment will have 3 parts. In the first part you will see a series of distorted images like the one below on the left. As you can see in the righthand image, the distorted images are derived from actual photographs. In what follows, you will <strong>briefly</strong> be presented with <strong>only</strong> the distorted image.</p> <div style='float: left; margin-right: 20px;'><img src='../img/018tt.jpg' height='250' width='250'></img></div><div style='float: right; margin-left: 20px;'><img src='../img/018gs.jpg' height='250' width='250'></img></div><p>Subsequently you will be asked a few questions about the image: One question on how <strong>curious</strong> you are about the solution and one on how <strong>confident</strong> you are that you know the solution.</p>Next, we ask you to make a guess on what is in the image. Note that it is OK to name just the <strong>basic level category</strong>. For example when you see a parrot in the image, 'parrot' will obviously be a correct answer but also correct is 'bird'. However, 'animal' will <strong>not</strong> be counted as a correct response. For the example above, 'rose' would be correct or 'flower', but not 'plant'. When soccer players are depicted, 'soccer', 'football', 'soccer players' will be correct, but not 'humans', 'outdoors', or 'sports'. You do not need to describe the image in full, just name the main object in it <strong>in one or two words</strong>. All images depict objects from one of the following broad level categories: animals, inanimate objects, plants, sports, vehicles, and food. Recognizing means knowing <strong>more</strong> than these broad labels for a given image. But we always encourage you to <strong>make a guess</strong> if you can. Note that you are allowed to use <strong>Dutch and English</strong> in your answers, whatever comes easiest for you.</p><p>Press any key to continue.</p></div>","32","instructions","html-keyboard-response","4","160529","0.0-4.0","2943335","co38689","norming","","","","","","",""
"27422.44499991648","<div style='word-wrap: break-word; width: 900px'><h3>Instructions</h3> <p>Next, the solution image will be revealed to you and you'll be asked to indicate how strong your <strong>aha-experience</strong> was after seeing the solution. This describes the positive feeling of the 'click' you sometimes experience, when the pieces of the 'puzzle' fall together and you suddenly have 'insight' in the image.</p><img src='aha.jpg' height='188' width='250'></img><p>Note that there are no right or wrong answers. We are interested in what <strong>you</strong> see in the image and how <strong>you</strong> feel about it.</p><p>Press any key to start the experiment.</p></div>","32","instructions","html-keyboard-response","5","187953","0.0-5.0","2943335","co38689","norming","","","","","","",""
"null","<div style=""font-size:60px;""> </div>","null","fixation","html-keyboard-response","6","188159","0.0-6.0-0.0","2943335","co38689","norming","","","","","","",""
"null","../img/tt/1171tt.jpg","null","mooney1","image-keyboard-response","7","191175","0.0-6.0-1.0","2943335","co38689","norming","","","","","","",""
"13176.534999976866","","","post_mooney1_questions","survey-likert","8","204357","0.0-6.0-2.0","2943335","co38689","norming","","","{""curiosity"":5,""confidence"":0}","[0,1]","../img/tt/1171tt.jpg","",""
"4564.0000000130385","","","recognition","survey-text","9","208930","0.0-6.0-3.0","2943335","co38689","norming","","","{""guess"":""panda""}","","../img/tt/1171tt.jpg","",""
"null","../img/gs/1171gs.jpg","null","reveal","image-keyboard-response","10","210943","0.0-6.0-4.0","2943335","co38689","norming","","","","","","",""
"null","../img/tt/1171tt.jpg","null","mooney2","image-keyboard-response","11","212958","0.0-6.0-5.0","2943335","co38689","norming","","","","","","",""
"7800.189999979921","","","post_reveal_questions","survey-likert","12","220760","0.0-6.0-6.0","2943335","co38689","norming","","","{""aha"":5}","[0]","../img/tt/1171tt.jpg","",""
"null","<div style=""font-size:60px;""> </div>","null","fixation","html-keyboard-response","13","220966","0.0-6.0-0.1","2943335","co38689","norming","","","","","","",""
"null","../img/tt/078tt.jpg","null","mooney1","image-keyboard-response","14","223971","0.0-6.0-1.1","2943335","co38689","norming","","","","","","",""
"6684.045000001788","","","post_mooney1_questions","survey-likert","15","230659","0.0-6.0-2.1","2943335","co38689","norming","","","{""curiosity"":4,""confidence"":3}","[0,1]","../img/tt/078tt.jpg","",""
"7616.250000079162","","","recognition","survey-text","16","238282","0.0-6.0-3.1","2943335","co38689","norming","","","{""guess"":""vlinder""}","","../img/tt/078tt.jpg","",""
"null","../img/gs/078gs.jpg","null","reveal","image-keyboard-response","17","240289","0.0-6.0-4.1","2943335","co38689","norming","","","","","","",""
"null","../img/tt/078tt.jpg","null","mooney2","image-keyboard-response","18","242291","0.0-6.0-5.1","2943335","co38689","norming","","","","","","",""
"2657.8900000313297","","","post_reveal_questions","survey-likert","19","244951","0.0-6.0-6.1","2943335","co38689","norming","","","{""aha"":4}","[0]","../img/tt/078tt.jpg","",""
"null","<div style=""font-size:60px;""> </div>","null","fixation","html-keyboard-response","20","245165","0.0-6.0-0.2","2943335","co38689","norming","","","","","","",""
"null","../img/tt/456tt.jpg","null","mooney1","image-keyboard-response","21","248173","0.0-6.0-1.2","2943335","co38689","norming","","","","","","",""
"6541.304999962449","","","post_mooney1_questions","survey-likert","22","254718","0.0-6.0-2.2","2943335","co38689","norming","","","{""curiosity"":3,""confidence"":2}","[0,1]","../img/tt/456tt.jpg","",""
"2735.065000015311","","","recognition","survey-text","23","257459","0.0-6.0-3.2","2943335","co38689","norming","","","{""guess"":""voet""}","","../img/tt/456tt.jpg","",""
"null","../img/gs/456gs.jpg","null","reveal","image-keyboard-response","24","259473","0.0-6.0-4.2","2943335","co38689","norming","","","","","","",""
"null","../img/tt/456tt.jpg","null","mooney2","image-keyboard-response","25","261489","0.0-6.0-5.2","2943335","co38689","norming","","","","","","",""
"1795.505000045523","","","post_reveal_questions","survey-likert","26","263288","0.0-6.0-6.2","2943335","co38689","norming","","","{""aha"":5}","[0]","../img/tt/456tt.jpg","",""
"null","<div style=""font-size:60px;""> </div>","null","fixation","html-keyboard-response","27","263504","0.0-6.0-0.3","2943335","co38689","norming","","","","","","",""
"null","../img/tt/380tt.jpg","null","mooney1","image-keyboard-response","28","266515","0.0-6.0-1.3","2943335","co38689","norming","","","","","","",""
"6048.734999960288","","","post_mooney1_questions","survey-likert","29","272567","0.0-6.0-2.3","2943335","co38689","norming","","","{""curiosity"":5,""confidence"":1}","[0,1]","../img/tt/380tt.jpg","",""
"4556.9350000005215","","","recognition","survey-text","30","277130","0.0-6.0-3.3","2943335","co38689","norming","","","{""guess"":""otter""}","","../img/tt/380tt.jpg","",""
"null","../img/gs/380gs.jpg","null","reveal","image-keyboard-response","31","279140","0.0-6.0-4.3","2943335","co38689","norming","","","","","","",""
"null","../img/tt/380tt.jpg","null","mooney2","image-keyboard-response","32","281147","0.0-6.0-5.3","2943335","co38689","norming","","","","","","",""
"2507.8450000146404","","","post_reveal_questions","survey-likert","33","283657","0.0-6.0-6.3","2943335","co38689","norming","","","{""aha"":6}","[0]","../img/tt/380tt.jpg","",""
"null","<div style=""font-size:60px;""> </div>","null","fixation","html-keyboard-response","34","283861","0.0-6.0-0.4","2943335","co38689","norming","","","","","","",""
"null","../img/tt/056tt.jpg","null","mooney1","image-keyboard-response","35","286875","0.0-6.0-1.4","2943335","co38689","norming","","","","","","",""
"6108.389999950305","","","post_mooney1_questions","survey-likert","36","292987","0.0-6.0-2.4","2943335","co38689","norming","","","{""curiosity"":5,""confidence"":4}","[0,1]","../img/tt/056tt.jpg","",""
"2523.230000049807","","","recognition","survey-text","37","295517","0.0-6.0-3.4","2943335","co38689","norming","","","{""guess"":""wolf""}","","../img/tt/056tt.jpg","",""
"null","../img/gs/056gs.jpg","null","reveal","image-keyboard-response","38","297520","0.0-6.0-4.4","2943335","co38689","norming","","","","","","",""
"null","../img/tt/056tt.jpg","null","mooney2","image-keyboard-response","39","299526","0.0-6.0-5.4","2943335","co38689","norming","","","","","","",""
"4791.289999964647","","","post_reveal_questions","survey-likert","40","304321","0.0-6.0-6.4","2943335","co38689","norming","","","{""aha"":2}","[0]","../img/tt/056tt.jpg","",""
"null","<div style=""font-size:60px;""> </div>","null","fixation","html-keyboard-response","41","304537","0.0-6.0-0.5","2943335","co38689","norming","","","","","","",""
"null","../img/tt/515tt.jpg","null","mooney1","image-keyboard-response","42","307543","0.0-6.0-1.5","2943335","co38689","norming","","","","","","",""
"6145.965000032447","","","post_mooney1_questions","survey-likert","43","313692","0.0-6.0-2.5","2943335","co38689","norming","","","{""curiosity"":3,""confidence"":1}","[0,1]","../img/tt/515tt.jpg","",""
"3402.5399999227375","","","recognition","survey-text","44","317101","0.0-6.0-3.5","2943335","co38689","norming","","","{""guess"":""uil""}","","../img/tt/515tt.jpg","",""
"null","../img/gs/515gs.jpg","null","reveal","image-keyboard-response","45","319112","0.0-6.0-4.5","2943335","co38689","norming","","","","","","",""
"null","../img/tt/515tt.jpg","null","mooney2","image-keyboard-response","46","321114","0.0-6.0-5.5","2943335","co38689","norming","","","","","","",""
"4040.095000062138","","","post_reveal_questions","survey-likert","47","325157","0.0-6.0-6.5","2943335","co38689","norming","","","{""aha"":3}","[0]","../img/tt/515tt.jpg","",""
"null","<div style=""font-size:60px;""> </div>","null","fixation","html-keyboard-response","48","325385","0.0-6.0-0.6","2943335","co38689","norming","","","","","","",""
"null","../img/tt/1272tt.jpg","null","mooney1","image-keyboard-response","49","328391","0.0-6.0-1.6","2943335","co38689","norming","","","","","","",""
"6750.864999950863","","","post_mooney1_questions","survey-likert","50","335145","0.0-6.0-2.6","2943335","co38689","norming","","","{""curiosity"":3,""confidence"":0}","[0,1]","../img/tt/1272tt.jpg","",""
"22795.35000002943","","","recognition","survey-text","51","357947","0.0-6.0-3.6","2943335","co38689","norming","","","{""guess"":""auto""}","","../img/tt/1272tt.jpg","",""
"null","../img/gs/1272gs.jpg","null","reveal","image-keyboard-response","52","359959","0.0-6.0-4.6","2943335","co38689","norming","","","","","","",""
"null","../img/tt/1272tt.jpg","null","mooney2","image-keyboard-response","53","361962","0.0-6.0-5.6","2943335","co38689","norming","","","","","","",""
"3317.7199999336153","","","post_reveal_questions","survey-likert","54","365283","0.0-6.0-6.6","2943335","co38689","norming","","","{""aha"":5}","[0]","../img/tt/1272tt.jpg","",""
"null","<div style=""font-size:60px;""> </div>","null","fixation","html-keyboard-response","55","365492","0.0-6.0-0.7","2943335","co38689","norming","","","","","","",""
"null","../img/tt/1087tt.jpg","null","mooney1","image-keyboard-response","56","368501","0.0-6.0-1.7","2943335","co38689","norming","","","","","","",""
"6584.655000013299","","","post_mooney1_questions","survey-likert","57","375089","0.0-6.0-2.7","2943335","co38689","norming","","","{""curiosity"":4,""confidence"":3}","[0,1]","../img/tt/1087tt.jpg","",""
"2765.1599999517202","","","recognition","survey-text","58","377860","0.0-6.0-3.7","2943335","co38689","norming","","","{""guess"":""schaap""}","","../img/tt/1087tt.jpg","",""
"null","../img/gs/1087gs.jpg","null","reveal","image-keyboard-response","59","379873","0.0-6.0-4.7","2943335","co38689","norming","","","","","","",""
"null","../img/tt/1087tt.jpg","null","mooney2","image-keyboard-response","60","381875","0.0-6.0-5.7","2943335","co38689","norming","","","","","","",""
"4987.965000094846","","","post_reveal_questions","survey-likert","61","386866","0.0-6.0-6.7","2943335","co38689","norming","","","{""aha"":4}","[0]","../img/tt/1087tt.jpg","",""
"null","<div style=""font-size:60px;""> </div>","null","fixation","html-keyboard-response","62","387076","0.0-6.0-0.8","2943335","co38689","norming","","","","","","",""
"null","../img/tt/1070tt.jpg","null","mooney1","image-keyboard-response","63","390092","0.0-6.0-1.8","2943335","co38689","norming","","","","","","",""
"7526.354999979958","","","post_mooney1_questions","survey-likert","64","397622","0.0-6.0-2.8","2943335","co38689","norming","","","{""curiosity"":2,""confidence"":2}","[0,1]","../img/tt/1070tt.jpg","",""
"11827.614999958314","","","recognition","survey-text","65","409456","0.0-6.0-3.8","2943335","co38689","norming","","","{""guess"":""pannekoek""}","","../img/tt/1070tt.jpg","",""
"null","../img/gs/1070gs.jpg","null","reveal","image-keyboard-response","66","411462","0.0-6.0-4.8","2943335","co38689","norming","","","","","","",""
"null","../img/tt/1070tt.jpg","null","mooney2","image-keyboard-response","67","413468","0.0-6.0-5.8","2943335","co38689","norming","","","","","","",""
"1834.000000031665","","","post_reveal_questions","survey-likert","68","415305","0.0-6.0-6.8","2943335","co38689","norming","","","{""aha"":4}","[0]","../img/tt/1070tt.jpg","",""
"null","<div style=""font-size:60px;""> </div>","null","fixation","html-keyboard-response","69","415515","0.0-6.0-0.9","2943335","co38689","norming","","","","","","",""
"null","../img/tt/1186tt.jpg","null","mooney1","image-keyboard-response","70","418525","0.0-6.0-1.9","2943335","co38689","norming","","","","","","",""
"6096.179999993183","","","post_mooney1_questions","survey-likert","71","424625","0.0-6.0-2.9","2943335","co38689","norming","","","{""curiosity"":4,""confidence"":4}","[0,1]","../img/tt/1186tt.jpg","",""
"3949.209999991581","","","recognition","survey-text","72","428581","0.0-6.0-3.9","2943335","co38689","norming","","","{""guess"":""cowboy""}","","../img/tt/1186tt.jpg","",""
"null","../img/gs/1186gs.jpg","null","reveal","image-keyboard-response","73","430587","0.0-6.0-4.9","2943335","co38689","norming","","","","","","",""
"null","../img/tt/1186tt.jpg","null","mooney2","image-keyboard-response","74","432590","0.0-6.0-5.9","2943335","co38689","norming","","","","","","",""
"2323.5250000143424","","","post_reveal_questions","survey-likert","75","434916","0.0-6.0-6.9","2943335","co38689","norming","","","{""aha"":2}","[0]","../img/tt/1186tt.jpg","",""
"null","<div style=""font-size:60px;""> </div>","null","fixation","html-keyboard-response","76","435120","0.0-6.0-0.10","2943335","co38689","norming","","","","","","",""
"null","../img/tt/1362tt.jpg","null","mooney1","image-keyboard-response","77","438127","0.0-6.0-1.10","2943335","co38689","norming","","","","","","",""
"8421.830000006594","","","post_mooney1_questions","survey-likert","78","446553","0.0-6.0-2.10","2943335","co38689","norming","","","{""curiosity"":4,""confidence"":3}","[0,1]","../img/tt/1362tt.jpg","",""
"3448.949999990873","","","recognition","survey-text","79","450012","0.0-6.0-3.10","2943335","co38689","norming","","","{""guess"":""potten""}","","../img/tt/1362tt.jpg","",""
"null","../img/gs/1362gs.jpg","null","reveal","image-keyboard-response","80","452019","0.0-6.0-4.10","2943335","co38689","norming","","","","","","",""
"null","../img/tt/1362tt.jpg","null","mooney2","image-keyboard-response","81","454034","0.0-6.0-5.10","2943335","co38689","norming","","","","","","",""
"3503.595000016503","","","post_reveal_questions","survey-likert","82","457541","0.0-6.0-6.10","2943335","co38689","norming","","","{""aha"":3}","[0]","../img/tt/1362tt.jpg","",""
"null","<div style=""font-size:60px;""> </div>","null","fixation","html-keyboard-response","83","457746","0.0-6.0-0.11","2943335","co38689","norming","","","","","","",""
"null","../img/tt/1243tt.jpg","null","mooney1","image-keyboard-response","84","460761","0.0-6.0-1.11","2943335","co38689","norming","","","","","","",""
"6794.099999940954","","","post_mooney1_questions","survey-likert","85","467559","0.0-6.0-2.11","2943335","co38689","norming","","","{""curiosity"":5,""confidence"":4}","[0,1]","../img/tt/1243tt.jpg","",""
"2330.145000014454","","","recognition","survey-text","86","469896","0.0-6.0-3.11","2943335","co38689","norming","","","{""guess"":""aap""}","","../img/tt/1243tt.jpg","",""
"null","../img/gs/1243gs.jpg","null","reveal","image-keyboard-response","87","471910","0.0-6.0-4.11","2943335","co38689","norming","","","","","","",""
"null","../img/tt/1243tt.jpg","null","mooney2","image-keyboard-response","88","473913","0.0-6.0-5.11","2943335","co38689","norming","","","","","","",""
"4246.999999973923","","","post_reveal_questions","survey-likert","89","478162","0.0-6.0-6.11","2943335","co38689","norming","","","{""aha"":5}","[0]","../img/tt/1243tt.jpg","",""
"null","<div style=""font-size:60px;""> </div>","null","fixation","html-keyboard-response","90","478376","0.0-6.0-0.12","2943335","co38689","norming","","","","","","",""
"null","../img/tt/085tt.jpg","null","mooney1","image-keyboard-response","91","481382","0.0-6.0-1.12","2943335","co38689","norming","","","","","","",""
"7554.810000001453","","","post_mooney1_questions","survey-likert","92","488940","0.0-6.0-2.12","2943335","co38689","norming","","","{""curiosity"":5,""confidence"":2}","[0,1]","../img/tt/085tt.jpg","",""
"3330.900000059046","","","recognition","survey-text","93","492278","0.0-6.0-3.12","2943335","co38689","norming","","","{""guess"":""insect""}","","../img/tt/085tt.jpg","",""
"null","../img/gs/085gs.jpg","null","reveal","image-keyboard-response","94","494283","0.0-6.0-4.12","2943335","co38689","norming","","","","","","",""
"null","../img/tt/085tt.jpg","null","mooney2","image-keyboard-response","95","496285","0.0-6.0-5.12","2943335","co38689","norming","","","","","","",""
"4481.010000105016","","","post_reveal_questions","survey-likert","96","500769","0.0-6.0-6.12","2943335","co38689","norming","","","{""aha"":4}","[0]","../img/tt/085tt.jpg","",""
"null","<div style=""font-size:60px;""> </div>","null","fixation","html-keyboard-response","97","500981","0.0-6.0-0.13","2943335","co38689","norming","","","","","","",""
"null","../img/tt/1188tt.jpg","null","mooney1","image-keyboard-response","98","503997","0.0-6.0-1.13","2943335","co38689","norming","","","","","","",""
"6239.3450000090525","","","post_mooney1_questions","survey-likert","99","510241","0.0-6.0-2.13","2943335","co38689","norming","","","{""curiosity"":3,""confidence"":0}","[0,1]","../img/tt/1188tt.jpg","",""
"3088.7450000736862","","","recognition","survey-text","100","513335","0.0-6.0-3.13","2943335","co38689","norming","","","{""guess"":""""}","","../img/tt/1188tt.jpg","",""
"null","../img/gs/1188gs.jpg","null","reveal","image-keyboard-response","101","515339","0.0-6.0-4.13","2943335","co38689","norming","","","","","","",""
"null","../img/tt/1188tt.jpg","null","mooney2","image-keyboard-response","102","517351","0.0-6.0-5.13","2943335","co38689","norming","","","","","","",""
"2732.259999960661","","","post_reveal_questions","survey-likert","103","520086","0.0-6.0-6.13","2943335","co38689","norming","","","{""aha"":5}","[0]","../img/tt/1188tt.jpg","",""
"null","<div style=""font-size:60px;""> </div>","null","fixation","html-keyboard-response","104","520296","0.0-6.0-0.14","2943335","co38689","norming","","","","","","",""
"null","../img/tt/1224tt.jpg","null","mooney1","image-keyboard-response","105","523309","0.0-6.0-1.14","2943335","co38689","norming","","","","","","",""
"5607.785000000149","","","post_mooney1_questions","survey-likert","106","528920","0.0-6.0-2.14","2943335","co38689","norming","","","{""curiosity"":2,""confidence"":5}","[0,1]","../img/tt/1224tt.jpg","",""
"4777.699999976903","","","recognition","survey-text","107","533704","0.0-6.0-3.14","2943335","co38689","norming","","","{""guess"":""basketballer""}","","../img/tt/1224tt.jpg","",""
"null","../img/gs/1224gs.jpg","null","reveal","image-keyboard-response","108","535722","0.0-6.0-4.14","2943335","co38689","norming","","","","","","",""
"null","../img/tt/1224tt.jpg","null","mooney2","image-keyboard-response","109","537732","0.0-6.0-5.14","2943335","co38689","norming","","","","","","",""
"2496.6599999461323","","","post_reveal_questions","survey-likert","110","540232","0.0-6.0-6.14","2943335","co38689","norming","","","{""aha"":2}","[0]","../img/tt/1224tt.jpg","",""
"null","<div style=""font-size:60px;""> </div>","null","fixation","html-keyboard-response","111","540450","0.0-6.0-0.15","2943335","co38689","norming","","","","","","",""
"null","../img/tt/081tt.jpg","null","mooney1","image-keyboard-response","112","543459","0.0-6.0-1.15","2943335","co38689","norming","","","","","","",""
"8669.189999927767","","","post_mooney1_questions","survey-likert","113","552132","0.0-6.0-2.15","2943335","co38689","norming","","","{""curiosity"":4,""confidence"":5}","[0,1]","../img/tt/081tt.jpg","",""
"3453.2299999846146","","","recognition","survey-text","114","555591","0.0-6.0-3.15","2943335","co38689","norming","","","{""guess"":""kikker""}","","../img/tt/081tt.jpg","",""
"null","../img/gs/081gs.jpg","null","reveal","image-keyboard-response","115","557593","0.0-6.0-4.15","2943335","co38689","norming","","","","","","",""
"null","../img/tt/081tt.jpg","null","mooney2","image-keyboard-response","116","559601","0.0-6.0-5.15","2943335","co38689","norming","","","","","","",""
"2402.9650000156835","","","post_reveal_questions","survey-likert","117","562007","0.0-6.0-6.15","2943335","co38689","norming","","","{""aha"":2}","[0]","../img/tt/081tt.jpg","",""
"null","<div style=""font-size:60px;""> </div>","null","fixation","html-keyboard-response","118","562222","0.0-6.0-0.16","2943335","co38689","norming","","","","","","",""
"null","../img/tt/096tt.jpg","null","mooney1","image-keyboard-response","119","565227","0.0-6.0-1.16","2943335","co38689","norming","","","","","","",""
"5276.410000049509","","","post_mooney1_questions","survey-likert","120","570508","0.0-6.0-2.16","2943335","co38689","norming","","","{""curiosity"":3,""confidence"":1}","[0,1]","../img/tt/096tt.jpg","",""
"2279.374999925494","","","recognition","survey-text","121","572794","0.0-6.0-3.16","2943335","co38689","norming","","","{""guess"":""piano""}","","../img/tt/096tt.jpg","",""
"null","../img/gs/096gs.jpg","null","reveal","image-keyboard-response","122","574799","0.0-6.0-4.16","2943335","co38689","norming","","","","","","",""
"null","../img/tt/096tt.jpg","null","mooney2","image-keyboard-response","123","576813","0.0-6.0-5.16","2943335","co38689","norming","","","","","","",""
"2659.474999993108","","","post_reveal_questions","survey-likert","124","579476","0.0-6.0-6.16","2943335","co38689","norming","","","{""aha"":5}","[0]","../img/tt/096tt.jpg","",""
"null","<div style=""font-size:60px;""> </div>","null","fixation","html-keyboard-response","125","579692","0.0-6.0-0.17","2943335","co38689","norming","","","","","","",""
"null","../img/tt/552tt.jpg","null","mooney1","image-keyboard-response","126","582715","0.0-6.0-1.17","2943335","co38689","norming","","","","","","",""
"6958.220000029542","","","post_mooney1_questions","survey-likert","127","589677","0.0-6.0-2.17","2943335","co38689","norming","","","{""curiosity"":4,""confidence"":2}","[0,1]","../img/tt/552tt.jpg","",""
"3918.5399999842048","","","recognition","survey-text","128","593601","0.0-6.0-3.17","2943335","co38689","norming","","","{""guess"":""stinkdier""}","","../img/tt/552tt.jpg","",""
"null","../img/gs/552gs.jpg","null","reveal","image-keyboard-response","129","595611","0.0-6.0-4.17","2943335","co38689","norming","","","","","","",""
"null","../img/tt/552tt.jpg","null","mooney2","image-keyboard-response","130","597627","0.0-6.0-5.17","2943335","co38689","norming","","","","","","",""
"2388.314999989234","","","post_reveal_questions","survey-likert","131","600018","0.0-6.0-6.17","2943335","co38689","norming","","","{""aha"":3}","[0]","../img/tt/552tt.jpg","",""
"null","<div style=""font-size:60px;""> </div>","null","fixation","html-keyboard-response","132","600229","0.0-6.0-0.18","2943335","co38689","norming","","","","","","",""
"null","../img/tt/435tt.jpg","null","mooney1","image-keyboard-response","133","603235","0.0-6.0-1.18","2943335","co38689","norming","","","","","","",""
"6898.1100000673905","","","post_mooney1_questions","survey-likert","134","610137","0.0-6.0-2.18","2943335","co38689","norming","","","{""curiosity"":2,""confidence"":0}","[0,1]","../img/tt/435tt.jpg","",""
"1166.330000036396","","","recognition","survey-text","135","611309","0.0-6.0-3.18","2943335","co38689","norming","","","{""guess"":""""}","","../img/tt/435tt.jpg","",""
"null","../img/gs/435gs.jpg","null","reveal","image-keyboard-response","136","613332","0.0-6.0-4.18","2943335","co38689","norming","","","","","","",""
"null","../img/tt/435tt.jpg","null","mooney2","image-keyboard-response","137","615337","0.0-6.0-5.18","2943335","co38689","norming","","","","","","",""
"2101.075000013225","","","post_reveal_questions","survey-likert","138","617441","0.0-6.0-6.18","2943335","co38689","norming","","","{""aha"":5}","[0]","../img/tt/435tt.jpg","",""
"null","<div style=""font-size:60px;""> </div>","null","fixation","html-keyboard-response","139","617649","0.0-6.0-0.19","2943335","co38689","norming","","","","","","",""
"null","../img/tt/1237tt.jpg","null","mooney1","image-keyboard-response","140","620652","0.0-6.0-1.19","2943335","co38689","norming","","","","","","",""
"7036.940000019968","","","post_mooney1_questions","survey-likert","141","627693","0.0-6.0-2.19","2943335","co38689","norming","","","{""curiosity"":1,""confidence"":6}","[0,1]","../img/tt/1237tt.jpg","",""
"2408.5799999302253","","","recognition","survey-text","142","630110","0.0-6.0-3.19","2943335","co38689","norming","","","{""guess"":""eend""}","","../img/tt/1237tt.jpg","",""
"null","../img/gs/1237gs.jpg","null","reveal","image-keyboard-response","143","632124","0.0-6.0-4.19","2943335","co38689","norming","","","","","","",""
"null","../img/tt/1237tt.jpg","null","mooney2","image-keyboard-response","144","634141","0.0-6.0-5.19","2943335","co38689","norming","","","","","","",""
"3393.0549999931827","","","post_reveal_questions","survey-likert","145","637537","0.0-6.0-6.19","2943335","co38689","norming","","","{""aha"":1}","[0]","../img/tt/1237tt.jpg","",""
"null","<div style=""font-size:60px;""> </div>","null","fixation","html-keyboard-response","146","637748","0.0-6.0-0.20","2943335","co38689","norming","","","","","","",""
"null","../img/tt/1189tt.jpg","null","mooney1","image-keyboard-response","147","640756","0.0-6.0-1.20","2943335","co38689","norming","","","","","","",""
"5328.285000054166","","","post_mooney1_questions","survey-likert","148","646088","0.0-6.0-2.20","2943335","co38689","norming","","","{""curiosity"":5,""confidence"":1}","[0,1]","../img/tt/1189tt.jpg","",""
"3685.70000003092","","","recognition","survey-text","149","649780","0.0-6.0-3.20","2943335","co38689","norming","","","{""guess"":""eend""}","","../img/tt/1189tt.jpg","",""
"null","../img/gs/1189gs.jpg","null","reveal","image-keyboard-response","150","651793","0.0-6.0-4.20","2943335","co38689","norming","","","","","","",""
"null","../img/tt/1189tt.jpg","null","mooney2","image-keyboard-response","151","653795","0.0-6.0-5.20","2943335","co38689","norming","","","","","","",""
"2520.120000001043","","","post_reveal_questions","survey-likert","152","656318","0.0-6.0-6.20","2943335","co38689","norming","","","{""aha"":4}","[0]","../img/tt/1189tt.jpg","",""
"null","<div style=""font-size:60px;""> </div>","null","fixation","html-keyboard-response","153","656524","0.0-6.0-0.21","2943335","co38689","norming","","","","","","",""
"null","../img/tt/599tt.jpg","null","mooney1","image-keyboard-response","154","659530","0.0-6.0-1.21","2943335","co38689","norming","","","","","","",""
"5062.470000004396","","","post_mooney1_questions","survey-likert","155","664596","0.0-6.0-2.21","2943335","co38689","norming","","","{""curiosity"":1,""confidence"":6}","[0,1]","../img/tt/599tt.jpg","",""
"2753.095000050962","","","recognition","survey-text","156","667356","0.0-6.0-3.21","2943335","co38689","norming","","","{""guess"":""uilen""}","","../img/tt/599tt.jpg","",""
"null","../img/gs/599gs.jpg","null","reveal","image-keyboard-response","157","669368","0.0-6.0-4.21","2943335","co38689","norming","","","","","","",""
"null","../img/tt/599tt.jpg","null","mooney2","image-keyboard-response","158","671372","0.0-6.0-5.21","2943335","co38689","norming","","","","","","",""
"6677.035000058822","","","post_reveal_questions","survey-likert","159","678052","0.0-6.0-6.21","2943335","co38689","norming","","","{""aha"":0}","[0]","../img/tt/599tt.jpg","",""
"null","<div style=""font-size:60px;""> </div>","null","fixation","html-keyboard-response","160","678257","0.0-6.0-0.22","2943335","co38689","norming","","","","","","",""
"null","../img/tt/1269tt.jpg","null","mooney1","image-keyboard-response","161","681261","0.0-6.0-1.22","2943335","co38689","norming","","","","","","",""
"4742.605000035837","","","post_mooney1_questions","survey-likert","162","686007","0.0-6.0-2.22","2943335","co38689","norming","","","{""curiosity"":2,""confidence"":4}","[0,1]","../img/tt/1269tt.jpg","",""
"3909.220000030473","","","recognition","survey-text","163","689922","0.0-6.0-3.22","2943335","co38689","norming","","","{""guess"":""kangoeroe""}","","../img/tt/1269tt.jpg","",""
"null","../img/gs/1269gs.jpg","null","reveal","image-keyboard-response","164","691933","0.0-6.0-4.22","2943335","co38689","norming","","","","","","",""
"null","../img/tt/1269tt.jpg","null","mooney2","image-keyboard-response","165","693935","0.0-6.0-5.22","2943335","co38689","norming","","","","","","",""
"2815.445000072941","","","post_reveal_questions","survey-likert","166","696753","0.0-6.0-6.22","2943335","co38689","norming","","","{""aha"":4}","[0]","../img/tt/1269tt.jpg","",""
"null","<div style=""font-size:60px;""> </div>","null","fixation","html-keyboard-response","167","696966","0.0-6.0-0.23","2943335","co38689","norming","","","","","","",""
"null","../img/tt/1290tt.jpg","null","mooney1","image-keyboard-response","168","699976","0.0-6.0-1.23","2943335","co38689","norming","","","","","","",""
"5628.550000023097","","","post_mooney1_questions","survey-likert","169","705608","0.0-6.0-2.23","2943335","co38689","norming","","","{""curiosity"":3,""confidence"":1}","[0,1]","../img/tt/1290tt.jpg","",""
"3706.4850000897422","","","recognition","survey-text","170","709320","0.0-6.0-3.23","2943335","co38689","norming","","","{""guess"":""skilift""}","","../img/tt/1290tt.jpg","",""
"null","../img/gs/1290gs.jpg","null","reveal","image-keyboard-response","171","711326","0.0-6.0-4.23","2943335","co38689","norming","","","","","","",""
"null","../img/tt/1290tt.jpg","null","mooney2","image-keyboard-response","172","713342","0.0-6.0-5.23","2943335","co38689","norming","","","","","","",""
"2816.965000005439","","","post_reveal_questions","survey-likert","173","716162","0.0-6.0-6.23","2943335","co38689","norming","","","{""aha"":5}","[0]","../img/tt/1290tt.jpg","",""
"null","<div style=""font-size:60px;""> </div>","null","fixation","html-keyboard-response","174","716365","0.0-6.0-0.24","2943335","co38689","norming","","","","","","",""
"null","../img/tt/1190tt.jpg","null","mooney1","image-keyboard-response","175","719373","0.0-6.0-1.24","2943335","co38689","norming","","","","","","",""
"5529.229999985546","","","post_mooney1_questions","survey-likert","176","724906","0.0-6.0-2.24","2943335","co38689","norming","","","{""curiosity"":4,""confidence"":5}","[0,1]","../img/tt/1190tt.jpg","",""
"2987.745000049472","","","recognition","survey-text","177","727901","0.0-6.0-3.24","2943335","co38689","norming","","","{""guess"":""beer""}","","../img/tt/1190tt.jpg","",""
"null","../img/gs/1190gs.jpg","null","reveal","image-keyboard-response","178","729906","0.0-6.0-4.24","2943335","co38689","norming","","","","","","",""
"null","../img/tt/1190tt.jpg","null","mooney2","image-keyboard-response","179","731909","0.0-6.0-5.24","2943335","co38689","norming","","","","","","",""
"3649.8800000408664","","","post_reveal_questions","survey-likert","180","735561","0.0-6.0-6.24","2943335","co38689","norming","","","{""aha"":6}","[0]","../img/tt/1190tt.jpg","",""
"null","<div style=""font-size:60px;""> </div>","null","fixation","html-keyboard-response","181","735771","0.0-6.0-0.25","2943335","co38689","norming","","","","","","",""
"null","../img/tt/1143tt.jpg","null","mooney1","image-keyboard-response","182","738776","0.0-6.0-1.25","2943335","co38689","norming","","","","","","",""
"6264.055000036024","","","post_mooney1_questions","survey-likert","183","745044","0.0-6.0-2.25","2943335","co38689","norming","","","{""curiosity"":1,""confidence"":5}","[0,1]","../img/tt/1143tt.jpg","",""
"3613.950000028126","","","recognition","survey-text","184","748665","0.0-6.0-3.25","2943335","co38689","norming","","","{""guess"":""zwemmers""}","","../img/tt/1143tt.jpg","",""
"null","../img/gs/1143gs.jpg","null","reveal","image-keyboard-response","185","750680","0.0-6.0-4.25","2943335","co38689","norming","","","","","","",""
"null","../img/tt/1143tt.jpg","null","mooney2","image-keyboard-response","186","752698","0.0-6.0-5.25","2943335","co38689","norming","","","","","","",""
"2957.490000058897","","","post_reveal_questions","survey-likert","187","755659","0.0-6.0-6.25","2943335","co38689","norming","","","{""aha"":6}","[0]","../img/tt/1143tt.jpg","",""
"null","<div style=""font-size:60px;""> </div>","null","fixation","html-keyboard-response","188","755883","0.0-6.0-0.26","2943335","co38689","norming","","","","","","",""
"null","../img/tt/1276tt.jpg","null","mooney1","image-keyboard-response","189","758900","0.0-6.0-1.26","2943335","co38689","norming","","","","","","",""
"6389.245000085793","","","post_mooney1_questions","survey-likert","190","765294","0.0-6.0-2.26","2943335","co38689","norming","","","{""curiosity"":4,""confidence"":1}","[0,1]","../img/tt/1276tt.jpg","",""
"3391.9349999632686","","","recognition","survey-text","191","768692","0.0-6.0-3.26","2943335","co38689","norming","","","{""guess"":""schaap""}","","../img/tt/1276tt.jpg","",""
"null","../img/gs/1276gs.jpg","null","reveal","image-keyboard-response","192","770707","0.0-6.0-4.26","2943335","co38689","norming","","","","","","",""
"null","../img/tt/1276tt.jpg","null","mooney2","image-keyboard-response","193","772709","0.0-6.0-5.26","2943335","co38689","norming","","","","","","",""
"1859.8050000146031","","","post_reveal_questions","survey-likert","194","774572","0.0-6.0-6.26","2943335","co38689","norming","","","{""aha"":5}","[0]","../img/tt/1276tt.jpg","",""
"null","<div style=""font-size:60px;""> </div>","null","fixation","html-keyboard-response","195","774790","0.0-6.0-0.27","2943335","co38689","norming","","","","","","",""
"null","../img/tt/584tt.jpg","null","mooney1","image-keyboard-response","196","777797","0.0-6.0-1.27","2943335","co38689","norming","","","","","","",""
"8703.750000102445","","","post_mooney1_questions","survey-likert","197","786505","0.0-6.0-2.27","2943335","co38689","norming","","","{""curiosity"":6,""confidence"":1}","[0,1]","../img/tt/584tt.jpg","",""
"2623.4450000338256","","","recognition","survey-text","198","789134","0.0-6.0-3.27","2943335","co38689","norming","","","{""guess"":""handen""}","","../img/tt/584tt.jpg","",""
"null","../img/gs/584gs.jpg","null","reveal","image-keyboard-response","199","791147","0.0-6.0-4.27","2943335","co38689","norming","","","","","","",""
"null","../img/tt/584tt.jpg","null","mooney2","image-keyboard-response","200","793149","0.0-6.0-5.27","2943335","co38689","norming","","","","","","",""
"1963.4150000056252","","","post_reveal_questions","survey-likert","201","795116","0.0-6.0-6.27","2943335","co38689","norming","","","{""aha"":6}","[0]","../img/tt/584tt.jpg","",""
"null","<div style=""font-size:60px;""> </div>","null","fixation","html-keyboard-response","202","795330","0.0-6.0-0.28","2943335","co38689","norming","","","","","","",""
"null","../img/tt/306tt.jpg","null","mooney1","image-keyboard-response","203","798338","0.0-6.0-1.28","2943335","co38689","norming","","","","","","",""
"5275.060000014491","","","post_mooney1_questions","survey-likert","204","803617","0.0-6.0-2.28","2943335","co38689","norming","","","{""curiosity"":4,""confidence"":1}","[0,1]","../img/tt/306tt.jpg","",""
"6407.655000104569","","","recognition","survey-text","205","810031","0.0-6.0-3.28","2943335","co38689","norming","","","{""guess"":""""}","","../img/tt/306tt.jpg","",""
"null","../img/gs/306gs.jpg","null","reveal","image-keyboard-response","206","812050","0.0-6.0-4.28","2943335","co38689","norming","","","","","","",""
"null","../img/tt/306tt.jpg","null","mooney2","image-keyboard-response","207","814052","0.0-6.0-5.28","2943335","co38689","norming","","","","","","",""
"2311.560000060126","","","post_reveal_questions","survey-likert","208","816366","0.0-6.0-6.28","2943335","co38689","norming","","","{""aha"":5}","[0]","../img/tt/306tt.jpg","",""
"null","<div style=""font-size:60px;""> </div>","null","fixation","html-keyboard-response","209","816583","0.0-6.0-0.29","2943335","co38689","norming","","","","","","",""
"null","../img/tt/406tt.jpg","null","mooney1","image-keyboard-response","210","819601","0.0-6.0-1.29","2943335","co38689","norming","","","","","","",""
"5333.209999953397","","","post_mooney1_questions","survey-likert","211","824938","0.0-6.0-2.29","2943335","co38689","norming","","","{""curiosity"":3,""confidence"":4}","[0,1]","../img/tt/406tt.jpg","",""
"3564.6949999500066","","","recognition","survey-text","212","828509","0.0-6.0-3.29","2943335","co38689","norming","","","{""guess"":""vleermuis""}","","../img/tt/406tt.jpg","",""
"null","../img/gs/406gs.jpg","null","reveal","image-keyboard-response","213","830517","0.0-6.0-4.29","2943335","co38689","norming","","","","","","",""
"null","../img/tt/406tt.jpg","null","mooney2","image-keyboard-response","214","832534","0.0-6.0-5.29","2943335","co38689","norming","","","","","","",""
"2711.3099999260157","","","post_reveal_questions","survey-likert","215","835248","0.0-6.0-6.29","2943335","co38689","norming","","","{""aha"":1}","[0]","../img/tt/406tt.jpg","",""
"null","<div style=""font-size:60px;""> </div>","null","fixation","html-keyboard-response","216","835465","0.0-6.0-0.30","2943335","co38689","norming","","","","","","",""
"null","../img/tt/296tt.jpg","null","mooney1","image-keyboard-response","217","838480","0.0-6.0-1.30","2943335","co38689","norming","","","","","","",""
"6539.844999904744","","","post_mooney1_questions","survey-likert","218","845024","0.0-6.0-2.30","2943335","co38689","norming","","","{""curiosity"":4,""confidence"":0}","[0,1]","../img/tt/296tt.jpg","",""
"4617.959999945015","","","recognition","survey-text","219","849647","0.0-6.0-3.30","2943335","co38689","norming","","","{""guess"":""stier""}","","../img/tt/296tt.jpg","",""
"null","../img/gs/296gs.jpg","null","reveal","image-keyboard-response","220","851656","0.0-6.0-4.30","2943335","co38689","norming","","","","","","",""
"null","../img/tt/296tt.jpg","null","mooney2","image-keyboard-response","221","853659","0.0-6.0-5.30","2943335","co38689","norming","","","","","","",""
"1864.8300000932068","","","post_reveal_questions","survey-likert","222","855526","0.0-6.0-6.30","2943335","co38689","norming","","","{""aha"":6}","[0]","../img/tt/296tt.jpg","",""
"null","<div style=""font-size:60px;""> </div>","null","fixation","html-keyboard-response","223","855733","0.0-6.0-0.31","2943335","co38689","norming","","","","","","",""
"null","../img/tt/318tt.jpg","null","mooney1","image-keyboard-response","224","858739","0.0-6.0-1.31","2943335","co38689","norming","","","","","","",""
"4687.349999905564","","","post_mooney1_questions","survey-likert","225","863430","0.0-6.0-2.31","2943335","co38689","norming","","","{""curiosity"":3,""confidence"":4}","[0,1]","../img/tt/318tt.jpg","",""
"2744.0450000576675","","","recognition","survey-text","226","866181","0.0-6.0-3.31","2943335","co38689","norming","","","{""guess"":""auto""}","","../img/tt/318tt.jpg","",""
"null","../img/gs/318gs.jpg","null","reveal","image-keyboard-response","227","868192","0.0-6.0-4.31","2943335","co38689","norming","","","","","","",""
"null","../img/tt/318tt.jpg","null","mooney2","image-keyboard-response","228","870198","0.0-6.0-5.31","2943335","co38689","norming","","","","","","",""
"2466.660000034608","","","post_reveal_questions","survey-likert","229","872668","0.0-6.0-6.31","2943335","co38689","norming","","","{""aha"":3}","[0]","../img/tt/318tt.jpg","",""
"null","<div style=""font-size:60px;""> </div>","null","fixation","html-keyboard-response","230","872874","0.0-6.0-0.32","2943335","co38689","norming","","","","","","",""
"null","../img/tt/189tt.jpg","null","mooney1","image-keyboard-response","231","875878","0.0-6.0-1.32","2943335","co38689","norming","","","","","","",""
"5428.39500005357","","","post_mooney1_questions","survey-likert","232","881311","0.0-6.0-2.32","2943335","co38689","norming","","","{""curiosity"":5,""confidence"":1}","[0,1]","../img/tt/189tt.jpg","",""
"4089.520000037737","","","recognition","survey-text","233","885407","0.0-6.0-3.32","2943335","co38689","norming","","","{""guess"":""vogel""}","","../img/tt/189tt.jpg","",""
"null","../img/gs/189gs.jpg","null","reveal","image-keyboard-response","234","887410","0.0-6.0-4.32","2943335","co38689","norming","","","","","","",""
"null","../img/tt/189tt.jpg","null","mooney2","image-keyboard-response","235","889414","0.0-6.0-5.32","2943335","co38689","norming","","","","","","",""
"2406.5900000277907","","","post_reveal_questions","survey-likert","236","891823","0.0-6.0-6.32","2943335","co38689","norming","","","{""aha"":6}","[0]","../img/tt/189tt.jpg","",""
"null","<div style=""font-size:60px;""> </div>","null","fixation","html-keyboard-response","237","892029","0.0-6.0-0.33","2943335","co38689","norming","","","","","","",""
"null","../img/tt/598tt.jpg","null","mooney1","image-keyboard-response","238","895039","0.0-6.0-1.33","2943335","co38689","norming","","","","","","",""
"5269.564999965951","","","post_mooney1_questions","survey-likert","239","900314","0.0-6.0-2.33","2943335","co38689","norming","","","{""curiosity"":4,""confidence"":4}","[0,1]","../img/tt/598tt.jpg","",""
"2573.130000033416","","","recognition","survey-text","240","902893","0.0-6.0-3.33","2943335","co38689","norming","","","{""guess"":""slak""}","","../img/tt/598tt.jpg","",""
"null","../img/gs/598gs.jpg","null","reveal","image-keyboard-response","241","904903","0.0-6.0-4.33","2943335","co38689","norming","","","","","","",""
"null","../img/tt/598tt.jpg","null","mooney2","image-keyboard-response","242","906918","0.0-6.0-5.33","2943335","co38689","norming","","","","","","",""
"3369.5750000188127","","","post_reveal_questions","survey-likert","243","910291","0.0-6.0-6.33","2943335","co38689","norming","","","{""aha"":2}","[0]","../img/tt/598tt.jpg","",""
"null","<div style=""font-size:60px;""> </div>","null","fixation","html-keyboard-response","244","910504","0.0-6.0-0.34","2943335","co38689","norming","","","","","","",""
"null","../img/tt/1196tt.jpg","null","mooney1","image-keyboard-response","245","913508","0.0-6.0-1.34","2943335","co38689","norming","","","","","","",""
"7798.59999998007","","","post_mooney1_questions","survey-likert","246","921310","0.0-6.0-2.34","2943335","co38689","norming","","","{""curiosity"":5,""confidence"":1}","[0,1]","../img/tt/1196tt.jpg","",""
"7976.0300000198185","","","recognition","survey-text","247","929292","0.0-6.0-3.34","2943335","co38689","norming","","","{""guess"":""platteland""}","","../img/tt/1196tt.jpg","",""
"null","../img/gs/1196gs.jpg","null","reveal","image-keyboard-response","248","931297","0.0-6.0-4.34","2943335","co38689","norming","","","","","","",""
"null","../img/tt/1196tt.jpg","null","mooney2","image-keyboard-response","249","933303","0.0-6.0-5.34","2943335","co38689","norming","","","","","","",""
"1673.4550000401214","","","post_reveal_questions","survey-likert","250","934979","0.0-6.0-6.34","2943335","co38689","norming","","","{""aha"":6}","[0]","../img/tt/1196tt.jpg","",""
"null","<div style=""font-size:60px;""> </div>","null","fixation","html-keyboard-response","251","935197","0.0-6.0-0.35","2943335","co38689","norming","","","","","","",""
"null","../img/tt/1097tt.jpg","null","mooney1","image-keyboard-response","252","938214","0.0-6.0-1.35","2943335","co38689","norming","","","","","","",""
"5827.240000013262","","","post_mooney1_questions","survey-likert","253","944046","0.0-6.0-2.35","2943335","co38689","norming","","","{""curiosity"":2,""confidence"":4}","[0,1]","../img/tt/1097tt.jpg","",""
"3453.804999939166","","","recognition","survey-text","254","947505","0.0-6.0-3.35","2943335","co38689","norming","","","{""guess"":""platteland""}","","../img/tt/1097tt.jpg","",""
"null","../img/gs/1097gs.jpg","null","reveal","image-keyboard-response","255","949517","0.0-6.0-4.35","2943335","co38689","norming","","","","","","",""
"null","../img/tt/1097tt.jpg","null","mooney2","image-keyboard-response","256","951520","0.0-6.0-5.35","2943335","co38689","norming","","","","","","",""
"3844.679999980144","","","post_reveal_questions","survey-likert","257","955368","0.0-6.0-6.35","2943335","co38689","norming","","","{""aha"":5}","[0]","../img/tt/1097tt.jpg","",""
"null","<div style=""font-size:60px;""> </div>","null","fixation","html-keyboard-response","258","955581","0.0-6.0-0.36","2943335","co38689","norming","","","","","","",""
"null","../img/tt/1096tt.jpg","null","mooney1","image-keyboard-response","259","958604","0.0-6.0-1.36","2943335","co38689","norming","","","","","","",""
"6918.4699999168515","","","post_mooney1_questions","survey-likert","260","965526","0.0-6.0-2.36","2943335","co38689","norming","","","{""curiosity"":3,""confidence"":2}","[0,1]","../img/tt/1096tt.jpg","",""
"13605.86000001058","","","recognition","survey-text","261","979138","0.0-6.0-3.36","2943335","co38689","norming","","","{""guess"":""living""}","","../img/tt/1096tt.jpg","",""
"null","../img/gs/1096gs.jpg","null","reveal","image-keyboard-response","262","981156","0.0-6.0-4.36","2943335","co38689","norming","","","","","","",""
"null","../img/tt/1096tt.jpg","null","mooney2","image-keyboard-response","263","983159","0.0-6.0-5.36","2943335","co38689","norming","","","","","","",""
"3807.7800000319257","","","post_reveal_questions","survey-likert","264","986970","0.0-6.0-6.36","2943335","co38689","norming","","","{""aha"":4}","[0]","../img/tt/1096tt.jpg","",""
"null","<div style=""font-size:60px;""> </div>","null","fixation","html-keyboard-response","265","987185","0.0-6.0-0.37","2943335","co38689","norming","","","","","","",""
"null","../img/tt/1260tt.jpg","null","mooney1","image-keyboard-response","266","990198","0.0-6.0-1.37","2943335","co38689","norming","","","","","","",""
"6531.695000012405","","","post_mooney1_questions","survey-likert","267","996734","0.0-6.0-2.37","2943335","co38689","norming","","","{""curiosity"":2,""confidence"":1}","[0,1]","../img/tt/1260tt.jpg","",""
"2895.50500002224","","","recognition","survey-text","268","999637","0.0-6.0-3.37","2943335","co38689","norming","","","{""guess"":""tijger""}","","../img/tt/1260tt.jpg","",""
"null","../img/gs/1260gs.jpg","null","reveal","image-keyboard-response","269","1001640","0.0-6.0-4.37","2943335","co38689","norming","","","","","","",""
"null","../img/tt/1260tt.jpg","null","mooney2","image-keyboard-response","270","1003642","0.0-6.0-5.37","2943335","co38689","norming","","","","","","",""
"4865.044999984093","","","post_reveal_questions","survey-likert","271","1008510","0.0-6.0-6.37","2943335","co38689","norming","","","{""aha"":6}","[0]","../img/tt/1260tt.jpg","",""
"null","<div style=""font-size:60px;""> </div>","null","fixation","html-keyboard-response","272","1008719","0.0-6.0-0.38","2943335","co38689","norming","","","","","","",""
"null","../img/tt/1283tt.jpg","null","mooney1","image-keyboard-response","273","1011728","0.0-6.0-1.38","2943335","co38689","norming","","","","","","",""
"11419.200000003912","","","post_mooney1_questions","survey-likert","274","1023151","0.0-6.0-2.38","2943335","co38689","norming","","","{""curiosity"":4,""confidence"":4}","[0,1]","../img/tt/1283tt.jpg","",""
"3582.454999908805","","","recognition","survey-text","275","1026741","0.0-6.0-3.38","2943335","co38689","norming","","","{""guess"":""rode panda""}","","../img/tt/1283tt.jpg","",""
"null","../img/gs/1283gs.jpg","null","reveal","image-keyboard-response","276","1028753","0.0-6.0-4.38","2943335","co38689","norming","","","","","","",""
"null","../img/tt/1283tt.jpg","null","mooney2","image-keyboard-response","277","1030765","0.0-6.0-5.38","2943335","co38689","norming","","","","","","",""
"3096.434999955818","","","post_reveal_questions","survey-likert","278","1033865","0.0-6.0-6.38","2943335","co38689","norming","","","{""aha"":4}","[0]","../img/tt/1283tt.jpg","",""
"null","<div style=""font-size:60px;""> </div>","null","fixation","html-keyboard-response","279","1034079","0.0-6.0-0.39","2943335","co38689","norming","","","","","","",""
"null","../img/tt/1255tt.jpg","null","mooney1","image-keyboard-response","280","1037104","0.0-6.0-1.39","2943335","co38689","norming","","","","","","",""
"4871.889999951236","","","post_mooney1_questions","survey-likert","281","1041980","0.0-6.0-2.39","2943335","co38689","norming","","","{""curiosity"":4,""confidence"":3}","[0,1]","../img/tt/1255tt.jpg","",""
"2673.8850000547245","","","recognition","survey-text","282","1044660","0.0-6.0-3.39","2943335","co38689","norming","","","{""guess"":""konijn""}","","../img/tt/1255tt.jpg","",""
"null","../img/gs/1255gs.jpg","null","reveal","image-keyboard-response","283","1046675","0.0-6.0-4.39","2943335","co38689","norming","","","","","","",""
"null","../img/tt/1255tt.jpg","null","mooney2","image-keyboard-response","284","1048677","0.0-6.0-5.39","2943335","co38689","norming","","","","","","",""
"2020.299999974668","","","post_reveal_questions","survey-likert","285","1050700","0.0-6.0-6.39","2943335","co38689","norming","","","{""aha"":3}","[0]","../img/tt/1255tt.jpg","",""
"null","<div style=""font-size:60px;""> </div>","null","fixation","html-keyboard-response","286","1050908","0.0-6.0-0.40","2943335","co38689","norming","","","","","","",""
"null","../img/tt/1128tt.jpg","null","mooney1","image-keyboard-response","287","1053913","0.0-6.0-1.40","2943335","co38689","norming","","","","","","",""
"9089.370000059716","","","post_mooney1_questions","survey-likert","288","1063006","0.0-6.0-2.40","2943335","co38689","norming","","","{""curiosity"":3,""confidence"":4}","[0,1]","../img/tt/1128tt.jpg","",""
"2712.5450000166893","","","recognition","survey-text","289","1065725","0.0-6.0-3.40","2943335","co38689","norming","","","{""guess"":""panda""}","","../img/tt/1128tt.jpg","",""
"null","../img/gs/1128gs.jpg","null","reveal","image-keyboard-response","290","1067740","0.0-6.0-4.40","2943335","co38689","norming","","","","","","",""
"null","../img/tt/1128tt.jpg","null","mooney2","image-keyboard-response","291","1069742","0.0-6.0-5.40","2943335","co38689","norming","","","","","","",""
"1920.2949999598786","","","post_reveal_questions","survey-likert","292","1071665","0.0-6.0-6.40","2943335","co38689","norming","","","{""aha"":5}","[0]","../img/tt/1128tt.jpg","",""
"null","<div style=""font-size:60px;""> </div>","null","fixation","html-keyboard-response","293","1071872","0.0-6.0-0.41","2943335","co38689","norming","","","","","","",""
"null","../img/tt/135tt.jpg","null","mooney1","image-keyboard-response","294","1074880","0.0-6.0-1.41","2943335","co38689","norming","","","","","","",""
"4704.350000014529","","","post_mooney1_questions","survey-likert","295","1079589","0.0-6.0-2.41","2943335","co38689","norming","","","{""curiosity"":2,""confidence"":5}","[0,1]","../img/tt/135tt.jpg","",""
"3786.6099999519065","","","recognition","survey-text","296","1083381","0.0-6.0-3.41","2943335","co38689","norming","","","{""guess"":""wc bril""}","","../img/tt/135tt.jpg","",""
"null","../img/gs/135gs.jpg","null","reveal","image-keyboard-response","297","1085385","0.0-6.0-4.41","2943335","co38689","norming","","","","","","",""
"null","../img/tt/135tt.jpg","null","mooney2","image-keyboard-response","298","1087397","0.0-6.0-5.41","2943335","co38689","norming","","","","","","",""
"2386.3999999593943","","","post_reveal_questions","survey-likert","299","1089787","0.0-6.0-6.41","2943335","co38689","norming","","","{""aha"":0}","[0]","../img/tt/135tt.jpg","",""
"null","<div style=""font-size:60px;""> </div>","null","fixation","html-keyboard-response","300","1090001","0.0-6.0-0.42","2943335","co38689","norming","","","","","","",""
"null","../img/tt/1146tt.jpg","null","mooney1","image-keyboard-response","301","1093006","0.0-6.0-1.42","2943335","co38689","norming","","","","","","",""
"4800.634999992326","","","post_mooney1_questions","survey-likert","302","1097811","0.0-6.0-2.42","2943335","co38689","norming","","","{""curiosity"":3,""confidence"":0}","[0,1]","../img/tt/1146tt.jpg","",""
"1307.715000002645","","","recognition","survey-text","303","1099124","0.0-6.0-3.42","2943335","co38689","norming","","","{""guess"":""""}","","../img/tt/1146tt.jpg","",""
"null","../img/gs/1146gs.jpg","null","reveal","image-keyboard-response","304","1101131","0.0-6.0-4.42","2943335","co38689","norming","","","","","","",""
"null","../img/tt/1146tt.jpg","null","mooney2","image-keyboard-response","305","1103134","0.0-6.0-5.42","2943335","co38689","norming","","","","","","",""
"3101.274999906309","","","post_reveal_questions","survey-likert","306","1106239","0.0-6.0-6.42","2943335","co38689","norming","","","{""aha"":4}","[0]","../img/tt/1146tt.jpg","",""
"null","<div style=""font-size:60px;""> </div>","null","fixation","html-keyboard-response","307","1106447","0.0-6.0-0.43","2943335","co38689","norming","","","","","","",""
"null","../img/tt/036tt.jpg","null","mooney1","image-keyboard-response","308","1109467","0.0-6.0-1.43","2943335","co38689","norming","","","","","","",""
"4700.625000055879","","","post_mooney1_questions","survey-likert","309","1114172","0.0-6.0-2.43","2943335","co38689","norming","","","{""curiosity"":3,""confidence"":4}","[0,1]","../img/tt/036tt.jpg","",""
"3259.2850000364706","","","recognition","survey-text","310","1117438","0.0-6.0-3.43","2943335","co38689","norming","","","{""guess"":""bliksem""}","","../img/tt/036tt.jpg","",""
"null","../img/gs/036gs.jpg","null","reveal","image-keyboard-response","311","1119455","0.0-6.0-4.43","2943335","co38689","norming","","","","","","",""
"null","../img/tt/036tt.jpg","null","mooney2","image-keyboard-response","312","1121464","0.0-6.0-5.43","2943335","co38689","norming","","","","","","",""
"3174.8249999945983","","","post_reveal_questions","survey-likert","313","1124642","0.0-6.0-6.43","2943335","co38689","norming","","","{""aha"":1}","[0]","../img/tt/036tt.jpg","",""
"null","<div style=""font-size:60px;""> </div>","null","fixation","html-keyboard-response","314","1124845","0.0-6.0-0.44","2943335","co38689","norming","","","","","","",""
"null","../img/tt/567tt.jpg","null","mooney1","image-keyboard-response","315","1127850","0.0-6.0-1.44","2943335","co38689","norming","","","","","","",""
"5195.760000031441","","","post_mooney1_questions","survey-likert","316","1133050","0.0-6.0-2.44","2943335","co38689","norming","","","{""curiosity"":4,""confidence"":0}","[0,1]","../img/tt/567tt.jpg","",""
"1095.5449999310076","","","recognition","survey-text","317","1134152","0.0-6.0-3.44","2943335","co38689","norming","","","{""guess"":""""}","","../img/tt/567tt.jpg","",""
"null","../img/gs/567gs.jpg","null","reveal","image-keyboard-response","318","1136168","0.0-6.0-4.44","2943335","co38689","norming","","","","","","",""
"null","../img/tt/567tt.jpg","null","mooney2","image-keyboard-response","319","1138171","0.0-6.0-5.44","2943335","co38689","norming","","","","","","",""
"3191.6699999710545","","","post_reveal_questions","survey-likert","320","1141366","0.0-6.0-6.44","2943335","co38689","norming","","","{""aha"":5}","[0]","../img/tt/567tt.jpg","",""
"null","<div style=""font-size:60px;""> </div>","null","fixation","html-keyboard-response","321","1141569","0.0-6.0-0.45","2943335","co38689","norming","","","","","","",""
"null","../img/tt/1236tt.jpg","null","mooney1","image-keyboard-response","322","1144576","0.0-6.0-1.45","2943335","co38689","norming","","","","","","",""
"6973.6249999841675","","","post_mooney1_questions","survey-likert","323","1151554","0.0-6.0-2.45","2943335","co38689","norming","","","{""curiosity"":4,""confidence"":1}","[0,1]","../img/tt/1236tt.jpg","",""
"3250.430000014603","","","recognition","survey-text","324","1154811","0.0-6.0-3.45","2943335","co38689","norming","","","{""guess"":""water""}","","../img/tt/1236tt.jpg","",""
"null","../img/gs/1236gs.jpg","null","reveal","image-keyboard-response","325","1156820","0.0-6.0-4.45","2943335","co38689","norming","","","","","","",""
"null","../img/tt/1236tt.jpg","null","mooney2","image-keyboard-response","326","1158823","0.0-6.0-5.45","2943335","co38689","norming","","","","","","",""
"1964.879999984987","","","post_reveal_questions","survey-likert","327","1160791","0.0-6.0-6.45","2943335","co38689","norming","","","{""aha"":5}","[0]","../img/tt/1236tt.jpg","",""
"null","<div style=""font-size:60px;""> </div>","null","fixation","html-keyboard-response","328","1161010","0.0-6.0-0.46","2943335","co38689","norming","","","","","","",""
"null","../img/tt/559tt.jpg","null","mooney1","image-keyboard-response","329","1164015","0.0-6.0-1.46","2943335","co38689","norming","","","","","","",""
"5715.0900000706315","","","post_mooney1_questions","survey-likert","330","1169734","0.0-6.0-2.46","2943335","co38689","norming","","","{""curiosity"":4,""confidence"":1}","[0,1]","../img/tt/559tt.jpg","",""
"2611.709999968298","","","recognition","survey-text","331","1172353","0.0-6.0-3.46","2943335","co38689","norming","","","{""guess"":""voet""}","","../img/tt/559tt.jpg","",""
"null","../img/gs/559gs.jpg","null","reveal","image-keyboard-response","332","1174364","0.0-6.0-4.46","2943335","co38689","norming","","","","","","",""
"null","../img/tt/559tt.jpg","null","mooney2","image-keyboard-response","333","1176367","0.0-6.0-5.46","2943335","co38689","norming","","","","","","",""
"2448.5700000077486","","","post_reveal_questions","survey-likert","334","1178818","0.0-6.0-6.46","2943335","co38689","norming","","","{""aha"":6}","[0]","../img/tt/559tt.jpg","",""
"null","<div style=""font-size:60px;""> </div>","null","fixation","html-keyboard-response","335","1179029","0.0-6.0-0.47","2943335","co38689","norming","","","","","","",""
"null","../img/tt/105tt.jpg","null","mooney1","image-keyboard-response","336","1182035","0.0-6.0-1.47","2943335","co38689","norming","","","","","","",""
"9901.580000063404","","","post_mooney1_questions","survey-likert","337","1191941","0.0-6.0-2.47","2943335","co38689","norming","","","{""curiosity"":3,""confidence"":3}","[0,1]","../img/tt/105tt.jpg","",""
"3764.824999962002","","","recognition","survey-text","338","1195712","0.0-6.0-3.47","2943335","co38689","norming","","","{""guess"":""paperclips""}","","../img/tt/105tt.jpg","",""
"null","../img/gs/105gs.jpg","null","reveal","image-keyboard-response","339","1197715","0.0-6.0-4.47","2943335","co38689","norming","","","","","","",""
"null","../img/tt/105tt.jpg","null","mooney2","image-keyboard-response","340","1199718","0.0-6.0-5.47","2943335","co38689","norming","","","","","","",""
"2283.4150000708178","","","post_reveal_questions","survey-likert","341","1202006","0.0-6.0-6.47","2943335","co38689","norming","","","{""aha"":2}","[0]","../img/tt/105tt.jpg","",""
"null","<div style=""font-size:60px;""> </div>","null","fixation","html-keyboard-response","342","1202219","0.0-6.0-0.48","2943335","co38689","norming","","","","","","",""
"null","../img/tt/052tt.jpg","null","mooney1","image-keyboard-response","343","1205237","0.0-6.0-1.48","2943335","co38689","norming","","","","","","",""
"7347.26499998942","","","post_mooney1_questions","survey-likert","344","1212589","0.0-6.0-2.48","2943335","co38689","norming","","","{""curiosity"":2,""confidence"":3}","[0,1]","../img/tt/052tt.jpg","",""
"2218.1049999780953","","","recognition","survey-text","345","1214813","0.0-6.0-3.48","2943335","co38689","norming","","","{""guess"":""trommel""}","","../img/tt/052tt.jpg","",""
"null","../img/gs/052gs.jpg","null","reveal","image-keyboard-response","346","1216816","0.0-6.0-4.48","2943335","co38689","norming","","","","","","",""
"null","../img/tt/052tt.jpg","null","mooney2","image-keyboard-response","347","1218818","0.0-6.0-5.48","2943335","co38689","norming","","","","","","",""
"5541.589999920689","","","post_reveal_questions","survey-likert","348","1224363","0.0-6.0-6.48","2943335","co38689","norming","","","{""aha"":4}","[0]","../img/tt/052tt.jpg","",""
"null","<div style=""font-size:60px;""> </div>","null","fixation","html-keyboard-response","349","1224583","0.0-6.0-0.49","2943335","co38689","norming","","","","","","",""
"null","../img/tt/507tt.jpg","null","mooney1","image-keyboard-response","350","1227588","0.0-6.0-1.49","2943335","co38689","norming","","","","","","",""
"9597.81499998644","","","post_mooney1_questions","survey-likert","351","1237191","0.0-6.0-2.49","2943335","co38689","norming","","","{""curiosity"":5,""confidence"":4}","[0,1]","../img/tt/507tt.jpg","",""
"3149.4849999435246","","","recognition","survey-text","352","1240346","0.0-6.0-3.49","2943335","co38689","norming","","","{""guess"":""pinguin""}","","../img/tt/507tt.jpg","",""
"null","../img/gs/507gs.jpg","null","reveal","image-keyboard-response","353","1242365","0.0-6.0-4.49","2943335","co38689","norming","","","","","","",""
"null","../img/tt/507tt.jpg","null","mooney2","image-keyboard-response","354","1244372","0.0-6.0-5.49","2943335","co38689","norming","","","","","","",""
"2389.2549999291077","","","post_reveal_questions","survey-likert","355","1246765","0.0-6.0-6.49","2943335","co38689","norming","","","{""aha"":4}","[0]","../img/tt/507tt.jpg","",""
"null","<div style=""font-size:60px;""> </div>","null","fixation","html-keyboard-response","356","1246972","0.0-6.0-0.50","2943335","co38689","norming","","","","","","",""
"null","../img/tt/222tt.jpg","null","mooney1","image-keyboard-response","357","1249989","0.0-6.0-1.50","2943335","co38689","norming","","","","","","",""
"8982.520000077784","","","post_mooney1_questions","survey-likert","358","1258976","0.0-6.0-2.50","2943335","co38689","norming","","","{""curiosity"":3,""confidence"":4}","[0,1]","../img/tt/222tt.jpg","",""
"2865.6600000103936","","","recognition","survey-text","359","1261848","0.0-6.0-3.50","2943335","co38689","norming","","","{""guess"":""zanger""}","","../img/tt/222tt.jpg","",""
"null","../img/gs/222gs.jpg","null","reveal","image-keyboard-response","360","1263865","0.0-6.0-4.50","2943335","co38689","norming","","","","","","",""
"null","../img/tt/222tt.jpg","null","mooney2","image-keyboard-response","361","1265868","0.0-6.0-5.50","2943335","co38689","norming","","","","","","",""
"3413.784999982454","","","post_reveal_questions","survey-likert","362","1269285","0.0-6.0-6.50","2943335","co38689","norming","","","{""aha"":5}","[0]","../img/tt/222tt.jpg","",""
"null","<div style=""font-size:60px;""> </div>","null","fixation","html-keyboard-response","363","1269489","0.0-6.0-0.51","2943335","co38689","norming","","","","","","",""
"null","../img/tt/1118tt.jpg","null","mooney1","image-keyboard-response","364","1272493","0.0-6.0-1.51","2943335","co38689","norming","","","","","","",""
"5700.614999979734","","","post_mooney1_questions","survey-likert","365","1278197","0.0-6.0-2.51","2943335","co38689","norming","","","{""curiosity"":3,""confidence"":4}","[0,1]","../img/tt/1118tt.jpg","",""
"3654.065000009723","","","recognition","survey-text","366","1281858","0.0-6.0-3.51","2943335","co38689","norming","","","{""guess"":""olifant""}","","../img/tt/1118tt.jpg","",""
"null","../img/gs/1118gs.jpg","null","reveal","image-keyboard-response","367","1283862","0.0-6.0-4.51","2943335","co38689","norming","","","","","","",""
"null","../img/tt/1118tt.jpg","null","mooney2","image-keyboard-response","368","1285871","0.0-6.0-5.51","2943335","co38689","norming","","","","","","",""
"4046.0750000784174","","","post_reveal_questions","survey-likert","369","1289920","0.0-6.0-6.51","2943335","co38689","norming","","","{""aha"":2}","[0]","../img/tt/1118tt.jpg","",""
"null","<div style=""font-size:60px;""> </div>","null","fixation","html-keyboard-response","370","1290136","0.0-6.0-0.52","2943335","co38689","norming","","","","","","",""
"null","../img/tt/590tt.jpg","null","mooney1","image-keyboard-response","371","1293141","0.0-6.0-1.52","2943335","co38689","norming","","","","","","",""
"4160.105000017211","","","post_mooney1_questions","survey-likert","372","1297305","0.0-6.0-2.52","2943335","co38689","norming","","","{""curiosity"":3,""confidence"":0}","[0,1]","../img/tt/590tt.jpg","",""
"1569.080000044778","","","recognition","survey-text","373","1298881","0.0-6.0-3.52","2943335","co38689","norming","","","{""guess"":""""}","","../img/tt/590tt.jpg","",""
"null","../img/gs/590gs.jpg","null","reveal","image-keyboard-response","374","1300906","0.0-6.0-4.52","2943335","co38689","norming","","","","","","",""
"null","../img/tt/590tt.jpg","null","mooney2","image-keyboard-response","375","1302908","0.0-6.0-5.52","2943335","co38689","norming","","","","","","",""
"1756.9050000747666","","","post_reveal_questions","survey-likert","376","1304668","0.0-6.0-6.52","2943335","co38689","norming","","","{""aha"":5}","[0]","../img/tt/590tt.jpg","",""
"null","<div style=""font-size:60px;""> </div>","null","fixation","html-keyboard-response","377","1304879","0.0-6.0-0.53","2943335","co38689","norming","","","","","","",""
"null","../img/tt/1084tt.jpg","null","mooney1","image-keyboard-response","378","1307887","0.0-6.0-1.53","2943335","co38689","norming","","","","","","",""
"5222.330000018701","","","post_mooney1_questions","survey-likert","379","1313115","0.0-6.0-2.53","2943335","co38689","norming","","","{""curiosity"":3,""confidence"":3}","[0,1]","../img/tt/1084tt.jpg","",""
"2612.915000063367","","","recognition","survey-text","380","1315734","0.0-6.0-3.53","2943335","co38689","norming","","","{""guess"":""taart""}","","../img/tt/1084tt.jpg","",""
"null","../img/gs/1084gs.jpg","null","reveal","image-keyboard-response","381","1317741","0.0-6.0-4.53","2943335","co38689","norming","","","","","","",""
"null","../img/tt/1084tt.jpg","null","mooney2","image-keyboard-response","382","1319747","0.0-6.0-5.53","2943335","co38689","norming","","","","","","",""
"4289.159999927506","","","post_reveal_questions","survey-likert","383","1324039","0.0-6.0-6.53","2943335","co38689","norming","","","{""aha"":2}","[0]","../img/tt/1084tt.jpg","",""
"null","<div style=""font-size:60px;""> </div>","null","fixation","html-keyboard-response","384","1324259","0.0-6.0-0.54","2943335","co38689","norming","","","","","","",""
"null","../img/tt/1043tt.jpg","null","mooney1","image-keyboard-response","385","1327265","0.0-6.0-1.54","2943335","co38689","norming","","","","","","",""
"6208.149999962188","","","post_mooney1_questions","survey-likert","386","1333478","0.0-6.0-2.54","2943335","co38689","norming","","","{""curiosity"":4,""confidence"":2}","[0,1]","../img/tt/1043tt.jpg","",""
"3219.0150000387803","","","recognition","survey-text","387","1336703","0.0-6.0-3.54","2943335","co38689","norming","","","{""guess"":""slang""}","","../img/tt/1043tt.jpg","",""
"null","../img/gs/1043gs.jpg","null","reveal","image-keyboard-response","388","1338713","0.0-6.0-4.54","2943335","co38689","norming","","","","","","",""
"null","../img/tt/1043tt.jpg","null","mooney2","image-keyboard-response","389","1340721","0.0-6.0-5.54","2943335","co38689","norming","","","","","","",""
"2078.250000020489","","","post_reveal_questions","survey-likert","390","1342803","0.0-6.0-6.54","2943335","co38689","norming","","","{""aha"":4}","[0]","../img/tt/1043tt.jpg","",""
"null","<div style=""font-size:60px;""> </div>","null","fixation","html-keyboard-response","391","1343012","0.0-6.0-0.55","2943335","co38689","norming","","","","","","",""
"null","../img/tt/405tt.jpg","null","mooney1","image-keyboard-response","392","1346018","0.0-6.0-1.55","2943335","co38689","norming","","","","","","",""
"4144.755000015721","","","post_mooney1_questions","survey-likert","393","1350167","0.0-6.0-2.55","2943335","co38689","norming","","","{""curiosity"":0,""confidence"":6}","[0,1]","../img/tt/405tt.jpg","",""
"2795.0000000419095","","","recognition","survey-text","394","1352968","0.0-6.0-3.55","2943335","co38689","norming","","","{""guess"":""koala""}","","../img/tt/405tt.jpg","",""
"null","../img/gs/405gs.jpg","null","reveal","image-keyboard-response","395","1354980","0.0-6.0-4.55","2943335","co38689","norming","","","","","","",""
"null","../img/tt/405tt.jpg","null","mooney2","image-keyboard-response","396","1356985","0.0-6.0-5.55","2943335","co38689","norming","","","","","","",""
"5105.174999916926","","","post_reveal_questions","survey-likert","397","1362093","0.0-6.0-6.55","2943335","co38689","norming","","","{""aha"":0}","[0]","../img/tt/405tt.jpg","",""
"null","<div style=""font-size:60px;""> </div>","null","fixation","html-keyboard-response","398","1362303","0.0-6.0-0.56","2943335","co38689","norming","","","","","","",""
"null","../img/tt/123tt.jpg","null","mooney1","image-keyboard-response","399","1365307","0.0-6.0-1.56","2943335","co38689","norming","","","","","","",""
"7566.009999951348","","","post_mooney1_questions","survey-likert","400","1372878","0.0-6.0-2.56","2943335","co38689","norming","","","{""curiosity"":0,""confidence"":4}","[0,1]","../img/tt/123tt.jpg","",""
"3329.5950000174344","","","recognition","survey-text","401","1376213","0.0-6.0-3.56","2943335","co38689","norming","","","{""guess"":""koffer""}","","../img/tt/123tt.jpg","",""
"null","../img/gs/123gs.jpg","null","reveal","image-keyboard-response","402","1378231","0.0-6.0-4.56","2943335","co38689","norming","","","","","","",""
"null","../img/tt/123tt.jpg","null","mooney2","image-keyboard-response","403","1380234","0.0-6.0-5.56","2943335","co38689","norming","","","","","","",""
"3451.350000104867","","","post_reveal_questions","survey-likert","404","1383689","0.0-6.0-6.56","2943335","co38689","norming","","","{""aha"":0}","[0]","../img/tt/123tt.jpg","",""
"null","<div style=""font-size:60px;""> </div>","null","fixation","html-keyboard-response","405","1383914","0.0-6.0-0.57","2943335","co38689","norming","","","","","","",""
"null","../img/tt/1156tt.jpg","null","mooney1","image-keyboard-response","406","1386920","0.0-6.0-1.57","2943335","co38689","norming","","","","","","",""
"5333.755000028759","","","post_mooney1_questions","survey-likert","407","1392258","0.0-6.0-2.57","2943335","co38689","norming","","","{""curiosity"":4,""confidence"":1}","[0,1]","../img/tt/1156tt.jpg","",""
"6052.239999989979","","","recognition","survey-text","408","1398316","0.0-6.0-3.57","2943335","co38689","norming","","","{""guess"":""bootje""}","","../img/tt/1156tt.jpg","",""
"null","../img/gs/1156gs.jpg","null","reveal","image-keyboard-response","409","1400323","0.0-6.0-4.57","2943335","co38689","norming","","","","","","",""
"null","../img/tt/1156tt.jpg","null","mooney2","image-keyboard-response","410","1402325","0.0-6.0-5.57","2943335","co38689","norming","","","","","","",""
"1714.174999971874","","","post_reveal_questions","survey-likert","411","1404042","0.0-6.0-6.57","2943335","co38689","norming","","","{""aha"":5}","[0]","../img/tt/1156tt.jpg","",""
"null","<div style=""font-size:60px;""> </div>","null","fixation","html-keyboard-response","412","1404254","0.0-6.0-0.58","2943335","co38689","norming","","","","","","",""
"null","../img/tt/126tt.jpg","null","mooney1","image-keyboard-response","413","1407257","0.0-6.0-1.58","2943335","co38689","norming","","","","","","",""
"4671.779999975115","","","post_mooney1_questions","survey-likert","414","1411933","0.0-6.0-2.58","2943335","co38689","norming","","","{""curiosity"":1,""confidence"":6}","[0,1]","../img/tt/126tt.jpg","",""
"2370.890000020154","","","recognition","survey-text","415","1414309","0.0-6.0-3.58","2943335","co38689","norming","","","{""guess"":""koe""}","","../img/tt/126tt.jpg","",""
"null","../img/gs/126gs.jpg","null","reveal","image-keyboard-response","416","1416313","0.0-6.0-4.58","2943335","co38689","norming","","","","","","",""
"null","../img/tt/126tt.jpg","null","mooney2","image-keyboard-response","417","1418321","0.0-6.0-5.58","2943335","co38689","norming","","","","","","",""
"3026.979999965988","","","post_reveal_questions","survey-likert","418","1421352","0.0-6.0-6.58","2943335","co38689","norming","","","{""aha"":0}","[0]","../img/tt/126tt.jpg","",""
"null","<div style=""font-size:60px;""> </div>","null","fixation","html-keyboard-response","419","1421563","0.0-6.0-0.59","2943335","co38689","norming","","","","","","",""
"null","../img/tt/1268tt.jpg","null","mooney1","image-keyboard-response","420","1424569","0.0-6.0-1.59","2943335","co38689","norming","","","","","","",""
"6015.660000033677","","","post_mooney1_questions","survey-likert","421","1430589","0.0-6.0-2.59","2943335","co38689","norming","","","{""curiosity"":4,""confidence"":2}","[0,1]","../img/tt/1268tt.jpg","",""
"2247.9749999474734","","","recognition","survey-text","422","1432843","0.0-6.0-3.59","2943335","co38689","norming","","","{""guess"":""aap""}","","../img/tt/1268tt.jpg","",""
"null","../img/gs/1268gs.jpg","null","reveal","image-keyboard-response","423","1434860","0.0-6.0-4.59","2943335","co38689","norming","","","","","","",""
"null","../img/tt/1268tt.jpg","null","mooney2","image-keyboard-response","424","1436862","0.0-6.0-5.59","2943335","co38689","norming","","","","","","",""
"2826.9850000506267","","","post_reveal_questions","survey-likert","425","1439692","0.0-6.0-6.59","2943335","co38689","norming","","","{""aha"":5}","[0]","../img/tt/1268tt.jpg","",""
"null","<div style=""font-size:60px;""> </div>","null","fixation","html-keyboard-response","426","1439908","0.0-6.0-0.60","2943335","co38689","norming","","","","","","",""
"null","../img/tt/1202tt.jpg","null","mooney1","image-keyboard-response","427","1442914","0.0-6.0-1.60","2943335","co38689","norming","","","","","","",""
"8333.415000000969","","","post_mooney1_questions","survey-likert","428","1451251","0.0-6.0-2.60","2943335","co38689","norming","","","{""curiosity"":3,""confidence"":1}","[0,1]","../img/tt/1202tt.jpg","",""
"6061.709999921732","","","recognition","survey-text","429","1457320","0.0-6.0-3.60","2943335","co38689","norming","","","{""guess"":""muzikant""}","","../img/tt/1202tt.jpg","",""
"null","../img/gs/1202gs.jpg","null","reveal","image-keyboard-response","430","1459325","0.0-6.0-4.60","2943335","co38689","norming","","","","","","",""
"null","../img/tt/1202tt.jpg","null","mooney2","image-keyboard-response","431","1461341","0.0-6.0-5.60","2943335","co38689","norming","","","","","","",""
"3199.239999987185","","","post_reveal_questions","survey-likert","432","1464544","0.0-6.0-6.60","2943335","co38689","norming","","","{""aha"":3}","[0]","../img/tt/1202tt.jpg","",""
"null","<div style=""font-size:60px;""> </div>","null","fixation","html-keyboard-response","433","1464757","0.0-6.0-0.61","2943335","co38689","norming","","","","","","",""
"null","../img/tt/1049tt.jpg","null","mooney1","image-keyboard-response","434","1467764","0.0-6.0-1.61","2943335","co38689","norming","","","","","","",""
"4242.665000027046","","","post_mooney1_questions","survey-likert","435","1472011","0.0-6.0-2.61","2943335","co38689","norming","","","{""curiosity"":4,""confidence"":4}","[0,1]","../img/tt/1049tt.jpg","",""
"3199.4699999922886","","","recognition","survey-text","436","1475216","0.0-6.0-3.61","2943335","co38689","norming","","","{""guess"":""hond""}","","../img/tt/1049tt.jpg","",""
"null","../img/gs/1049gs.jpg","null","reveal","image-keyboard-response","437","1477219","0.0-6.0-4.61","2943335","co38689","norming","","","","","","",""
"null","../img/tt/1049tt.jpg","null","mooney2","image-keyboard-response","438","1479221","0.0-6.0-5.61","2943335","co38689","norming","","","","","","",""
"2599.019999965094","","","post_reveal_questions","survey-likert","439","1481823","0.0-6.0-6.61","2943335","co38689","norming","","","{""aha"":1}","[0]","../img/tt/1049tt.jpg","",""
"null","<div style=""font-size:60px;""> </div>","null","fixation","html-keyboard-response","440","1482035","0.0-6.0-0.62","2943335","co38689","norming","","","","","","",""
"null","../img/tt/481tt.jpg","null","mooney1","image-keyboard-response","441","1485041","0.0-6.0-1.62","2943335","co38689","norming","","","","","","",""
"3364.629999967292","","","post_mooney1_questions","survey-likert","442","1488410","0.0-6.0-2.62","2943335","co38689","norming","","","{""curiosity"":0,""confidence"":6}","[0,1]","../img/tt/481tt.jpg","",""
"2764.049999997951","","","recognition","survey-text","443","1491180","0.0-6.0-3.62","2943335","co38689","norming","","","{""guess"":""hond""}","","../img/tt/481tt.jpg","",""
"null","../img/gs/481gs.jpg","null","reveal","image-keyboard-response","444","1493182","0.0-6.0-4.62","2943335","co38689","norming","","","","","","",""
"null","../img/tt/481tt.jpg","null","mooney2","image-keyboard-response","445","1495191","0.0-6.0-5.62","2943335","co38689","norming","","","","","","",""
"2390.819999971427","","","post_reveal_questions","survey-likert","446","1497585","0.0-6.0-6.62","2943335","co38689","norming","","","{""aha"":0}","[0]","../img/tt/481tt.jpg","",""
"null","<div style=""font-size:60px;""> </div>","null","fixation","html-keyboard-response","447","1497793","0.0-6.0-0.63","2943335","co38689","norming","","","","","","",""
"null","../img/tt/1123tt.jpg","null","mooney1","image-keyboard-response","448","1500800","0.0-6.0-1.63","2943335","co38689","norming","","","","","","",""
"6686.469999956898","","","post_mooney1_questions","survey-likert","449","1507491","0.0-6.0-2.63","2943335","co38689","norming","","","{""curiosity"":1,""confidence"":4}","[0,1]","../img/tt/1123tt.jpg","",""
"3158.794999937527","","","recognition","survey-text","450","1510656","0.0-6.0-3.63","2943335","co38689","norming","","","{""guess"":""voetbal""}","","../img/tt/1123tt.jpg","",""
"null","../img/gs/1123gs.jpg","null","reveal","image-keyboard-response","451","1512664","0.0-6.0-4.63","2943335","co38689","norming","","","","","","",""
"null","../img/tt/1123tt.jpg","null","mooney2","image-keyboard-response","452","1514669","0.0-6.0-5.63","2943335","co38689","norming","","","","","","",""
"2510.1599999470636","","","post_reveal_questions","survey-likert","453","1517182","0.0-6.0-6.63","2943335","co38689","norming","","","{""aha"":2}","[0]","../img/tt/1123tt.jpg","",""
"null","<div style=""font-size:60px;""> </div>","null","fixation","html-keyboard-response","454","1517398","0.0-6.0-0.64","2943335","co38689","norming","","","","","","",""
"null","../img/tt/163tt.jpg","null","mooney1","image-keyboard-response","455","1520402","0.0-6.0-1.64","2943335","co38689","norming","","","","","","",""
"5386.394999921322","","","post_mooney1_questions","survey-likert","456","1525792","0.0-6.0-2.64","2943335","co38689","norming","","","{""curiosity"":5,""confidence"":1}","[0,1]","../img/tt/163tt.jpg","",""
"2999.159999890253","","","recognition","survey-text","457","1528799","0.0-6.0-3.64","2943335","co38689","norming","","","{""guess"":""kikker""}","","../img/tt/163tt.jpg","",""
"null","../img/gs/163gs.jpg","null","reveal","image-keyboard-response","458","1530822","0.0-6.0-4.64","2943335","co38689","norming","","","","","","",""
"null","../img/tt/163tt.jpg","null","mooney2","image-keyboard-response","459","1532840","0.0-6.0-5.64","2943335","co38689","norming","","","","","","",""
"2115.7599999569356","","","post_reveal_questions","survey-likert","460","1534959","0.0-6.0-6.64","2943335","co38689","norming","","","{""aha"":4}","[0]","../img/tt/163tt.jpg","",""
"null","<div style=""font-size:60px;""> </div>","null","fixation","html-keyboard-response","461","1535177","0.0-6.0-0.65","2943335","co38689","norming","","","","","","",""
"null","../img/tt/1161tt.jpg","null","mooney1","image-keyboard-response","462","1538186","0.0-6.0-1.65","2943335","co38689","norming","","","","","","",""
"7220.070000039414","","","post_mooney1_questions","survey-likert","463","1545411","0.0-6.0-2.65","2943335","co38689","norming","","","{""curiosity"":3,""confidence"":1}","[0,1]","../img/tt/1161tt.jpg","",""
"4018.7250000890344","","","recognition","survey-text","464","1549437","0.0-6.0-3.65","2943335","co38689","norming","","","{""guess"":""rotsen""}","","../img/tt/1161tt.jpg","",""
"null","../img/gs/1161gs.jpg","null","reveal","image-keyboard-response","465","1551442","0.0-6.0-4.65","2943335","co38689","norming","","","","","","",""
"null","../img/tt/1161tt.jpg","null","mooney2","image-keyboard-response","466","1553445","0.0-6.0-5.65","2943335","co38689","norming","","","","","","",""
"2859.284999896772","","","post_reveal_questions","survey-likert","467","1556307","0.0-6.0-6.65","2943335","co38689","norming","","","{""aha"":1}","[0]","../img/tt/1161tt.jpg","",""
"null","<div style=""font-size:60px;""> </div>","null","fixation","html-keyboard-response","468","1556523","0.0-6.0-0.66","2943335","co38689","norming","","","","","","",""
"null","../img/tt/378tt.jpg","null","mooney1","image-keyboard-response","469","1559541","0.0-6.0-1.66","2943335","co38689","norming","","","","","","",""
"4460.625000065193","","","post_mooney1_questions","survey-likert","470","1564006","0.0-6.0-2.66","2943335","co38689","norming","","","{""curiosity"":5,""confidence"":0}","[0,1]","../img/tt/378tt.jpg","",""
"923.2949999859557","","","recognition","survey-text","471","1564936","0.0-6.0-3.66","2943335","co38689","norming","","","{""guess"":""""}","","../img/tt/378tt.jpg","",""
"null","../img/gs/378gs.jpg","null","reveal","image-keyboard-response","472","1566960","0.0-6.0-4.66","2943335","co38689","norming","","","","","","",""
"null","../img/tt/378tt.jpg","null","mooney2","image-keyboard-response","473","1568964","0.0-6.0-5.66","2943335","co38689","norming","","","","","","",""
"2344.524999964051","","","post_reveal_questions","survey-likert","474","1571312","0.0-6.0-6.66","2943335","co38689","norming","","","{""aha"":5}","[0]","../img/tt/378tt.jpg","",""
"null","<div style=""font-size:60px;""> </div>","null","fixation","html-keyboard-response","475","1571526","0.0-6.0-0.67","2943335","co38689","norming","","","","","","",""
"null","../img/tt/273tt.jpg","null","mooney1","image-keyboard-response","476","1574533","0.0-6.0-1.67","2943335","co38689","norming","","","","","","",""
"6265.020000049844","","","post_mooney1_questions","survey-likert","477","1580802","0.0-6.0-2.67","2943335","co38689","norming","","","{""curiosity"":1,""confidence"":5}","[0,1]","../img/tt/273tt.jpg","",""
"5545.2050000894815","","","recognition","survey-text","478","1586356","0.0-6.0-3.67","2943335","co38689","norming","","","{""guess"":""lachende persoon""}","","../img/tt/273tt.jpg","",""
"null","../img/gs/273gs.jpg","null","reveal","image-keyboard-response","479","1588368","0.0-6.0-4.67","2943335","co38689","norming","","","","","","",""
"null","../img/tt/273tt.jpg","null","mooney2","image-keyboard-response","480","1590373","0.0-6.0-5.67","2943335","co38689","norming","","","","","","",""
"5327.990000019781","","","post_reveal_questions","survey-likert","481","1595704","0.0-6.0-6.67","2943335","co38689","norming","","","{""aha"":0}","[0]","../img/tt/273tt.jpg","",""
"null","<div style=""font-size:60px;""> </div>","null","fixation","html-keyboard-response","482","1595924","0.0-6.0-0.68","2943335","co38689","norming","","","","","","",""
"null","../img/tt/1148tt.jpg","null","mooney1","image-keyboard-response","483","1598941","0.0-6.0-1.68","2943335","co38689","norming","","","","","","",""
"4590.76500008814","","","post_mooney1_questions","survey-likert","484","1603536","0.0-6.0-2.68","2943335","co38689","norming","","","{""curiosity"":2,""confidence"":0}","[0,1]","../img/tt/1148tt.jpg","",""
"932.8650000970811","","","recognition","survey-text","485","1604476","0.0-6.0-3.68","2943335","co38689","norming","","","{""guess"":""""}","","../img/tt/1148tt.jpg","",""
"null","../img/gs/1148gs.jpg","null","reveal","image-keyboard-response","486","1606489","0.0-6.0-4.68","2943335","co38689","norming","","","","","","",""
"null","../img/tt/1148tt.jpg","null","mooney2","image-keyboard-response","487","1608492","0.0-6.0-5.68","2943335","co38689","norming","","","","","","",""
"1828.9100000401959","","","post_reveal_questions","survey-likert","488","1610324","0.0-6.0-6.68","2943335","co38689","norming","","","{""aha"":4}","[0]","../img/tt/1148tt.jpg","",""
"null","<div style=""font-size:60px;""> </div>","null","fixation","html-keyboard-response","489","1610540","0.0-6.0-0.69","2943335","co38689","norming","","","","","","",""
"null","../img/tt/412tt.jpg","null","mooney1","image-keyboard-response","490","1613559","0.0-6.0-1.69","2943335","co38689","norming","","","","","","",""
"9782.54000004381","","","post_mooney1_questions","survey-likert","491","1623346","0.0-6.0-2.69","2943335","co38689","norming","","","{""curiosity"":3,""confidence"":2}","[0,1]","../img/tt/412tt.jpg","",""
"4119.820000021718","","","recognition","survey-text","492","1627472","0.0-6.0-3.69","2943335","co38689","norming","","","{""guess"":""flesjes""}","","../img/tt/412tt.jpg","",""
"null","../img/gs/412gs.jpg","null","reveal","image-keyboard-response","493","1629490","0.0-6.0-4.69","2943335","co38689","norming","","","","","","",""
"null","../img/tt/412tt.jpg","null","mooney2","image-keyboard-response","494","1631493","0.0-6.0-5.69","2943335","co38689","norming","","","","","","",""
"2158.464999985881","","","post_reveal_questions","survey-likert","495","1633655","0.0-6.0-6.69","2943335","co38689","norming","","","{""aha"":4}","[0]","../img/tt/412tt.jpg","",""
"null","<div style=""font-size:60px;""> </div>","null","fixation","html-keyboard-response","496","1633872","0.0-6.0-0.70","2943335","co38689","norming","","","","","","",""
"null","../img/tt/1080tt.jpg","null","mooney1","image-keyboard-response","497","1636896","0.0-6.0-1.70","2943335","co38689","norming","","","","","","",""
"4607.079999987036","","","post_mooney1_questions","survey-likert","498","1641507","0.0-6.0-2.70","2943335","co38689","norming","","","{""curiosity"":2,""confidence"":4}","[0,1]","../img/tt/1080tt.jpg","",""
"2642.4800000386313","","","recognition","survey-text","499","1644157","0.0-6.0-3.70","2943335","co38689","norming","","","{""guess"":""lama""}","","../img/tt/1080tt.jpg","",""
"null","../img/gs/1080gs.jpg","null","reveal","image-keyboard-response","500","1646171","0.0-6.0-4.70","2943335","co38689","norming","","","","","","",""
"null","../img/tt/1080tt.jpg","null","mooney2","image-keyboard-response","501","1648173","0.0-6.0-5.70","2943335","co38689","norming","","","","","","",""
"3094.5700000738725","","","post_reveal_questions","survey-likert","502","1651270","0.0-6.0-6.70","2943335","co38689","norming","","","{""aha"":1}","[0]","../img/tt/1080tt.jpg","",""
"null","<div style=""font-size:60px;""> </div>","null","fixation","html-keyboard-response","503","1651478","0.0-6.0-0.71","2943335","co38689","norming","","","","","","",""
"null","../img/tt/524tt.jpg","null","mooney1","image-keyboard-response","504","1654487","0.0-6.0-1.71","2943335","co38689","norming","","","","","","",""
"5896.7549999943","","","post_mooney1_questions","survey-likert","505","1660387","0.0-6.0-2.71","2943335","co38689","norming","","","{""curiosity"":2,""confidence"":4}","[0,1]","../img/tt/524tt.jpg","",""
"2530.8850000146776","","","recognition","survey-text","506","1662925","0.0-6.0-3.71","2943335","co38689","norming","","","{""guess"":""stier""}","","../img/tt/524tt.jpg","",""
"null","../img/gs/524gs.jpg","null","reveal","image-keyboard-response","507","1664931","0.0-6.0-4.71","2943335","co38689","norming","","","","","","",""
"null","../img/tt/524tt.jpg","null","mooney2","image-keyboard-response","508","1666937","0.0-6.0-5.71","2943335","co38689","norming","","","","","","",""
"1995.6350000575185","","","post_reveal_questions","survey-likert","509","1668936","0.0-6.0-6.71","2943335","co38689","norming","","","{""aha"":6}","[0]","../img/tt/524tt.jpg","",""
"null","<div style=""font-size:60px;""> </div>","null","fixation","html-keyboard-response","510","1669144","0.0-6.0-0.72","2943335","co38689","norming","","","","","","",""
"null","../img/tt/055tt.jpg","null","mooney1","image-keyboard-response","511","1672159","0.0-6.0-1.72","2943335","co38689","norming","","","","","","",""
"4534.334999974817","","","post_mooney1_questions","survey-likert","512","1676698","0.0-6.0-2.72","2943335","co38689","norming","","","{""curiosity"":2,""confidence"":2}","[0,1]","../img/tt/055tt.jpg","",""
"3614.200000069104","","","recognition","survey-text","513","1680318","0.0-6.0-3.72","2943335","co38689","norming","","","{""guess"":""trommel""}","","../img/tt/055tt.jpg","",""
"null","../img/gs/055gs.jpg","null","reveal","image-keyboard-response","514","1682335","0.0-6.0-4.72","2943335","co38689","norming","","","","","","",""
"null","../img/tt/055tt.jpg","null","mooney2","image-keyboard-response","515","1684338","0.0-6.0-5.72","2943335","co38689","norming","","","","","","",""
"2239.6949999965727","","","post_reveal_questions","survey-likert","516","1686581","0.0-6.0-6.72","2943335","co38689","norming","","","{""aha"":3}","[0]","../img/tt/055tt.jpg","",""
"null","<div style=""font-size:60px;""> </div>","null","fixation","html-keyboard-response","517","1686785","0.0-6.0-0.73","2943335","co38689","norming","","","","","","",""
"null","../img/tt/1251tt.jpg","null","mooney1","image-keyboard-response","518","1689794","0.0-6.0-1.73","2943335","co38689","norming","","","","","","",""
"4341.31500008516","","","post_mooney1_questions","survey-likert","519","1694140","0.0-6.0-2.73","2943335","co38689","norming","","","{""curiosity"":1,""confidence"":5}","[0,1]","../img/tt/1251tt.jpg","",""
"2489.8050000192598","","","recognition","survey-text","520","1696637","0.0-6.0-3.73","2943335","co38689","norming","","","{""guess"":""beer""}","","../img/tt/1251tt.jpg","",""
"null","../img/gs/1251gs.jpg","null","reveal","image-keyboard-response","521","1698645","0.0-6.0-4.73","2943335","co38689","norming","","","","","","",""
"null","../img/tt/1251tt.jpg","null","mooney2","image-keyboard-response","522","1700653","0.0-6.0-5.73","2943335","co38689","norming","","","","","","",""
"2083.3000000566244","","","post_reveal_questions","survey-likert","523","1702739","0.0-6.0-6.73","2943335","co38689","norming","","","{""aha"":0}","[0]","../img/tt/1251tt.jpg","",""
"null","<div style=""font-size:60px;""> </div>","null","fixation","html-keyboard-response","524","1702949","0.0-6.0-0.74","2943335","co38689","norming","","","","","","",""
"null","../img/tt/1241tt.jpg","null","mooney1","image-keyboard-response","525","1705957","0.0-6.0-1.74","2943335","co38689","norming","","","","","","",""
"8060.429999954067","","","post_mooney1_questions","survey-likert","526","1714022","0.0-6.0-2.74","2943335","co38689","norming","","","{""curiosity"":4,""confidence"":4}","[0,1]","../img/tt/1241tt.jpg","",""
"3949.3100000545382","","","recognition","survey-text","527","1717977","0.0-6.0-3.74","2943335","co38689","norming","","","{""guess"":""varken""}","","../img/tt/1241tt.jpg","",""
"null","../img/gs/1241gs.jpg","null","reveal","image-keyboard-response","528","1719992","0.0-6.0-4.74","2943335","co38689","norming","","","","","","",""
"null","../img/tt/1241tt.jpg","null","mooney2","image-keyboard-response","529","1722015","0.0-6.0-5.74","2943335","co38689","norming","","","","","","",""
"3871.6599999461323","","","post_reveal_questions","survey-likert","530","1725890","0.0-6.0-6.74","2943335","co38689","norming","","","{""aha"":5}","[0]","../img/tt/1241tt.jpg","",""
"null","<div style=""font-size:60px;""> </div>","null","fixation","html-keyboard-response","531","1726100","0.0-6.0-0.75","2943335","co38689","norming","","","","","","",""
"null","../img/tt/1046tt.jpg","null","mooney1","image-keyboard-response","532","1729107","0.0-6.0-1.75","2943335","co38689","norming","","","","","","",""
"8900.424999999814","","","post_mooney1_questions","survey-likert","533","1738011","0.0-6.0-2.75","2943335","co38689","norming","","","{""curiosity"":1,""confidence"":0}","[0,1]","../img/tt/1046tt.jpg","",""
"1165.3999999398366","","","recognition","survey-text","534","1739184","0.0-6.0-3.75","2943335","co38689","norming","","","{""guess"":""""}","","../img/tt/1046tt.jpg","",""
"null","../img/gs/1046gs.jpg","null","reveal","image-keyboard-response","535","1741196","0.0-6.0-4.75","2943335","co38689","norming","","","","","","",""
"null","../img/tt/1046tt.jpg","null","mooney2","image-keyboard-response","536","1743201","0.0-6.0-5.75","2943335","co38689","norming","","","","","","",""
"1959.0799999423325","","","post_reveal_questions","survey-likert","537","1745164","0.0-6.0-6.75","2943335","co38689","norming","","","{""aha"":5}","[0]","../img/tt/1046tt.jpg","",""
"null","<div style=""font-size:60px;""> </div>","null","fixation","html-keyboard-response","538","1745371","0.0-6.0-0.76","2943335","co38689","norming","","","","","","",""
"null","../img/tt/279tt.jpg","null","mooney1","image-keyboard-response","539","1748385","0.0-6.0-1.76","2943335","co38689","norming","","","","","","",""
"7013.210000004619","","","post_mooney1_questions","survey-likert","540","1755403","0.0-6.0-2.76","2943335","co38689","norming","","","{""curiosity"":3,""confidence"":4}","[0,1]","../img/tt/279tt.jpg","",""
"2754.799999995157","","","recognition","survey-text","541","1758164","0.0-6.0-3.76","2943335","co38689","norming","","","{""guess"":""koala""}","","../img/tt/279tt.jpg","",""
"null","../img/gs/279gs.jpg","null","reveal","image-keyboard-response","542","1760168","0.0-6.0-4.76","2943335","co38689","norming","","","","","","",""
"null","../img/tt/279tt.jpg","null","mooney2","image-keyboard-response","543","1762180","0.0-6.0-5.76","2943335","co38689","norming","","","","","","",""
"2616.2500000791624","","","post_reveal_questions","survey-likert","544","1764800","0.0-6.0-6.76","2943335","co38689","norming","","","{""aha"":1}","[0]","../img/tt/279tt.jpg","",""
"null","<div style=""font-size:60px;""> </div>","null","fixation","html-keyboard-response","545","1765021","0.0-6.0-0.77","2943335","co38689","norming","","","","","","",""
"null","../img/tt/1154tt.jpg","null","mooney1","image-keyboard-response","546","1768027","0.0-6.0-1.77","2943335","co38689","norming","","","","","","",""
"5986.544999992475","","","post_mooney1_questions","survey-likert","547","1774018","0.0-6.0-2.77","2943335","co38689","norming","","","{""curiosity"":3,""confidence"":2}","[0,1]","../img/tt/1154tt.jpg","",""
"2584.000000031665","","","recognition","survey-text","548","1776608","0.0-6.0-3.77","2943335","co38689","norming","","","{""guess"":""kayak""}","","../img/tt/1154tt.jpg","",""
"null","../img/gs/1154gs.jpg","null","reveal","image-keyboard-response","549","1778619","0.0-6.0-4.77","2943335","co38689","norming","","","","","","",""
"null","../img/tt/1154tt.jpg","null","mooney2","image-keyboard-response","550","1780627","0.0-6.0-5.77","2943335","co38689","norming","","","","","","",""
"2908.0700000049546","","","post_reveal_questions","survey-likert","551","1783538","0.0-6.0-6.77","2943335","co38689","norming","","","{""aha"":0}","[0]","../img/tt/1154tt.jpg","",""
