"rt","stimulus","key_press","test_part","trial_type","trial_index","time_elapsed","internal_node_id","totalTime","subject","experiment_name","button_pressed","success","responses","question_order","currentStim","old","correct"
"3528.1399999948917","Welcome to the experiment. This is an online experiment so please don't close the tab/window until we say goodbye.  Press any key to begin.","32","instructions","html-keyboard-response","0","3553","0.0-0.0","2960045","co38167","norming","","","","","","",""
"5740.109999998822","<div style='word-wrap: break-word; width: 900px'><h3>Please consider this information carefully before deciding whether to participate in this research</h3><ul style='text-align: left; font-size: .8em;'><li><b>Purpose of the research</b>: To examine how people process images.</li><li><b>What you will do in this research</b>:  Stimuli (images) will be presented on the computer and you will be asked different questions about them.</li><li><b>Time required</b>: Participation will take between 45 and 60 minutes to complete.</li><li><b>Risks</b>:  There are no anticipated risks associated with participating in this study. The effects of participating should be comparable to those you would experience from viewing a computer monitor for 30 minutes and using a mouse or keyboard.</li><li><b>Benefits</b>:  This study provides no benefits to you individually except for the credit. The study provides important information about the nature of perception and learning.</li><li><b>Confidentiality</b>:  Your participation in this study will remain confidential. No personally identifiable information will be associated with your data. Your de-identified data may be shared with other researchers and used in future projects.</li><li><b>Participation and withdrawal</b>:  Your participation in this study is completely voluntary and you may refuse to participate or you may choose to withdraw at any time without penalty.</li><li><b>How to contact the researchers</b>: If you have questions or concerns about your participation or payment, or want to request a summary of research findings, please contact Sander Van de Cruys (KU Leuven), at sander.vandecruys@kuleuven.be.</li></ul><p>The nature and purpose of this research have been sufficiently explained and I agree to participate in this study.  I understand that I am free to withdraw at any time without incurring any penalty.</p><p>Please consent by clicking the button below to continue. Otherwise, please exit the study at this time.</p></div>","","instructions","html-button-response","1","9295","0.0-1.0","2960045","co38167","norming","0","","","","","",""
"","","","instructions","fullscreen","2","15992","0.0-2.0","2960045","co38167","norming","","true","","","","",""
"60859.28999999305","","","sona","survey-html-form","3","76858","0.0-3.0","2960045","co38167","norming","","","[{""name"":""sonaid"",""value"":""38167""},{""name"":""debrief"",""value"":""yes""},{""name"":""datajoin"",""value"":""yes""}]","","","",""
"21732.0550000004","<div style='word-wrap: break-word; width: 900px'><h3>Instructions</h3><p>This experiment will have 3 parts. In the first part you will see a series of distorted images like the one below on the left. As you can see in the righthand image, the distorted images are derived from actual photographs. In what follows, you will <strong>briefly</strong> be presented with <strong>only</strong> the distorted image.</p> <div style='float: left; margin-right: 20px;'><img src='../img/018tt.jpg' height='250' width='250'></img></div><div style='float: right; margin-left: 20px;'><img src='../img/018gs.jpg' height='250' width='250'></img></div><p>Subsequently you will be asked a few questions about the image: One question on how <strong>curious</strong> you are about the solution and one on how <strong>confident</strong> you are that you know the solution.</p>Next, we ask you to make a guess on what is in the image. Note that it is OK to name just the <strong>basic level category</strong>. For example when you see a parrot in the image, 'parrot' will obviously be a correct answer but also correct is 'bird'. However, 'animal' will <strong>not</strong> be counted as a correct response. For the example above, 'rose' would be correct or 'flower', but not 'plant'. When soccer players are depicted, 'soccer', 'football', 'soccer players' will be correct, but not 'humans', 'outdoors', or 'sports'. You do not need to describe the image in full, just name the main object in it <strong>in one or two words</strong>. All images depict objects from one of the following broad level categories: animals, inanimate objects, plants, sports, vehicles, and food. Recognizing means knowing <strong>more</strong> than these broad labels for a given image. But we always encourage you to <strong>make a guess</strong> if you can. Note that you are allowed to use <strong>Dutch and English</strong> in your answers, whatever comes easiest for you.</p><p>Press any key to continue.</p></div>","32","instructions","html-keyboard-response","4","98593","0.0-4.0","2960045","co38167","norming","","","","","","",""
"15647.379999994882","<div style='word-wrap: break-word; width: 900px'><h3>Instructions</h3> <p>Next, the solution image will be revealed to you and you'll be asked to indicate how strong your <strong>aha-experience</strong> was after seeing the solution. This describes the positive feeling of the 'click' you sometimes experience, when the pieces of the 'puzzle' fall together and you suddenly have 'insight' in the image.</p><img src='aha.jpg' height='188' width='250'></img><p>Note that there are no right or wrong answers. We are interested in what <strong>you</strong> see in the image and how <strong>you</strong> feel about it.</p><p>Press any key to start the experiment.</p></div>","32","instructions","html-keyboard-response","5","114242","0.0-5.0","2960045","co38167","norming","","","","","","",""
"null","<div style=""font-size:60px;""> </div>","null","fixation","html-keyboard-response","6","114450","0.0-6.0-0.0","2960045","co38167","norming","","","","","","",""
"null","../img/tt/1048tt.jpg","null","mooney1","image-keyboard-response","7","117463","0.0-6.0-1.0","2960045","co38167","norming","","","","","","",""
"13491.80499999784","","","post_mooney1_questions","survey-likert","8","130960","0.0-6.0-2.0","2960045","co38167","norming","","","{""curiosity"":5,""confidence"":4}","[0,1]","../img/tt/1048tt.jpg","",""
"7119.915000002948","","","recognition","survey-text","9","138084","0.0-6.0-3.0","2960045","co38167","norming","","","{""guess"":""Horse""}","","../img/tt/1048tt.jpg","",""
"null","../img/gs/1048gs.jpg","null","reveal","image-keyboard-response","10","140097","0.0-6.0-4.0","2960045","co38167","norming","","","","","","",""
"null","../img/tt/1048tt.jpg","null","mooney2","image-keyboard-response","11","142101","0.0-6.0-5.0","2960045","co38167","norming","","","","","","",""
"9075.119999994058","","","post_reveal_questions","survey-likert","12","151179","0.0-6.0-6.0","2960045","co38167","norming","","","{""aha"":6}","[0]","../img/tt/1048tt.jpg","",""
"null","<div style=""font-size:60px;""> </div>","null","fixation","html-keyboard-response","13","151387","0.0-6.0-0.1","2960045","co38167","norming","","","","","","",""
"null","../img/tt/1043tt.jpg","null","mooney1","image-keyboard-response","14","154390","0.0-6.0-1.1","2960045","co38167","norming","","","","","","",""
"6519.044999993639","","","post_mooney1_questions","survey-likert","15","160913","0.0-6.0-2.1","2960045","co38167","norming","","","{""curiosity"":5,""confidence"":0}","[0,1]","../img/tt/1043tt.jpg","",""
"2730.859999996028","","","recognition","survey-text","16","163653","0.0-6.0-3.1","2960045","co38167","norming","","","{""guess"":""""}","","../img/tt/1043tt.jpg","",""
"null","../img/gs/1043gs.jpg","null","reveal","image-keyboard-response","17","165666","0.0-6.0-4.1","2960045","co38167","norming","","","","","","",""
"null","../img/tt/1043tt.jpg","null","mooney2","image-keyboard-response","18","167669","0.0-6.0-5.1","2960045","co38167","norming","","","","","","",""
"3850.239999999758","","","post_reveal_questions","survey-likert","19","171523","0.0-6.0-6.1","2960045","co38167","norming","","","{""aha"":6}","[0]","../img/tt/1043tt.jpg","",""
"null","<div style=""font-size:60px;""> </div>","null","fixation","html-keyboard-response","20","171739","0.0-6.0-0.2","2960045","co38167","norming","","","","","","",""
"null","../img/tt/1070tt.jpg","null","mooney1","image-keyboard-response","21","174748","0.0-6.0-1.2","2960045","co38167","norming","","","","","","",""
"5996.994999994058","","","post_mooney1_questions","survey-likert","22","180750","0.0-6.0-2.2","2960045","co38167","norming","","","{""curiosity"":5,""confidence"":3}","[0,1]","../img/tt/1070tt.jpg","",""
"6426.480000009178","","","recognition","survey-text","23","187187","0.0-6.0-3.2","2960045","co38167","norming","","","{""guess"":""hamburger""}","","../img/tt/1070tt.jpg","",""
"null","../img/gs/1070gs.jpg","null","reveal","image-keyboard-response","24","189198","0.0-6.0-4.2","2960045","co38167","norming","","","","","","",""
"null","../img/tt/1070tt.jpg","null","mooney2","image-keyboard-response","25","191202","0.0-6.0-5.2","2960045","co38167","norming","","","","","","",""
"2973.474999991595","","","post_reveal_questions","survey-likert","26","194180","0.0-6.0-6.2","2960045","co38167","norming","","","{""aha"":6}","[0]","../img/tt/1070tt.jpg","",""
"null","<div style=""font-size:60px;""> </div>","null","fixation","html-keyboard-response","27","194393","0.0-6.0-0.3","2960045","co38167","norming","","","","","","",""
"null","../img/tt/094tt.jpg","null","mooney1","image-keyboard-response","28","197412","0.0-6.0-1.3","2960045","co38167","norming","","","","","","",""
"4412.149999989197","","","post_mooney1_questions","survey-likert","29","201828","0.0-6.0-2.3","2960045","co38167","norming","","","{""curiosity"":5,""confidence"":5}","[0,1]","../img/tt/094tt.jpg","",""
"4401.270000002114","","","recognition","survey-text","30","206239","0.0-6.0-3.3","2960045","co38167","norming","","","{""guess"":""Cow""}","","../img/tt/094tt.jpg","",""
"null","../img/gs/094gs.jpg","null","reveal","image-keyboard-response","31","208259","0.0-6.0-4.3","2960045","co38167","norming","","","","","","",""
"null","../img/tt/094tt.jpg","null","mooney2","image-keyboard-response","32","210270","0.0-6.0-5.3","2960045","co38167","norming","","","","","","",""
"3570.114999994985","","","post_reveal_questions","survey-likert","33","213844","0.0-6.0-6.3","2960045","co38167","norming","","","{""aha"":6}","[0]","../img/tt/094tt.jpg","",""
"null","<div style=""font-size:60px;""> </div>","null","fixation","html-keyboard-response","34","214051","0.0-6.0-0.4","2960045","co38167","norming","","","","","","",""
"null","../img/tt/1189tt.jpg","null","mooney1","image-keyboard-response","35","217059","0.0-6.0-1.4","2960045","co38167","norming","","","","","","",""
"3400.085000001127","","","post_mooney1_questions","survey-likert","36","220463","0.0-6.0-2.4","2960045","co38167","norming","","","{""curiosity"":6,""confidence"":0}","[0,1]","../img/tt/1189tt.jpg","",""
"2825.3249999979744","","","recognition","survey-text","37","223296","0.0-6.0-3.4","2960045","co38167","norming","","","{""guess"":""""}","","../img/tt/1189tt.jpg","",""
"null","../img/gs/1189gs.jpg","null","reveal","image-keyboard-response","38","225312","0.0-6.0-4.4","2960045","co38167","norming","","","","","","",""
"null","../img/tt/1189tt.jpg","null","mooney2","image-keyboard-response","39","227329","0.0-6.0-5.4","2960045","co38167","norming","","","","","","",""
"2655.350000000908","","","post_reveal_questions","survey-likert","40","229989","0.0-6.0-6.4","2960045","co38167","norming","","","{""aha"":6}","[0]","../img/tt/1189tt.jpg","",""
"null","<div style=""font-size:60px;""> </div>","null","fixation","html-keyboard-response","41","230209","0.0-6.0-0.5","2960045","co38167","norming","","","","","","",""
"null","../img/tt/1097tt.jpg","null","mooney1","image-keyboard-response","42","233224","0.0-6.0-1.5","2960045","co38167","norming","","","","","","",""
"5135.385000001406","","","post_mooney1_questions","survey-likert","43","238364","0.0-6.0-2.5","2960045","co38167","norming","","","{""curiosity"":6,""confidence"":3}","[0,1]","../img/tt/1097tt.jpg","",""
"22411.485000004177","","","recognition","survey-text","44","260784","0.0-6.0-3.5","2960045","co38167","norming","","","{""guess"":""scarecrow""}","","../img/tt/1097tt.jpg","",""
"null","../img/gs/1097gs.jpg","null","reveal","image-keyboard-response","45","262790","0.0-6.0-4.5","2960045","co38167","norming","","","","","","",""
"null","../img/tt/1097tt.jpg","null","mooney2","image-keyboard-response","46","264793","0.0-6.0-5.5","2960045","co38167","norming","","","","","","",""
"37281.07000001182","","","post_reveal_questions","survey-likert","47","302078","0.0-6.0-6.5","2960045","co38167","norming","","","{""aha"":6}","[0]","../img/tt/1097tt.jpg","",""
"null","<div style=""font-size:60px;""> </div>","null","fixation","html-keyboard-response","48","302295","0.0-6.0-0.6","2960045","co38167","norming","","","","","","",""
"null","../img/tt/1236tt.jpg","null","mooney1","image-keyboard-response","49","305305","0.0-6.0-1.6","2960045","co38167","norming","","","","","","",""
"3946.3050000049407","","","post_mooney1_questions","survey-likert","50","309256","0.0-6.0-2.6","2960045","co38167","norming","","","{""curiosity"":6,""confidence"":0}","[0,1]","../img/tt/1236tt.jpg","",""
"1128.7200000078883","","","recognition","survey-text","51","310396","0.0-6.0-3.6","2960045","co38167","norming","","","{""guess"":""""}","","../img/tt/1236tt.jpg","",""
"null","../img/gs/1236gs.jpg","null","reveal","image-keyboard-response","52","312406","0.0-6.0-4.6","2960045","co38167","norming","","","","","","",""
"null","../img/tt/1236tt.jpg","null","mooney2","image-keyboard-response","53","314416","0.0-6.0-5.6","2960045","co38167","norming","","","","","","",""
"4207.439999998314","","","post_reveal_questions","survey-likert","54","318627","0.0-6.0-6.6","2960045","co38167","norming","","","{""aha"":4}","[0]","../img/tt/1236tt.jpg","",""
"null","<div style=""font-size:60px;""> </div>","null","fixation","html-keyboard-response","55","318841","0.0-6.0-0.7","2960045","co38167","norming","","","","","","",""
"null","../img/tt/1190tt.jpg","null","mooney1","image-keyboard-response","56","321848","0.0-6.0-1.7","2960045","co38167","norming","","","","","","",""
"5861.9849999959115","","","post_mooney1_questions","survey-likert","57","327716","0.0-6.0-2.7","2960045","co38167","norming","","","{""curiosity"":6,""confidence"":0}","[0,1]","../img/tt/1190tt.jpg","",""
"928.4899999911431","","","recognition","survey-text","58","328655","0.0-6.0-3.7","2960045","co38167","norming","","","{""guess"":""""}","","../img/tt/1190tt.jpg","",""
"null","../img/gs/1190gs.jpg","null","reveal","image-keyboard-response","59","330663","0.0-6.0-4.7","2960045","co38167","norming","","","","","","",""
"null","../img/tt/1190tt.jpg","null","mooney2","image-keyboard-response","60","332671","0.0-6.0-5.7","2960045","co38167","norming","","","","","","",""
"2478.6299999977928","","","post_reveal_questions","survey-likert","61","335153","0.0-6.0-6.7","2960045","co38167","norming","","","{""aha"":6}","[0]","../img/tt/1190tt.jpg","",""
"null","<div style=""font-size:60px;""> </div>","null","fixation","html-keyboard-response","62","335359","0.0-6.0-0.8","2960045","co38167","norming","","","","","","",""
"null","../img/tt/580tt.jpg","null","mooney1","image-keyboard-response","63","338373","0.0-6.0-1.8","2960045","co38167","norming","","","","","","",""
"5203.955000004498","","","post_mooney1_questions","survey-likert","64","343582","0.0-6.0-2.8","2960045","co38167","norming","","","{""curiosity"":6,""confidence"":3}","[0,1]","../img/tt/580tt.jpg","",""
"2390.0399999984074","","","recognition","survey-text","65","345982","0.0-6.0-3.8","2960045","co38167","norming","","","{""guess"":""a man""}","","../img/tt/580tt.jpg","",""
"null","../img/gs/580gs.jpg","null","reveal","image-keyboard-response","66","347999","0.0-6.0-4.8","2960045","co38167","norming","","","","","","",""
"null","../img/tt/580tt.jpg","null","mooney2","image-keyboard-response","67","350015","0.0-6.0-5.8","2960045","co38167","norming","","","","","","",""
"4281.415000004927","","","post_reveal_questions","survey-likert","68","354300","0.0-6.0-6.8","2960045","co38167","norming","","","{""aha"":6}","[0]","../img/tt/580tt.jpg","",""
"null","<div style=""font-size:60px;""> </div>","null","fixation","html-keyboard-response","69","354504","0.0-6.0-0.9","2960045","co38167","norming","","","","","","",""
"null","../img/tt/1239tt.jpg","null","mooney1","image-keyboard-response","70","357510","0.0-6.0-1.9","2960045","co38167","norming","","","","","","",""
"4747.95499999891","","","post_mooney1_questions","survey-likert","71","362263","0.0-6.0-2.9","2960045","co38167","norming","","","{""curiosity"":6,""confidence"":3}","[0,1]","../img/tt/1239tt.jpg","",""
"2710.0849999987986","","","recognition","survey-text","72","364983","0.0-6.0-3.9","2960045","co38167","norming","","","{""guess"":""a dog""}","","../img/tt/1239tt.jpg","",""
"null","../img/gs/1239gs.jpg","null","reveal","image-keyboard-response","73","367000","0.0-6.0-4.9","2960045","co38167","norming","","","","","","",""
"null","../img/tt/1239tt.jpg","null","mooney2","image-keyboard-response","74","369009","0.0-6.0-5.9","2960045","co38167","norming","","","","","","",""
"5615.965000004508","","","post_reveal_questions","survey-likert","75","374629","0.0-6.0-6.9","2960045","co38167","norming","","","{""aha"":2}","[0]","../img/tt/1239tt.jpg","",""
"null","<div style=""font-size:60px;""> </div>","null","fixation","html-keyboard-response","76","374840","0.0-6.0-0.10","2960045","co38167","norming","","","","","","",""
"null","../img/tt/1228tt.jpg","null","mooney1","image-keyboard-response","77","377844","0.0-6.0-1.10","2960045","co38167","norming","","","","","","",""
"6666.284999999334","","","post_mooney1_questions","survey-likert","78","384514","0.0-6.0-2.10","2960045","co38167","norming","","","{""curiosity"":5,""confidence"":3}","[0,1]","../img/tt/1228tt.jpg","",""
"2646.085000000312","","","recognition","survey-text","79","387178","0.0-6.0-3.10","2960045","co38167","norming","","","{""guess"":""bird""}","","../img/tt/1228tt.jpg","",""
"null","../img/gs/1228gs.jpg","null","reveal","image-keyboard-response","80","389182","0.0-6.0-4.10","2960045","co38167","norming","","","","","","",""
"null","../img/tt/1228tt.jpg","null","mooney2","image-keyboard-response","81","391185","0.0-6.0-5.10","2960045","co38167","norming","","","","","","",""
"3907.0100000099046","","","post_reveal_questions","survey-likert","82","395096","0.0-6.0-6.10","2960045","co38167","norming","","","{""aha"":6}","[0]","../img/tt/1228tt.jpg","",""
"null","<div style=""font-size:60px;""> </div>","null","fixation","html-keyboard-response","83","395308","0.0-6.0-0.11","2960045","co38167","norming","","","","","","",""
"null","../img/tt/315tt.jpg","null","mooney1","image-keyboard-response","84","398312","0.0-6.0-1.11","2960045","co38167","norming","","","","","","",""
"3576.999999990221","","","post_mooney1_questions","survey-likert","85","401893","0.0-6.0-2.11","2960045","co38167","norming","","","{""curiosity"":6,""confidence"":3}","[0,1]","../img/tt/315tt.jpg","",""
"2783.100000000559","","","recognition","survey-text","86","404685","0.0-6.0-3.11","2960045","co38167","norming","","","{""guess"":""cat""}","","../img/tt/315tt.jpg","",""
"null","../img/gs/315gs.jpg","null","reveal","image-keyboard-response","87","406694","0.0-6.0-4.11","2960045","co38167","norming","","","","","","",""
"null","../img/tt/315tt.jpg","null","mooney2","image-keyboard-response","88","408709","0.0-6.0-5.11","2960045","co38167","norming","","","","","","",""
"3453.699999998207","","","post_reveal_questions","survey-likert","89","412166","0.0-6.0-6.11","2960045","co38167","norming","","","{""aha"":3}","[0]","../img/tt/315tt.jpg","",""
"null","<div style=""font-size:60px;""> </div>","null","fixation","html-keyboard-response","90","412381","0.0-6.0-0.12","2960045","co38167","norming","","","","","","",""
"null","../img/tt/184tt.jpg","null","mooney1","image-keyboard-response","91","415400","0.0-6.0-1.12","2960045","co38167","norming","","","","","","",""
"36887.73499999661","","","post_mooney1_questions","survey-likert","92","452291","0.0-6.0-2.12","2960045","co38167","norming","","","{""curiosity"":5,""confidence"":0}","[0,1]","../img/tt/184tt.jpg","",""
"1252.2999999928288","","","recognition","survey-text","93","453552","0.0-6.0-3.12","2960045","co38167","norming","","","{""guess"":""""}","","../img/tt/184tt.jpg","",""
"null","../img/gs/184gs.jpg","null","reveal","image-keyboard-response","94","455566","0.0-6.0-4.12","2960045","co38167","norming","","","","","","",""
"null","../img/tt/184tt.jpg","null","mooney2","image-keyboard-response","95","457576","0.0-6.0-5.12","2960045","co38167","norming","","","","","","",""
"5327.6999999943655","","","post_reveal_questions","survey-likert","96","462908","0.0-6.0-6.12","2960045","co38167","norming","","","{""aha"":3}","[0]","../img/tt/184tt.jpg","",""
"null","<div style=""font-size:60px;""> </div>","null","fixation","html-keyboard-response","97","463119","0.0-6.0-0.13","2960045","co38167","norming","","","","","","",""
"null","../img/tt/1046tt.jpg","null","mooney1","image-keyboard-response","98","466129","0.0-6.0-1.13","2960045","co38167","norming","","","","","","",""
"16589.03499999724","","","post_mooney1_questions","survey-likert","99","482722","0.0-6.0-2.13","2960045","co38167","norming","","","{""curiosity"":5,""confidence"":0}","[0,1]","../img/tt/1046tt.jpg","",""
"2030.5499999958556","","","recognition","survey-text","100","484759","0.0-6.0-3.13","2960045","co38167","norming","","","{""guess"":""""}","","../img/tt/1046tt.jpg","",""
"null","../img/gs/1046gs.jpg","null","reveal","image-keyboard-response","101","486773","0.0-6.0-4.13","2960045","co38167","norming","","","","","","",""
"null","../img/tt/1046tt.jpg","null","mooney2","image-keyboard-response","102","488801","0.0-6.0-5.13","2960045","co38167","norming","","","","","","",""
"2780.5399999924703","","","post_reveal_questions","survey-likert","103","491586","0.0-6.0-6.13","2960045","co38167","norming","","","{""aha"":5}","[0]","../img/tt/1046tt.jpg","",""
"null","<div style=""font-size:60px;""> </div>","null","fixation","html-keyboard-response","104","491798","0.0-6.0-0.14","2960045","co38167","norming","","","","","","",""
"null","../img/tt/279tt.jpg","null","mooney1","image-keyboard-response","105","494809","0.0-6.0-1.14","2960045","co38167","norming","","","","","","",""
"4423.564999990049","","","post_mooney1_questions","survey-likert","106","499236","0.0-6.0-2.14","2960045","co38167","norming","","","{""curiosity"":4,""confidence"":1}","[0,1]","../img/tt/279tt.jpg","",""
"8040.800000002491","","","recognition","survey-text","107","507285","0.0-6.0-3.14","2960045","co38167","norming","","","{""guess"":""koala""}","","../img/tt/279tt.jpg","",""
"null","../img/gs/279gs.jpg","null","reveal","image-keyboard-response","108","509303","0.0-6.0-4.14","2960045","co38167","norming","","","","","","",""
"null","../img/tt/279tt.jpg","null","mooney2","image-keyboard-response","109","511306","0.0-6.0-5.14","2960045","co38167","norming","","","","","","",""
"3908.559999996214","","","post_reveal_questions","survey-likert","110","515220","0.0-6.0-6.14","2960045","co38167","norming","","","{""aha"":4}","[0]","../img/tt/279tt.jpg","",""
"null","<div style=""font-size:60px;""> </div>","null","fixation","html-keyboard-response","111","515429","0.0-6.0-0.15","2960045","co38167","norming","","","","","","",""
"null","../img/tt/306tt.jpg","null","mooney1","image-keyboard-response","112","518438","0.0-6.0-1.15","2960045","co38167","norming","","","","","","",""
"6028.149999998277","","","post_mooney1_questions","survey-likert","113","524470","0.0-6.0-2.15","2960045","co38167","norming","","","{""curiosity"":6,""confidence"":0}","[0,1]","../img/tt/306tt.jpg","",""
"1171.9799999991665","","","recognition","survey-text","114","525652","0.0-6.0-3.15","2960045","co38167","norming","","","{""guess"":""""}","","../img/tt/306tt.jpg","",""
"null","../img/gs/306gs.jpg","null","reveal","image-keyboard-response","115","527656","0.0-6.0-4.15","2960045","co38167","norming","","","","","","",""
"null","../img/tt/306tt.jpg","null","mooney2","image-keyboard-response","116","529659","0.0-6.0-5.15","2960045","co38167","norming","","","","","","",""
"2824.045000001206","","","post_reveal_questions","survey-likert","117","532486","0.0-6.0-6.15","2960045","co38167","norming","","","{""aha"":4}","[0]","../img/tt/306tt.jpg","",""
"null","<div style=""font-size:60px;""> </div>","null","fixation","html-keyboard-response","118","532694","0.0-6.0-0.16","2960045","co38167","norming","","","","","","",""
"null","../img/tt/046tt.jpg","null","mooney1","image-keyboard-response","119","535704","0.0-6.0-1.16","2960045","co38167","norming","","","","","","",""
"9063.625000009779","","","post_mooney1_questions","survey-likert","120","544773","0.0-6.0-2.16","2960045","co38167","norming","","","{""curiosity"":5,""confidence"":0}","[0,1]","../img/tt/046tt.jpg","",""
"8309.070000002976","","","recognition","survey-text","121","553091","0.0-6.0-3.16","2960045","co38167","norming","","","{""guess"":""""}","","../img/tt/046tt.jpg","",""
"null","../img/gs/046gs.jpg","null","reveal","image-keyboard-response","122","555103","0.0-6.0-4.16","2960045","co38167","norming","","","","","","",""
"null","../img/tt/046tt.jpg","null","mooney2","image-keyboard-response","123","557119","0.0-6.0-5.16","2960045","co38167","norming","","","","","","",""
"10632.370000006631","","","post_reveal_questions","survey-likert","124","567755","0.0-6.0-6.16","2960045","co38167","norming","","","{""aha"":6}","[0]","../img/tt/046tt.jpg","",""
"null","<div style=""font-size:60px;""> </div>","null","fixation","html-keyboard-response","125","567974","0.0-6.0-0.17","2960045","co38167","norming","","","","","","",""
"null","../img/tt/435tt.jpg","null","mooney1","image-keyboard-response","126","570993","0.0-6.0-1.17","2960045","co38167","norming","","","","","","",""
"5578.555000000051","","","post_mooney1_questions","survey-likert","127","576577","0.0-6.0-2.17","2960045","co38167","norming","","","{""curiosity"":6,""confidence"":2}","[0,1]","../img/tt/435tt.jpg","",""
"1825.4299999971408","","","recognition","survey-text","128","578413","0.0-6.0-3.17","2960045","co38167","norming","","","{""guess"":""house ""}","","../img/tt/435tt.jpg","",""
"null","../img/gs/435gs.jpg","null","reveal","image-keyboard-response","129","580425","0.0-6.0-4.17","2960045","co38167","norming","","","","","","",""
"null","../img/tt/435tt.jpg","null","mooney2","image-keyboard-response","130","582428","0.0-6.0-5.17","2960045","co38167","norming","","","","","","",""
"4214.065000007395","","","post_reveal_questions","survey-likert","131","586645","0.0-6.0-6.17","2960045","co38167","norming","","","{""aha"":6}","[0]","../img/tt/435tt.jpg","",""
"null","<div style=""font-size:60px;""> </div>","null","fixation","html-keyboard-response","132","586851","0.0-6.0-0.18","2960045","co38167","norming","","","","","","",""
"null","../img/tt/105tt.jpg","null","mooney1","image-keyboard-response","133","589855","0.0-6.0-1.18","2960045","co38167","norming","","","","","","",""
"5749.479999998584","","","post_mooney1_questions","survey-likert","134","595609","0.0-6.0-2.18","2960045","co38167","norming","","","{""curiosity"":5,""confidence"":2}","[0,1]","../img/tt/105tt.jpg","",""
"3508.7150000035763","","","recognition","survey-text","135","599127","0.0-6.0-3.18","2960045","co38167","norming","","","{""guess"":""paperclips""}","","../img/tt/105tt.jpg","",""
"null","../img/gs/105gs.jpg","null","reveal","image-keyboard-response","136","601136","0.0-6.0-4.18","2960045","co38167","norming","","","","","","",""
"null","../img/tt/105tt.jpg","null","mooney2","image-keyboard-response","137","603153","0.0-6.0-5.18","2960045","co38167","norming","","","","","","",""
"5188.654999990831","","","post_reveal_questions","survey-likert","138","608345","0.0-6.0-6.18","2960045","co38167","norming","","","{""aha"":0}","[0]","../img/tt/105tt.jpg","",""
"null","<div style=""font-size:60px;""> </div>","null","fixation","html-keyboard-response","139","608554","0.0-6.0-0.19","2960045","co38167","norming","","","","","","",""
"null","../img/tt/1217tt.jpg","null","mooney1","image-keyboard-response","140","611563","0.0-6.0-1.19","2960045","co38167","norming","","","","","","",""
"7117.165000003297","","","post_mooney1_questions","survey-likert","141","618684","0.0-6.0-2.19","2960045","co38167","norming","","","{""curiosity"":6,""confidence"":0}","[0,1]","../img/tt/1217tt.jpg","",""
"2663.075000004028","","","recognition","survey-text","142","621357","0.0-6.0-3.19","2960045","co38167","norming","","","{""guess"":""""}","","../img/tt/1217tt.jpg","",""
"null","../img/gs/1217gs.jpg","null","reveal","image-keyboard-response","143","623371","0.0-6.0-4.19","2960045","co38167","norming","","","","","","",""
"null","../img/tt/1217tt.jpg","null","mooney2","image-keyboard-response","144","625388","0.0-6.0-5.19","2960045","co38167","norming","","","","","","",""
"3380.349999992177","","","post_reveal_questions","survey-likert","145","628772","0.0-6.0-6.19","2960045","co38167","norming","","","{""aha"":3}","[0]","../img/tt/1217tt.jpg","",""
"null","<div style=""font-size:60px;""> </div>","null","fixation","html-keyboard-response","146","628979","0.0-6.0-0.20","2960045","co38167","norming","","","","","","",""
"null","../img/tt/378tt.jpg","null","mooney1","image-keyboard-response","147","632000","0.0-6.0-1.20","2960045","co38167","norming","","","","","","",""
"4612.315000005765","","","post_mooney1_questions","survey-likert","148","636614","0.0-6.0-2.20","2960045","co38167","norming","","","{""curiosity"":6,""confidence"":0}","[0,1]","../img/tt/378tt.jpg","",""
"1469.649999999092","","","recognition","survey-text","149","638092","0.0-6.0-3.20","2960045","co38167","norming","","","{""guess"":"" ""}","","../img/tt/378tt.jpg","",""
"null","../img/gs/378gs.jpg","null","reveal","image-keyboard-response","150","640099","0.0-6.0-4.20","2960045","co38167","norming","","","","","","",""
"null","../img/tt/378tt.jpg","null","mooney2","image-keyboard-response","151","642116","0.0-6.0-5.20","2960045","co38167","norming","","","","","","",""
"2136.6949999937788","","","post_reveal_questions","survey-likert","152","644256","0.0-6.0-6.20","2960045","co38167","norming","","","{""aha"":6}","[0]","../img/tt/378tt.jpg","",""
"null","<div style=""font-size:60px;""> </div>","null","fixation","html-keyboard-response","153","644464","0.0-6.0-0.21","2960045","co38167","norming","","","","","","",""
"null","../img/tt/052tt.jpg","null","mooney1","image-keyboard-response","154","647468","0.0-6.0-1.21","2960045","co38167","norming","","","","","","",""
"4547.2049999953015","","","post_mooney1_questions","survey-likert","155","652019","0.0-6.0-2.21","2960045","co38167","norming","","","{""curiosity"":5,""confidence"":0}","[0,1]","../img/tt/052tt.jpg","",""
"1243.9950000116369","","","recognition","survey-text","156","653270","0.0-6.0-3.21","2960045","co38167","norming","","","{""guess"":""""}","","../img/tt/052tt.jpg","",""
"null","../img/gs/052gs.jpg","null","reveal","image-keyboard-response","157","655273","0.0-6.0-4.21","2960045","co38167","norming","","","","","","",""
"null","../img/tt/052tt.jpg","null","mooney2","image-keyboard-response","158","657276","0.0-6.0-5.21","2960045","co38167","norming","","","","","","",""
"2685.2599999983795","","","post_reveal_questions","survey-likert","159","659965","0.0-6.0-6.21","2960045","co38167","norming","","","{""aha"":6}","[0]","../img/tt/052tt.jpg","",""
"null","<div style=""font-size:60px;""> </div>","null","fixation","html-keyboard-response","160","660183","0.0-6.0-0.22","2960045","co38167","norming","","","","","","",""
"null","../img/tt/1262tt.jpg","null","mooney1","image-keyboard-response","161","663195","0.0-6.0-1.22","2960045","co38167","norming","","","","","","",""
"3562.4450000032084","","","post_mooney1_questions","survey-likert","162","666761","0.0-6.0-2.22","2960045","co38167","norming","","","{""curiosity"":6,""confidence"":1}","[0,1]","../img/tt/1262tt.jpg","",""
"1958.8550000044052","","","recognition","survey-text","163","668732","0.0-6.0-3.22","2960045","co38167","norming","","","{""guess"":"" bird""}","","../img/tt/1262tt.jpg","",""
"null","../img/gs/1262gs.jpg","null","reveal","image-keyboard-response","164","670743","0.0-6.0-4.22","2960045","co38167","norming","","","","","","",""
"null","../img/tt/1262tt.jpg","null","mooney2","image-keyboard-response","165","672761","0.0-6.0-5.22","2960045","co38167","norming","","","","","","",""
"3287.1199999935925","","","post_reveal_questions","survey-likert","166","676051","0.0-6.0-6.22","2960045","co38167","norming","","","{""aha"":5}","[0]","../img/tt/1262tt.jpg","",""
"null","<div style=""font-size:60px;""> </div>","null","fixation","html-keyboard-response","167","676269","0.0-6.0-0.23","2960045","co38167","norming","","","","","","",""
"null","../img/tt/1148tt.jpg","null","mooney1","image-keyboard-response","168","679281","0.0-6.0-1.23","2960045","co38167","norming","","","","","","",""
"4198.589999999967","","","post_mooney1_questions","survey-likert","169","683486","0.0-6.0-2.23","2960045","co38167","norming","","","{""curiosity"":6,""confidence"":0}","[0,1]","../img/tt/1148tt.jpg","",""
"1534.9400000122841","","","recognition","survey-text","170","685030","0.0-6.0-3.23","2960045","co38167","norming","","","{""guess"":""""}","","../img/tt/1148tt.jpg","",""
"null","../img/gs/1148gs.jpg","null","reveal","image-keyboard-response","171","687032","0.0-6.0-4.23","2960045","co38167","norming","","","","","","",""
"null","../img/tt/1148tt.jpg","null","mooney2","image-keyboard-response","172","689046","0.0-6.0-5.23","2960045","co38167","norming","","","","","","",""
"2598.2700000022305","","","post_reveal_questions","survey-likert","173","691648","0.0-6.0-6.23","2960045","co38167","norming","","","{""aha"":5}","[0]","../img/tt/1148tt.jpg","",""
"null","<div style=""font-size:60px;""> </div>","null","fixation","html-keyboard-response","174","691858","0.0-6.0-0.24","2960045","co38167","norming","","","","","","",""
"null","../img/tt/477tt.jpg","null","mooney1","image-keyboard-response","175","694871","0.0-6.0-1.24","2960045","co38167","norming","","","","","","",""
"7274.3049999990035","","","post_mooney1_questions","survey-likert","176","702150","0.0-6.0-2.24","2960045","co38167","norming","","","{""curiosity"":4,""confidence"":0}","[0,1]","../img/tt/477tt.jpg","",""
"1197.7000000042608","","","recognition","survey-text","177","703357","0.0-6.0-3.24","2960045","co38167","norming","","","{""guess"":""""}","","../img/tt/477tt.jpg","",""
"null","../img/gs/477gs.jpg","null","reveal","image-keyboard-response","178","705360","0.0-6.0-4.24","2960045","co38167","norming","","","","","","",""
"null","../img/tt/477tt.jpg","null","mooney2","image-keyboard-response","179","707377","0.0-6.0-5.24","2960045","co38167","norming","","","","","","",""
"2521.005000002333","","","post_reveal_questions","survey-likert","180","709901","0.0-6.0-6.24","2960045","co38167","norming","","","{""aha"":6}","[0]","../img/tt/477tt.jpg","",""
"null","<div style=""font-size:60px;""> </div>","null","fixation","html-keyboard-response","181","710108","0.0-6.0-0.25","2960045","co38167","norming","","","","","","",""
"null","../img/tt/307tt.jpg","null","mooney1","image-keyboard-response","182","713116","0.0-6.0-1.25","2960045","co38167","norming","","","","","","",""
"4859.695000006468","","","post_mooney1_questions","survey-likert","183","717979","0.0-6.0-2.25","2960045","co38167","norming","","","{""curiosity"":5,""confidence"":0}","[0,1]","../img/tt/307tt.jpg","",""
"3704.6549999940908","","","recognition","survey-text","184","721694","0.0-6.0-3.25","2960045","co38167","norming","","","{""guess"":""""}","","../img/tt/307tt.jpg","",""
"null","../img/gs/307gs.jpg","null","reveal","image-keyboard-response","185","723708","0.0-6.0-4.25","2960045","co38167","norming","","","","","","",""
"null","../img/tt/307tt.jpg","null","mooney2","image-keyboard-response","186","725724","0.0-6.0-5.25","2960045","co38167","norming","","","","","","",""
"2309.9899999942863","","","post_reveal_questions","survey-likert","187","728038","0.0-6.0-6.25","2960045","co38167","norming","","","{""aha"":6}","[0]","../img/tt/307tt.jpg","",""
"null","<div style=""font-size:60px;""> </div>","null","fixation","html-keyboard-response","188","728244","0.0-6.0-0.26","2960045","co38167","norming","","","","","","",""
"null","../img/tt/032tt.jpg","null","mooney1","image-keyboard-response","189","731253","0.0-6.0-1.26","2960045","co38167","norming","","","","","","",""
"5419.25999999512","","","post_mooney1_questions","survey-likert","190","736676","0.0-6.0-2.26","2960045","co38167","norming","","","{""curiosity"":5,""confidence"":2}","[0,1]","../img/tt/032tt.jpg","",""
"3018.899999995483","","","recognition","survey-text","191","739702","0.0-6.0-3.26","2960045","co38167","norming","","","{""guess"":""snake""}","","../img/tt/032tt.jpg","",""
"null","../img/gs/032gs.jpg","null","reveal","image-keyboard-response","192","741716","0.0-6.0-4.26","2960045","co38167","norming","","","","","","",""
"null","../img/tt/032tt.jpg","null","mooney2","image-keyboard-response","193","743720","0.0-6.0-5.26","2960045","co38167","norming","","","","","","",""
"2125.6149999971967","","","post_reveal_questions","survey-likert","194","745850","0.0-6.0-6.26","2960045","co38167","norming","","","{""aha"":6}","[0]","../img/tt/032tt.jpg","",""
"null","<div style=""font-size:60px;""> </div>","null","fixation","html-keyboard-response","195","746060","0.0-6.0-0.27","2960045","co38167","norming","","","","","","",""
"null","../img/tt/468tt.jpg","null","mooney1","image-keyboard-response","196","749080","0.0-6.0-1.27","2960045","co38167","norming","","","","","","",""
"3321.125000002212","","","post_mooney1_questions","survey-likert","197","752405","0.0-6.0-2.27","2960045","co38167","norming","","","{""curiosity"":5,""confidence"":2}","[0,1]","../img/tt/468tt.jpg","",""
"2429.5099999872036","","","recognition","survey-text","198","754843","0.0-6.0-3.27","2960045","co38167","norming","","","{""guess"":""knitting""}","","../img/tt/468tt.jpg","",""
"null","../img/gs/468gs.jpg","null","reveal","image-keyboard-response","199","756854","0.0-6.0-4.27","2960045","co38167","norming","","","","","","",""
"null","../img/tt/468tt.jpg","null","mooney2","image-keyboard-response","200","758864","0.0-6.0-5.27","2960045","co38167","norming","","","","","","",""
"7288.214999993215","","","post_reveal_questions","survey-likert","201","766155","0.0-6.0-6.27","2960045","co38167","norming","","","{""aha"":6}","[0]","../img/tt/468tt.jpg","",""
"null","<div style=""font-size:60px;""> </div>","null","fixation","html-keyboard-response","202","766370","0.0-6.0-0.28","2960045","co38167","norming","","","","","","",""
"null","../img/tt/096tt.jpg","null","mooney1","image-keyboard-response","203","769379","0.0-6.0-1.28","2960045","co38167","norming","","","","","","",""
"5027.529999992112","","","post_mooney1_questions","survey-likert","204","774412","0.0-6.0-2.28","2960045","co38167","norming","","","{""curiosity"":5,""confidence"":1}","[0,1]","../img/tt/096tt.jpg","",""
"617.3349999880884","","","recognition","survey-text","205","775038","0.0-6.0-3.28","2960045","co38167","norming","","","{""guess"":""""}","","../img/tt/096tt.jpg","",""
"null","../img/gs/096gs.jpg","null","reveal","image-keyboard-response","206","777048","0.0-6.0-4.28","2960045","co38167","norming","","","","","","",""
"null","../img/tt/096tt.jpg","null","mooney2","image-keyboard-response","207","779051","0.0-6.0-5.28","2960045","co38167","norming","","","","","","",""
"4145.994999998948","","","post_reveal_questions","survey-likert","208","783200","0.0-6.0-6.28","2960045","co38167","norming","","","{""aha"":4}","[0]","../img/tt/096tt.jpg","",""
"null","<div style=""font-size:60px;""> </div>","null","fixation","html-keyboard-response","209","783413","0.0-6.0-0.29","2960045","co38167","norming","","","","","","",""
"null","../img/tt/140tt.jpg","null","mooney1","image-keyboard-response","210","786420","0.0-6.0-1.29","2960045","co38167","norming","","","","","","",""
"5444.604999996955","","","post_mooney1_questions","survey-likert","211","791867","0.0-6.0-2.29","2960045","co38167","norming","","","{""curiosity"":1,""confidence"":6}","[0,1]","../img/tt/140tt.jpg","",""
"1235.1800000033109","","","recognition","survey-text","212","793113","0.0-6.0-3.29","2960045","co38167","norming","","","{""guess"":""forl""}","","../img/tt/140tt.jpg","",""
"null","../img/gs/140gs.jpg","null","reveal","image-keyboard-response","213","795129","0.0-6.0-4.29","2960045","co38167","norming","","","","","","",""
"null","../img/tt/140tt.jpg","null","mooney2","image-keyboard-response","214","797132","0.0-6.0-5.29","2960045","co38167","norming","","","","","","",""
"3065.6250000029104","","","post_reveal_questions","survey-likert","215","800201","0.0-6.0-6.29","2960045","co38167","norming","","","{""aha"":0}","[0]","../img/tt/140tt.jpg","",""
"null","<div style=""font-size:60px;""> </div>","null","fixation","html-keyboard-response","216","800409","0.0-6.0-0.30","2960045","co38167","norming","","","","","","",""
"null","../img/tt/584tt.jpg","null","mooney1","image-keyboard-response","217","803418","0.0-6.0-1.30","2960045","co38167","norming","","","","","","",""
"5108.170000006794","","","post_mooney1_questions","survey-likert","218","808530","0.0-6.0-2.30","2960045","co38167","norming","","","{""curiosity"":5,""confidence"":5}","[0,1]","../img/tt/584tt.jpg","",""
"1611.349999991944","","","recognition","survey-text","219","810150","0.0-6.0-3.30","2960045","co38167","norming","","","{""guess"":""tang""}","","../img/tt/584tt.jpg","",""
"null","../img/gs/584gs.jpg","null","reveal","image-keyboard-response","220","812154","0.0-6.0-4.30","2960045","co38167","norming","","","","","","",""
"null","../img/tt/584tt.jpg","null","mooney2","image-keyboard-response","221","814164","0.0-6.0-5.30","2960045","co38167","norming","","","","","","",""
"3377.359999998589","","","post_reveal_questions","survey-likert","222","817545","0.0-6.0-6.30","2960045","co38167","norming","","","{""aha"":2}","[0]","../img/tt/584tt.jpg","",""
"null","<div style=""font-size:60px;""> </div>","null","fixation","html-keyboard-response","223","817755","0.0-6.0-0.31","2960045","co38167","norming","","","","","","",""
"null","../img/tt/1283tt.jpg","null","mooney1","image-keyboard-response","224","820775","0.0-6.0-1.31","2960045","co38167","norming","","","","","","",""
"5947.280000007595","","","post_mooney1_questions","survey-likert","225","826727","0.0-6.0-2.31","2960045","co38167","norming","","","{""curiosity"":5,""confidence"":0}","[0,1]","../img/tt/1283tt.jpg","",""
"1586.9200000015553","","","recognition","survey-text","226","828322","0.0-6.0-3.31","2960045","co38167","norming","","","{""guess"":""""}","","../img/tt/1283tt.jpg","",""
"null","../img/gs/1283gs.jpg","null","reveal","image-keyboard-response","227","830338","0.0-6.0-4.31","2960045","co38167","norming","","","","","","",""
"null","../img/tt/1283tt.jpg","null","mooney2","image-keyboard-response","228","832352","0.0-6.0-5.31","2960045","co38167","norming","","","","","","",""
"4123.770000005607","","","post_reveal_questions","survey-likert","229","836479","0.0-6.0-6.31","2960045","co38167","norming","","","{""aha"":6}","[0]","../img/tt/1283tt.jpg","",""
"null","<div style=""font-size:60px;""> </div>","null","fixation","html-keyboard-response","230","836684","0.0-6.0-0.32","2960045","co38167","norming","","","","","","",""
"null","../img/tt/082tt.jpg","null","mooney1","image-keyboard-response","231","839692","0.0-6.0-1.32","2960045","co38167","norming","","","","","","",""
"4020.4700000031153","","","post_mooney1_questions","survey-likert","232","843717","0.0-6.0-2.32","2960045","co38167","norming","","","{""curiosity"":6,""confidence"":0}","[0,1]","../img/tt/082tt.jpg","",""
"961.2849999975879","","","recognition","survey-text","233","844686","0.0-6.0-3.32","2960045","co38167","norming","","","{""guess"":""""}","","../img/tt/082tt.jpg","",""
"null","../img/gs/082gs.jpg","null","reveal","image-keyboard-response","234","846701","0.0-6.0-4.32","2960045","co38167","norming","","","","","","",""
"null","../img/tt/082tt.jpg","null","mooney2","image-keyboard-response","235","848704","0.0-6.0-5.32","2960045","co38167","norming","","","","","","",""
"2009.1350000002421","","","post_reveal_questions","survey-likert","236","850716","0.0-6.0-6.32","2960045","co38167","norming","","","{""aha"":4}","[0]","../img/tt/082tt.jpg","",""
"null","<div style=""font-size:60px;""> </div>","null","fixation","html-keyboard-response","237","850932","0.0-6.0-0.33","2960045","co38167","norming","","","","","","",""
"null","../img/tt/329tt.jpg","null","mooney1","image-keyboard-response","238","853950","0.0-6.0-1.33","2960045","co38167","norming","","","","","","",""
"4515.755000000354","","","post_mooney1_questions","survey-likert","239","858469","0.0-6.0-2.33","2960045","co38167","norming","","","{""curiosity"":6,""confidence"":0}","[0,1]","../img/tt/329tt.jpg","",""
"989.1349999961676","","","recognition","survey-text","240","859466","0.0-6.0-3.33","2960045","co38167","norming","","","{""guess"":""""}","","../img/tt/329tt.jpg","",""
"null","../img/gs/329gs.jpg","null","reveal","image-keyboard-response","241","861478","0.0-6.0-4.33","2960045","co38167","norming","","","","","","",""
"null","../img/tt/329tt.jpg","null","mooney2","image-keyboard-response","242","863485","0.0-6.0-5.33","2960045","co38167","norming","","","","","","",""
"2237.3499999957858","","","post_reveal_questions","survey-likert","243","865727","0.0-6.0-6.33","2960045","co38167","norming","","","{""aha"":6}","[0]","../img/tt/329tt.jpg","",""
"null","<div style=""font-size:60px;""> </div>","null","fixation","html-keyboard-response","244","865937","0.0-6.0-0.34","2960045","co38167","norming","","","","","","",""
"null","../img/tt/076tt.jpg","null","mooney1","image-keyboard-response","245","868943","0.0-6.0-1.34","2960045","co38167","norming","","","","","","",""
"3516.125000009197","","","post_mooney1_questions","survey-likert","246","872464","0.0-6.0-2.34","2960045","co38167","norming","","","{""curiosity"":5,""confidence"":5}","[0,1]","../img/tt/076tt.jpg","",""
"2012.990000002901","","","recognition","survey-text","247","874486","0.0-6.0-3.34","2960045","co38167","norming","","","{""guess"":""skates""}","","../img/tt/076tt.jpg","",""
"null","../img/gs/076gs.jpg","null","reveal","image-keyboard-response","248","876499","0.0-6.0-4.34","2960045","co38167","norming","","","","","","",""
"null","../img/tt/076tt.jpg","null","mooney2","image-keyboard-response","249","878505","0.0-6.0-5.34","2960045","co38167","norming","","","","","","",""
"2682.824999996228","","","post_reveal_questions","survey-likert","250","881191","0.0-6.0-6.34","2960045","co38167","norming","","","{""aha"":3}","[0]","../img/tt/076tt.jpg","",""
"null","<div style=""font-size:60px;""> </div>","null","fixation","html-keyboard-response","251","881404","0.0-6.0-0.35","2960045","co38167","norming","","","","","","",""
"null","../img/tt/1366tt.jpg","null","mooney1","image-keyboard-response","252","884418","0.0-6.0-1.35","2960045","co38167","norming","","","","","","",""
"3411.375000010594","","","post_mooney1_questions","survey-likert","253","887833","0.0-6.0-2.35","2960045","co38167","norming","","","{""curiosity"":6,""confidence"":0}","[0,1]","../img/tt/1366tt.jpg","",""
"343.9350000116974","","","recognition","survey-text","254","888187","0.0-6.0-3.35","2960045","co38167","norming","","","{""guess"":""""}","","../img/tt/1366tt.jpg","",""
"null","../img/gs/1366gs.jpg","null","reveal","image-keyboard-response","255","890197","0.0-6.0-4.35","2960045","co38167","norming","","","","","","",""
"null","../img/tt/1366tt.jpg","null","mooney2","image-keyboard-response","256","892201","0.0-6.0-5.35","2960045","co38167","norming","","","","","","",""
"1874.985000002198","","","post_reveal_questions","survey-likert","257","894080","0.0-6.0-6.35","2960045","co38167","norming","","","{""aha"":6}","[0]","../img/tt/1366tt.jpg","",""
"null","<div style=""font-size:60px;""> </div>","null","fixation","html-keyboard-response","258","894294","0.0-6.0-0.36","2960045","co38167","norming","","","","","","",""
"null","../img/tt/438tt.jpg","null","mooney1","image-keyboard-response","259","897305","0.0-6.0-1.36","2960045","co38167","norming","","","","","","",""
"3801.149999999325","","","post_mooney1_questions","survey-likert","260","901112","0.0-6.0-2.36","2960045","co38167","norming","","","{""curiosity"":6,""confidence"":2}","[0,1]","../img/tt/438tt.jpg","",""
"2276.270000002114","","","recognition","survey-text","261","903395","0.0-6.0-3.36","2960045","co38167","norming","","","{""guess"":""snake""}","","../img/tt/438tt.jpg","",""
"null","../img/gs/438gs.jpg","null","reveal","image-keyboard-response","262","905402","0.0-6.0-4.36","2960045","co38167","norming","","","","","","",""
"null","../img/tt/438tt.jpg","null","mooney2","image-keyboard-response","263","907410","0.0-6.0-5.36","2960045","co38167","norming","","","","","","",""
"4254.639999999199","","","post_reveal_questions","survey-likert","264","911668","0.0-6.0-6.36","2960045","co38167","norming","","","{""aha"":3}","[0]","../img/tt/438tt.jpg","",""
"null","<div style=""font-size:60px;""> </div>","null","fixation","html-keyboard-response","265","911884","0.0-6.0-0.37","2960045","co38167","norming","","","","","","",""
"null","../img/tt/1363tt.jpg","null","mooney1","image-keyboard-response","266","914889","0.0-6.0-1.37","2960045","co38167","norming","","","","","","",""
"5979.720000002999","","","post_mooney1_questions","survey-likert","267","920874","0.0-6.0-2.37","2960045","co38167","norming","","","{""curiosity"":6,""confidence"":0}","[0,1]","../img/tt/1363tt.jpg","",""
"311.65499999769963","","","recognition","survey-text","268","921196","0.0-6.0-3.37","2960045","co38167","norming","","","{""guess"":""""}","","../img/tt/1363tt.jpg","",""
"null","../img/gs/1363gs.jpg","null","reveal","image-keyboard-response","269","923204","0.0-6.0-4.37","2960045","co38167","norming","","","","","","",""
"null","../img/tt/1363tt.jpg","null","mooney2","image-keyboard-response","270","925222","0.0-6.0-5.37","2960045","co38167","norming","","","","","","",""
"3795.7099999912316","","","post_reveal_questions","survey-likert","271","929022","0.0-6.0-6.37","2960045","co38167","norming","","","{""aha"":4}","[0]","../img/tt/1363tt.jpg","",""
"null","<div style=""font-size:60px;""> </div>","null","fixation","html-keyboard-response","272","929238","0.0-6.0-0.38","2960045","co38167","norming","","","","","","",""
"null","../img/tt/406tt.jpg","null","mooney1","image-keyboard-response","273","932247","0.0-6.0-1.38","2960045","co38167","norming","","","","","","",""
"3646.9300000026124","","","post_mooney1_questions","survey-likert","274","935900","0.0-6.0-2.38","2960045","co38167","norming","","","{""curiosity"":6,""confidence"":0}","[0,1]","../img/tt/406tt.jpg","",""
"785.9650000027614","","","recognition","survey-text","275","936694","0.0-6.0-3.38","2960045","co38167","norming","","","{""guess"":""""}","","../img/tt/406tt.jpg","",""
"null","../img/gs/406gs.jpg","null","reveal","image-keyboard-response","276","938699","0.0-6.0-4.38","2960045","co38167","norming","","","","","","",""
"null","../img/tt/406tt.jpg","null","mooney2","image-keyboard-response","277","940721","0.0-6.0-5.38","2960045","co38167","norming","","","","","","",""
"2502.664999992703","","","post_reveal_questions","survey-likert","278","943227","0.0-6.0-6.38","2960045","co38167","norming","","","{""aha"":6}","[0]","../img/tt/406tt.jpg","",""
"null","<div style=""font-size:60px;""> </div>","null","fixation","html-keyboard-response","279","943440","0.0-6.0-0.39","2960045","co38167","norming","","","","","","",""
"null","../img/tt/603tt.jpg","null","mooney1","image-keyboard-response","280","946453","0.0-6.0-1.39","2960045","co38167","norming","","","","","","",""
"3880.3399999887915","","","post_mooney1_questions","survey-likert","281","950338","0.0-6.0-2.39","2960045","co38167","norming","","","{""curiosity"":6,""confidence"":3}","[0,1]","../img/tt/603tt.jpg","",""
"1145.489999995334","","","recognition","survey-text","282","951492","0.0-6.0-3.39","2960045","co38167","norming","","","{""guess"":""cat""}","","../img/tt/603tt.jpg","",""
"null","../img/gs/603gs.jpg","null","reveal","image-keyboard-response","283","953507","0.0-6.0-4.39","2960045","co38167","norming","","","","","","",""
"null","../img/tt/603tt.jpg","null","mooney2","image-keyboard-response","284","955525","0.0-6.0-5.39","2960045","co38167","norming","","","","","","",""
"2438.160000005155","","","post_reveal_questions","survey-likert","285","957968","0.0-6.0-6.39","2960045","co38167","norming","","","{""aha"":1}","[0]","../img/tt/603tt.jpg","",""
"null","<div style=""font-size:60px;""> </div>","null","fixation","html-keyboard-response","286","958174","0.0-6.0-0.40","2960045","co38167","norming","","","","","","",""
"null","../img/tt/1171tt.jpg","null","mooney1","image-keyboard-response","287","961189","0.0-6.0-1.40","2960045","co38167","norming","","","","","","",""
"7035.294999994221","","","post_mooney1_questions","survey-likert","288","968229","0.0-6.0-2.40","2960045","co38167","norming","","","{""curiosity"":4,""confidence"":3}","[0,1]","../img/tt/1171tt.jpg","",""
"2404.1399999987334","","","recognition","survey-text","289","970642","0.0-6.0-3.40","2960045","co38167","norming","","","{""guess"":""clown""}","","../img/tt/1171tt.jpg","",""
"null","../img/gs/1171gs.jpg","null","reveal","image-keyboard-response","290","972650","0.0-6.0-4.40","2960045","co38167","norming","","","","","","",""
"null","../img/tt/1171tt.jpg","null","mooney2","image-keyboard-response","291","974665","0.0-6.0-5.40","2960045","co38167","norming","","","","","","",""
"3428.81500000658","","","post_reveal_questions","survey-likert","292","978097","0.0-6.0-6.40","2960045","co38167","norming","","","{""aha"":6}","[0]","../img/tt/1171tt.jpg","",""
"null","<div style=""font-size:60px;""> </div>","null","fixation","html-keyboard-response","293","978308","0.0-6.0-0.41","2960045","co38167","norming","","","","","","",""
"null","../img/tt/517tt.jpg","null","mooney1","image-keyboard-response","294","981324","0.0-6.0-1.41","2960045","co38167","norming","","","","","","",""
"3569.434999997611","","","post_mooney1_questions","survey-likert","295","984898","0.0-6.0-2.41","2960045","co38167","norming","","","{""curiosity"":6,""confidence"":0}","[0,1]","../img/tt/517tt.jpg","",""
"524.4349999993574","","","recognition","survey-text","296","985425","0.0-6.0-3.41","2960045","co38167","norming","","","{""guess"":""""}","","../img/tt/517tt.jpg","",""
"null","../img/gs/517gs.jpg","null","reveal","image-keyboard-response","297","987427","0.0-6.0-4.41","2960045","co38167","norming","","","","","","",""
"null","../img/tt/517tt.jpg","null","mooney2","image-keyboard-response","298","989434","0.0-6.0-5.41","2960045","co38167","norming","","","","","","",""
"2290.4799999960233","","","post_reveal_questions","survey-likert","299","991728","0.0-6.0-6.41","2960045","co38167","norming","","","{""aha"":6}","[0]","../img/tt/517tt.jpg","",""
"null","<div style=""font-size:60px;""> </div>","null","fixation","html-keyboard-response","300","991934","0.0-6.0-0.42","2960045","co38167","norming","","","","","","",""
"null","../img/tt/1012tt.jpg","null","mooney1","image-keyboard-response","301","994947","0.0-6.0-1.42","2960045","co38167","norming","","","","","","",""
"4209.285000004456","","","post_mooney1_questions","survey-likert","302","999161","0.0-6.0-2.42","2960045","co38167","norming","","","{""curiosity"":6,""confidence"":0}","[0,1]","../img/tt/1012tt.jpg","",""
"544.0899999957765","","","recognition","survey-text","303","999714","0.0-6.0-3.42","2960045","co38167","norming","","","{""guess"":""""}","","../img/tt/1012tt.jpg","",""
"null","../img/gs/1012gs.jpg","null","reveal","image-keyboard-response","304","1001717","0.0-6.0-4.42","2960045","co38167","norming","","","","","","",""
"null","../img/tt/1012tt.jpg","null","mooney2","image-keyboard-response","305","1003727","0.0-6.0-5.42","2960045","co38167","norming","","","","","","",""
"2691.6199999977835","","","post_reveal_questions","survey-likert","306","1006422","0.0-6.0-6.42","2960045","co38167","norming","","","{""aha"":6}","[0]","../img/tt/1012tt.jpg","",""
"null","<div style=""font-size:60px;""> </div>","null","fixation","html-keyboard-response","307","1006638","0.0-6.0-0.43","2960045","co38167","norming","","","","","","",""
"null","../img/tt/1191tt.jpg","null","mooney1","image-keyboard-response","308","1009661","0.0-6.0-1.43","2960045","co38167","norming","","","","","","",""
"3770.794999989448","","","post_mooney1_questions","survey-likert","309","1013436","0.0-6.0-2.43","2960045","co38167","norming","","","{""curiosity"":6,""confidence"":1}","[0,1]","../img/tt/1191tt.jpg","",""
"2528.395000001183","","","recognition","survey-text","310","1015972","0.0-6.0-3.43","2960045","co38167","norming","","","{""guess"":""people""}","","../img/tt/1191tt.jpg","",""
"null","../img/gs/1191gs.jpg","null","reveal","image-keyboard-response","311","1017974","0.0-6.0-4.43","2960045","co38167","norming","","","","","","",""
"null","../img/tt/1191tt.jpg","null","mooney2","image-keyboard-response","312","1019981","0.0-6.0-5.43","2960045","co38167","norming","","","","","","",""
"5108.200000002398","","","post_reveal_questions","survey-likert","313","1025092","0.0-6.0-6.43","2960045","co38167","norming","","","{""aha"":1}","[0]","../img/tt/1191tt.jpg","",""
"null","<div style=""font-size:60px;""> </div>","null","fixation","html-keyboard-response","314","1025308","0.0-6.0-0.44","2960045","co38167","norming","","","","","","",""
"null","../img/tt/1269tt.jpg","null","mooney1","image-keyboard-response","315","1028323","0.0-6.0-1.44","2960045","co38167","norming","","","","","","",""
"7453.240000002552","","","post_mooney1_questions","survey-likert","316","1035781","0.0-6.0-2.44","2960045","co38167","norming","","","{""curiosity"":6,""confidence"":2}","[0,1]","../img/tt/1269tt.jpg","",""
"1444.870000006631","","","recognition","survey-text","317","1037234","0.0-6.0-3.44","2960045","co38167","norming","","","{""guess"":""fox""}","","../img/tt/1269tt.jpg","",""
"null","../img/gs/1269gs.jpg","null","reveal","image-keyboard-response","318","1039238","0.0-6.0-4.44","2960045","co38167","norming","","","","","","",""
"null","../img/tt/1269tt.jpg","null","mooney2","image-keyboard-response","319","1041254","0.0-6.0-5.44","2960045","co38167","norming","","","","","","",""
"2502.664999992703","","","post_reveal_questions","survey-likert","320","1043760","0.0-6.0-6.44","2960045","co38167","norming","","","{""aha"":5}","[0]","../img/tt/1269tt.jpg","",""
"null","<div style=""font-size:60px;""> </div>","null","fixation","html-keyboard-response","321","1043970","0.0-6.0-0.45","2960045","co38167","norming","","","","","","",""
"null","../img/tt/1226tt.jpg","null","mooney1","image-keyboard-response","322","1046975","0.0-6.0-1.45","2960045","co38167","norming","","","","","","",""
"3921.8950000067707","","","post_mooney1_questions","survey-likert","323","1050901","0.0-6.0-2.45","2960045","co38167","norming","","","{""curiosity"":5,""confidence"":3}","[0,1]","../img/tt/1226tt.jpg","",""
"2326.115000003483","","","recognition","survey-text","324","1053241","0.0-6.0-3.45","2960045","co38167","norming","","","{""guess"":""chicken""}","","../img/tt/1226tt.jpg","",""
"null","../img/gs/1226gs.jpg","null","reveal","image-keyboard-response","325","1055247","0.0-6.0-4.45","2960045","co38167","norming","","","","","","",""
"null","../img/tt/1226tt.jpg","null","mooney2","image-keyboard-response","326","1057252","0.0-6.0-5.45","2960045","co38167","norming","","","","","","",""
"3035.074999992503","","","post_reveal_questions","survey-likert","327","1060291","0.0-6.0-6.45","2960045","co38167","norming","","","{""aha"":2}","[0]","../img/tt/1226tt.jpg","",""
"null","<div style=""font-size:60px;""> </div>","null","fixation","html-keyboard-response","328","1060505","0.0-6.0-0.46","2960045","co38167","norming","","","","","","",""
"null","../img/tt/1307tt.jpg","null","mooney1","image-keyboard-response","329","1063509","0.0-6.0-1.46","2960045","co38167","norming","","","","","","",""
"6727.8799999912735","","","post_mooney1_questions","survey-likert","330","1070242","0.0-6.0-2.46","2960045","co38167","norming","","","{""curiosity"":5,""confidence"":0}","[0,1]","../img/tt/1307tt.jpg","",""
"349.62999999686144","","","recognition","survey-text","331","1070603","0.0-6.0-3.46","2960045","co38167","norming","","","{""guess"":""""}","","../img/tt/1307tt.jpg","",""
"null","../img/gs/1307gs.jpg","null","reveal","image-keyboard-response","332","1072620","0.0-6.0-4.46","2960045","co38167","norming","","","","","","",""
"null","../img/tt/1307tt.jpg","null","mooney2","image-keyboard-response","333","1074636","0.0-6.0-5.46","2960045","co38167","norming","","","","","","",""
"2488.65500000841","","","post_reveal_questions","survey-likert","334","1077128","0.0-6.0-6.46","2960045","co38167","norming","","","{""aha"":6}","[0]","../img/tt/1307tt.jpg","",""
"null","<div style=""font-size:60px;""> </div>","null","fixation","html-keyboard-response","335","1077340","0.0-6.0-0.47","2960045","co38167","norming","","","","","","",""
"null","../img/tt/1142tt.jpg","null","mooney1","image-keyboard-response","336","1080353","0.0-6.0-1.47","2960045","co38167","norming","","","","","","",""
"5233.15000000014","","","post_mooney1_questions","survey-likert","337","1085591","0.0-6.0-2.47","2960045","co38167","norming","","","{""curiosity"":5,""confidence"":2}","[0,1]","../img/tt/1142tt.jpg","",""
"2003.6799999943469","","","recognition","survey-text","338","1087602","0.0-6.0-3.47","2960045","co38167","norming","","","{""guess"":""sport""}","","../img/tt/1142tt.jpg","",""
"null","../img/gs/1142gs.jpg","null","reveal","image-keyboard-response","339","1089604","0.0-6.0-4.47","2960045","co38167","norming","","","","","","",""
"null","../img/tt/1142tt.jpg","null","mooney2","image-keyboard-response","340","1091614","0.0-6.0-5.47","2960045","co38167","norming","","","","","","",""
"3003.6700000055134","","","post_reveal_questions","survey-likert","341","1094622","0.0-6.0-6.47","2960045","co38167","norming","","","{""aha"":4}","[0]","../img/tt/1142tt.jpg","",""
"null","<div style=""font-size:60px;""> </div>","null","fixation","html-keyboard-response","342","1094829","0.0-6.0-0.48","2960045","co38167","norming","","","","","","",""
"null","../img/tt/1024tt.jpg","null","mooney1","image-keyboard-response","343","1097847","0.0-6.0-1.48","2960045","co38167","norming","","","","","","",""
"4048.6950000049546","","","post_mooney1_questions","survey-likert","344","1101901","0.0-6.0-2.48","2960045","co38167","norming","","","{""curiosity"":5,""confidence"":0}","[0,1]","../img/tt/1024tt.jpg","",""
"467.77999999187887","","","recognition","survey-text","345","1102376","0.0-6.0-3.48","2960045","co38167","norming","","","{""guess"":""""}","","../img/tt/1024tt.jpg","",""
"null","../img/gs/1024gs.jpg","null","reveal","image-keyboard-response","346","1104379","0.0-6.0-4.48","2960045","co38167","norming","","","","","","",""
"null","../img/tt/1024tt.jpg","null","mooney2","image-keyboard-response","347","1106381","0.0-6.0-5.48","2960045","co38167","norming","","","","","","",""
"3055.7600000028033","","","post_reveal_questions","survey-likert","348","1109441","0.0-6.0-6.48","2960045","co38167","norming","","","{""aha"":4}","[0]","../img/tt/1024tt.jpg","",""
"null","<div style=""font-size:60px;""> </div>","null","fixation","html-keyboard-response","349","1109648","0.0-6.0-0.49","2960045","co38167","norming","","","","","","",""
"null","../img/tt/031tt.jpg","null","mooney1","image-keyboard-response","350","1112657","0.0-6.0-1.49","2960045","co38167","norming","","","","","","",""
"4522.584999999031","","","post_mooney1_questions","survey-likert","351","1117184","0.0-6.0-2.49","2960045","co38167","norming","","","{""curiosity"":6,""confidence"":2}","[0,1]","../img/tt/031tt.jpg","",""
"3920.0699999928474","","","recognition","survey-text","352","1121113","0.0-6.0-3.49","2960045","co38167","norming","","","{""guess"":""bear""}","","../img/tt/031tt.jpg","",""
"null","../img/gs/031gs.jpg","null","reveal","image-keyboard-response","353","1123115","0.0-6.0-4.49","2960045","co38167","norming","","","","","","",""
"null","../img/tt/031tt.jpg","null","mooney2","image-keyboard-response","354","1125133","0.0-6.0-5.49","2960045","co38167","norming","","","","","","",""
"2435.985000003595","","","post_reveal_questions","survey-likert","355","1127572","0.0-6.0-6.49","2960045","co38167","norming","","","{""aha"":3}","[0]","../img/tt/031tt.jpg","",""
"null","<div style=""font-size:60px;""> </div>","null","fixation","html-keyboard-response","356","1127778","0.0-6.0-0.50","2960045","co38167","norming","","","","","","",""
"null","../img/tt/1251tt.jpg","null","mooney1","image-keyboard-response","357","1130791","0.0-6.0-1.50","2960045","co38167","norming","","","","","","",""
"4630.390000005718","","","post_mooney1_questions","survey-likert","358","1135426","0.0-6.0-2.50","2960045","co38167","norming","","","{""curiosity"":6,""confidence"":0}","[0,1]","../img/tt/1251tt.jpg","",""
"416.0849999897182","","","recognition","survey-text","359","1135850","0.0-6.0-3.50","2960045","co38167","norming","","","{""guess"":""""}","","../img/tt/1251tt.jpg","",""
"null","../img/gs/1251gs.jpg","null","reveal","image-keyboard-response","360","1137864","0.0-6.0-4.50","2960045","co38167","norming","","","","","","",""
"null","../img/tt/1251tt.jpg","null","mooney2","image-keyboard-response","361","1139873","0.0-6.0-5.50","2960045","co38167","norming","","","","","","",""
"4793.355000001611","","","post_reveal_questions","survey-likert","362","1144670","0.0-6.0-6.50","2960045","co38167","norming","","","{""aha"":5}","[0]","../img/tt/1251tt.jpg","",""
"null","<div style=""font-size:60px;""> </div>","null","fixation","html-keyboard-response","363","1144881","0.0-6.0-0.51","2960045","co38167","norming","","","","","","",""
"null","../img/tt/001tt.jpg","null","mooney1","image-keyboard-response","364","1147887","0.0-6.0-1.51","2960045","co38167","norming","","","","","","",""
"3675.7550000038464","","","post_mooney1_questions","survey-likert","365","1151566","0.0-6.0-2.51","2960045","co38167","norming","","","{""curiosity"":6,""confidence"":2}","[0,1]","../img/tt/001tt.jpg","",""
"2501.7450000015087","","","recognition","survey-text","366","1154071","0.0-6.0-3.51","2960045","co38167","norming","","","{""guess"":""Monster""}","","../img/tt/001tt.jpg","",""
"null","../img/gs/001gs.jpg","null","reveal","image-keyboard-response","367","1156086","0.0-6.0-4.51","2960045","co38167","norming","","","","","","",""
"null","../img/tt/001tt.jpg","null","mooney2","image-keyboard-response","368","1158092","0.0-6.0-5.51","2960045","co38167","norming","","","","","","",""
"1885.2649999898858","","","post_reveal_questions","survey-likert","369","1159980","0.0-6.0-6.51","2960045","co38167","norming","","","{""aha"":6}","[0]","../img/tt/001tt.jpg","",""
"null","<div style=""font-size:60px;""> </div>","null","fixation","html-keyboard-response","370","1160188","0.0-6.0-0.52","2960045","co38167","norming","","","","","","",""
"null","../img/tt/358tt.jpg","null","mooney1","image-keyboard-response","371","1163192","0.0-6.0-1.52","2960045","co38167","norming","","","","","","",""
"4520.245000007097","","","post_mooney1_questions","survey-likert","372","1167717","0.0-6.0-2.52","2960045","co38167","norming","","","{""curiosity"":6,""confidence"":3}","[0,1]","../img/tt/358tt.jpg","",""
"2174.744999996852","","","recognition","survey-text","373","1169902","0.0-6.0-3.52","2960045","co38167","norming","","","{""guess"":""dog""}","","../img/tt/358tt.jpg","",""
"null","../img/gs/358gs.jpg","null","reveal","image-keyboard-response","374","1171917","0.0-6.0-4.52","2960045","co38167","norming","","","","","","",""
"null","../img/tt/358tt.jpg","null","mooney2","image-keyboard-response","375","1173924","0.0-6.0-5.52","2960045","co38167","norming","","","","","","",""
"4061.3450000092853","","","post_reveal_questions","survey-likert","376","1177989","0.0-6.0-6.52","2960045","co38167","norming","","","{""aha"":6}","[0]","../img/tt/358tt.jpg","",""
"null","<div style=""font-size:60px;""> </div>","null","fixation","html-keyboard-response","377","1178208","0.0-6.0-0.53","2960045","co38167","norming","","","","","","",""
"null","../img/tt/1211tt.jpg","null","mooney1","image-keyboard-response","378","1181215","0.0-6.0-1.53","2960045","co38167","norming","","","","","","",""
"3048.9800000067335","","","post_mooney1_questions","survey-likert","379","1184268","0.0-6.0-2.53","2960045","co38167","norming","","","{""curiosity"":5,""confidence"":1}","[0,1]","../img/tt/1211tt.jpg","",""
"555.3499999949709","","","recognition","survey-text","380","1184831","0.0-6.0-3.53","2960045","co38167","norming","","","{""guess"":""""}","","../img/tt/1211tt.jpg","",""
"null","../img/gs/1211gs.jpg","null","reveal","image-keyboard-response","381","1186841","0.0-6.0-4.53","2960045","co38167","norming","","","","","","",""
"null","../img/tt/1211tt.jpg","null","mooney2","image-keyboard-response","382","1188856","0.0-6.0-5.53","2960045","co38167","norming","","","","","","",""
"2204.3499999998603","","","post_reveal_questions","survey-likert","383","1191064","0.0-6.0-6.53","2960045","co38167","norming","","","{""aha"":6}","[0]","../img/tt/1211tt.jpg","",""
"null","<div style=""font-size:60px;""> </div>","null","fixation","html-keyboard-response","384","1191278","0.0-6.0-0.54","2960045","co38167","norming","","","","","","",""
"null","../img/tt/1118tt.jpg","null","mooney1","image-keyboard-response","385","1194287","0.0-6.0-1.54","2960045","co38167","norming","","","","","","",""
"3711.5400000039954","","","post_mooney1_questions","survey-likert","386","1198002","0.0-6.0-2.54","2960045","co38167","norming","","","{""curiosity"":6,""confidence"":0}","[0,1]","../img/tt/1118tt.jpg","",""
"402.57999999448657","","","recognition","survey-text","387","1198407","0.0-6.0-3.54","2960045","co38167","norming","","","{""guess"":""""}","","../img/tt/1118tt.jpg","",""
"null","../img/gs/1118gs.jpg","null","reveal","image-keyboard-response","388","1200411","0.0-6.0-4.54","2960045","co38167","norming","","","","","","",""
"null","../img/tt/1118tt.jpg","null","mooney2","image-keyboard-response","389","1202435","0.0-6.0-5.54","2960045","co38167","norming","","","","","","",""
"2618.3699999963865","","","post_reveal_questions","survey-likert","390","1205057","0.0-6.0-6.54","2960045","co38167","norming","","","{""aha"":6}","[0]","../img/tt/1118tt.jpg","",""
"null","<div style=""font-size:60px;""> </div>","null","fixation","html-keyboard-response","391","1205272","0.0-6.0-0.55","2960045","co38167","norming","","","","","","",""
"null","../img/tt/1309tt.jpg","null","mooney1","image-keyboard-response","392","1208284","0.0-6.0-1.55","2960045","co38167","norming","","","","","","",""
"5671.835000000894","","","post_mooney1_questions","survey-likert","393","1213960","0.0-6.0-2.55","2960045","co38167","norming","","","{""curiosity"":5,""confidence"":0}","[0,1]","../img/tt/1309tt.jpg","",""
"961.1949999963399","","","recognition","survey-text","394","1214928","0.0-6.0-3.55","2960045","co38167","norming","","","{""guess"":""""}","","../img/tt/1309tt.jpg","",""
"null","../img/gs/1309gs.jpg","null","reveal","image-keyboard-response","395","1216941","0.0-6.0-4.55","2960045","co38167","norming","","","","","","",""
"null","../img/tt/1309tt.jpg","null","mooney2","image-keyboard-response","396","1218959","0.0-6.0-5.55","2960045","co38167","norming","","","","","","",""
"2804.684999995632","","","post_reveal_questions","survey-likert","397","1221767","0.0-6.0-6.55","2960045","co38167","norming","","","{""aha"":5}","[0]","../img/tt/1309tt.jpg","",""
"null","<div style=""font-size:60px;""> </div>","null","fixation","html-keyboard-response","398","1221983","0.0-6.0-0.56","2960045","co38167","norming","","","","","","",""
"null","../img/tt/091tt.jpg","null","mooney1","image-keyboard-response","399","1224993","0.0-6.0-1.56","2960045","co38167","norming","","","","","","",""
"3378.914999993751","","","post_mooney1_questions","survey-likert","400","1228375","0.0-6.0-2.56","2960045","co38167","norming","","","{""curiosity"":6,""confidence"":0}","[0,1]","../img/tt/091tt.jpg","",""
"421.7600000118837","","","recognition","survey-text","401","1228800","0.0-6.0-3.56","2960045","co38167","norming","","","{""guess"":""""}","","../img/tt/091tt.jpg","",""
"null","../img/gs/091gs.jpg","null","reveal","image-keyboard-response","402","1230806","0.0-6.0-4.56","2960045","co38167","norming","","","","","","",""
"null","../img/tt/091tt.jpg","null","mooney2","image-keyboard-response","403","1232819","0.0-6.0-5.56","2960045","co38167","norming","","","","","","",""
"2190.125000008149","","","post_reveal_questions","survey-likert","404","1235013","0.0-6.0-6.56","2960045","co38167","norming","","","{""aha"":6}","[0]","../img/tt/091tt.jpg","",""
"null","<div style=""font-size:60px;""> </div>","null","fixation","html-keyboard-response","405","1235219","0.0-6.0-0.57","2960045","co38167","norming","","","","","","",""
"null","../img/tt/1130tt.jpg","null","mooney1","image-keyboard-response","406","1238232","0.0-6.0-1.57","2960045","co38167","norming","","","","","","",""
"4055.940000005765","","","post_mooney1_questions","survey-likert","407","1242293","0.0-6.0-2.57","2960045","co38167","norming","","","{""curiosity"":5,""confidence"":3}","[0,1]","../img/tt/1130tt.jpg","",""
"1818.9950000089593","","","recognition","survey-text","408","1244122","0.0-6.0-3.57","2960045","co38167","norming","","","{""guess"":""biker""}","","../img/tt/1130tt.jpg","",""
"null","../img/gs/1130gs.jpg","null","reveal","image-keyboard-response","409","1246126","0.0-6.0-4.57","2960045","co38167","norming","","","","","","",""
"null","../img/tt/1130tt.jpg","null","mooney2","image-keyboard-response","410","1248137","0.0-6.0-5.57","2960045","co38167","norming","","","","","","",""
"1845.9050000091083","","","post_reveal_questions","survey-likert","411","1249987","0.0-6.0-6.57","2960045","co38167","norming","","","{""aha"":6}","[0]","../img/tt/1130tt.jpg","",""
"null","<div style=""font-size:60px;""> </div>","null","fixation","html-keyboard-response","412","1250201","0.0-6.0-0.58","2960045","co38167","norming","","","","","","",""
"null","../img/tt/1053tt.jpg","null","mooney1","image-keyboard-response","413","1253213","0.0-6.0-1.58","2960045","co38167","norming","","","","","","",""
"16710.964999991003","","","post_mooney1_questions","survey-likert","414","1269927","0.0-6.0-2.58","2960045","co38167","norming","","","{""curiosity"":6,""confidence"":0}","[0,1]","../img/tt/1053tt.jpg","",""
"409.46000000974163","","","recognition","survey-text","415","1270339","0.0-6.0-3.58","2960045","co38167","norming","","","{""guess"":""""}","","../img/tt/1053tt.jpg","",""
"null","../img/gs/1053gs.jpg","null","reveal","image-keyboard-response","416","1272345","0.0-6.0-4.58","2960045","co38167","norming","","","","","","",""
"null","../img/tt/1053tt.jpg","null","mooney2","image-keyboard-response","417","1274357","0.0-6.0-5.58","2960045","co38167","norming","","","","","","",""
"2680.0300000032876","","","post_reveal_questions","survey-likert","418","1277041","0.0-6.0-6.58","2960045","co38167","norming","","","{""aha"":6}","[0]","../img/tt/1053tt.jpg","",""
"null","<div style=""font-size:60px;""> </div>","null","fixation","html-keyboard-response","419","1277248","0.0-6.0-0.59","2960045","co38167","norming","","","","","","",""
"null","../img/tt/567tt.jpg","null","mooney1","image-keyboard-response","420","1280256","0.0-6.0-1.59","2960045","co38167","norming","","","","","","",""
"13816.76000000164","","","post_mooney1_questions","survey-likert","421","1294077","0.0-6.0-2.59","2960045","co38167","norming","","","{""curiosity"":6,""confidence"":0}","[0,1]","../img/tt/567tt.jpg","",""
"48545.96000000322","","","recognition","survey-text","422","1342635","0.0-6.0-3.59","2960045","co38167","norming","","","{""guess"":""""}","","../img/tt/567tt.jpg","",""
"null","../img/gs/567gs.jpg","null","reveal","image-keyboard-response","423","1344651","0.0-6.0-4.59","2960045","co38167","norming","","","","","","",""
"null","../img/tt/567tt.jpg","null","mooney2","image-keyboard-response","424","1346657","0.0-6.0-5.59","2960045","co38167","norming","","","","","","",""
"2041.2000000067055","","","post_reveal_questions","survey-likert","425","1348702","0.0-6.0-6.59","2960045","co38167","norming","","","{""aha"":6}","[0]","../img/tt/567tt.jpg","",""
"null","<div style=""font-size:60px;""> </div>","null","fixation","html-keyboard-response","426","1348910","0.0-6.0-0.60","2960045","co38167","norming","","","","","","",""
"null","../img/tt/1127tt.jpg","null","mooney1","image-keyboard-response","427","1351918","0.0-6.0-1.60","2960045","co38167","norming","","","","","","",""
"10836.930000005057","","","post_mooney1_questions","survey-likert","428","1362758","0.0-6.0-2.60","2960045","co38167","norming","","","{""curiosity"":6,""confidence"":0}","[0,1]","../img/tt/1127tt.jpg","",""
"807.7650000052527","","","recognition","survey-text","429","1363571","0.0-6.0-3.60","2960045","co38167","norming","","","{""guess"":""""}","","../img/tt/1127tt.jpg","",""
"null","../img/gs/1127gs.jpg","null","reveal","image-keyboard-response","430","1365588","0.0-6.0-4.60","2960045","co38167","norming","","","","","","",""
"null","../img/tt/1127tt.jpg","null","mooney2","image-keyboard-response","431","1367591","0.0-6.0-5.60","2960045","co38167","norming","","","","","","",""
"19859.070000005886","","","post_reveal_questions","survey-likert","432","1387455","0.0-6.0-6.60","2960045","co38167","norming","","","{""aha"":6}","[0]","../img/tt/1127tt.jpg","",""
"null","<div style=""font-size:60px;""> </div>","null","fixation","html-keyboard-response","433","1387666","0.0-6.0-0.61","2960045","co38167","norming","","","","","","",""
"null","../img/tt/1044tt.jpg","null","mooney1","image-keyboard-response","434","1390671","0.0-6.0-1.61","2960045","co38167","norming","","","","","","",""
"6443.794999999227","","","post_mooney1_questions","survey-likert","435","1397118","0.0-6.0-2.61","2960045","co38167","norming","","","{""curiosity"":6,""confidence"":0}","[0,1]","../img/tt/1044tt.jpg","",""
"1016.2350000026636","","","recognition","survey-text","436","1398145","0.0-6.0-3.61","2960045","co38167","norming","","","{""guess"":""""}","","../img/tt/1044tt.jpg","",""
"null","../img/gs/1044gs.jpg","null","reveal","image-keyboard-response","437","1400160","0.0-6.0-4.61","2960045","co38167","norming","","","","","","",""
"null","../img/tt/1044tt.jpg","null","mooney2","image-keyboard-response","438","1402168","0.0-6.0-5.61","2960045","co38167","norming","","","","","","",""
"7028.109999999404","","","post_reveal_questions","survey-likert","439","1409200","0.0-6.0-6.61","2960045","co38167","norming","","","{""aha"":3}","[0]","../img/tt/1044tt.jpg","",""
"null","<div style=""font-size:60px;""> </div>","null","fixation","html-keyboard-response","440","1409413","0.0-6.0-0.62","2960045","co38167","norming","","","","","","",""
"null","../img/tt/552tt.jpg","null","mooney1","image-keyboard-response","441","1412419","0.0-6.0-1.62","2960045","co38167","norming","","","","","","",""
"4568.595000004163","","","post_mooney1_questions","survey-likert","442","1416992","0.0-6.0-2.62","2960045","co38167","norming","","","{""curiosity"":6,""confidence"":0}","[0,1]","../img/tt/552tt.jpg","",""
"299.7000000034459","","","recognition","survey-text","443","1417301","0.0-6.0-3.62","2960045","co38167","norming","","","{""guess"":""""}","","../img/tt/552tt.jpg","",""
"null","../img/gs/552gs.jpg","null","reveal","image-keyboard-response","444","1419319","0.0-6.0-4.62","2960045","co38167","norming","","","","","","",""
"null","../img/tt/552tt.jpg","null","mooney2","image-keyboard-response","445","1421327","0.0-6.0-5.62","2960045","co38167","norming","","","","","","",""
"5935.819999998901","","","post_reveal_questions","survey-likert","446","1427266","0.0-6.0-6.62","2960045","co38167","norming","","","{""aha"":4}","[0]","../img/tt/552tt.jpg","",""
"null","<div style=""font-size:60px;""> </div>","null","fixation","html-keyboard-response","447","1427485","0.0-6.0-0.63","2960045","co38167","norming","","","","","","",""
"null","../img/tt/1272tt.jpg","null","mooney1","image-keyboard-response","448","1430489","0.0-6.0-1.63","2960045","co38167","norming","","","","","","",""
"6154.255000001285","","","post_mooney1_questions","survey-likert","449","1436648","0.0-6.0-2.63","2960045","co38167","norming","","","{""curiosity"":5,""confidence"":0}","[0,1]","../img/tt/1272tt.jpg","",""
"892.7449999901","","","recognition","survey-text","450","1437547","0.0-6.0-3.63","2960045","co38167","norming","","","{""guess"":""""}","","../img/tt/1272tt.jpg","",""
"null","../img/gs/1272gs.jpg","null","reveal","image-keyboard-response","451","1439552","0.0-6.0-4.63","2960045","co38167","norming","","","","","","",""
"null","../img/tt/1272tt.jpg","null","mooney2","image-keyboard-response","452","1441570","0.0-6.0-5.63","2960045","co38167","norming","","","","","","",""
"5074.005000002217","","","post_reveal_questions","survey-likert","453","1446648","0.0-6.0-6.63","2960045","co38167","norming","","","{""aha"":4}","[0]","../img/tt/1272tt.jpg","",""
"null","<div style=""font-size:60px;""> </div>","null","fixation","html-keyboard-response","454","1446871","0.0-6.0-0.64","2960045","co38167","norming","","","","","","",""
"null","../img/tt/522tt.jpg","null","mooney1","image-keyboard-response","455","1449882","0.0-6.0-1.64","2960045","co38167","norming","","","","","","",""
"3628.9499999983236","","","post_mooney1_questions","survey-likert","456","1453515","0.0-6.0-2.64","2960045","co38167","norming","","","{""curiosity"":6,""confidence"":0}","[0,1]","../img/tt/522tt.jpg","",""
"623.4850000035949","","","recognition","survey-text","457","1454146","0.0-6.0-3.64","2960045","co38167","norming","","","{""guess"":""""}","","../img/tt/522tt.jpg","",""
"null","../img/gs/522gs.jpg","null","reveal","image-keyboard-response","458","1456149","0.0-6.0-4.64","2960045","co38167","norming","","","","","","",""
"null","../img/tt/522tt.jpg","null","mooney2","image-keyboard-response","459","1458154","0.0-6.0-5.64","2960045","co38167","norming","","","","","","",""
"43957.18499999191","","","post_reveal_questions","survey-likert","460","1502115","0.0-6.0-6.64","2960045","co38167","norming","","","{""aha"":5}","[0]","../img/tt/522tt.jpg","",""
"null","<div style=""font-size:60px;""> </div>","null","fixation","html-keyboard-response","461","1502327","0.0-6.0-0.65","2960045","co38167","norming","","","","","","",""
"null","../img/tt/590tt.jpg","null","mooney1","image-keyboard-response","462","1505334","0.0-6.0-1.65","2960045","co38167","norming","","","","","","",""
"5565.354999998817","","","post_mooney1_questions","survey-likert","463","1510904","0.0-6.0-2.65","2960045","co38167","norming","","","{""curiosity"":6,""confidence"":0}","[0,1]","../img/tt/590tt.jpg","",""
"7871.499999993714","","","recognition","survey-text","464","1518785","0.0-6.0-3.65","2960045","co38167","norming","","","{""guess"":""""}","","../img/tt/590tt.jpg","",""
"null","../img/gs/590gs.jpg","null","reveal","image-keyboard-response","465","1520792","0.0-6.0-4.65","2960045","co38167","norming","","","","","","",""
"null","../img/tt/590tt.jpg","null","mooney2","image-keyboard-response","466","1522809","0.0-6.0-5.65","2960045","co38167","norming","","","","","","",""
"50992.710000006016","","","post_reveal_questions","survey-likert","467","1573806","0.0-6.0-6.65","2960045","co38167","norming","","","{""aha"":5}","[0]","../img/tt/590tt.jpg","",""
"null","<div style=""font-size:60px;""> </div>","null","fixation","html-keyboard-response","468","1574018","0.0-6.0-0.66","2960045","co38167","norming","","","","","","",""
"null","../img/tt/080tt.jpg","null","mooney1","image-keyboard-response","469","1577034","0.0-6.0-1.66","2960045","co38167","norming","","","","","","",""
"12699.630000002682","","","post_mooney1_questions","survey-likert","470","1589737","0.0-6.0-2.66","2960045","co38167","norming","","","{""curiosity"":6,""confidence"":0}","[0,1]","../img/tt/080tt.jpg","",""
"562.5199999923352","","","recognition","survey-text","471","1590302","0.0-6.0-3.66","2960045","co38167","norming","","","{""guess"":""""}","","../img/tt/080tt.jpg","",""
"null","../img/gs/080gs.jpg","null","reveal","image-keyboard-response","472","1592309","0.0-6.0-4.66","2960045","co38167","norming","","","","","","",""
"null","../img/tt/080tt.jpg","null","mooney2","image-keyboard-response","473","1594311","0.0-6.0-5.66","2960045","co38167","norming","","","","","","",""
"4627.0950000034645","","","post_reveal_questions","survey-likert","474","1598942","0.0-6.0-6.66","2960045","co38167","norming","","","{""aha"":3}","[0]","../img/tt/080tt.jpg","",""
"null","<div style=""font-size:60px;""> </div>","null","fixation","html-keyboard-response","475","1599152","0.0-6.0-0.67","2960045","co38167","norming","","","","","","",""
"null","../img/tt/1235tt.jpg","null","mooney1","image-keyboard-response","476","1602161","0.0-6.0-1.67","2960045","co38167","norming","","","","","","",""
"12022.8050000004","","","post_mooney1_questions","survey-likert","477","1614188","0.0-6.0-2.67","2960045","co38167","norming","","","{""curiosity"":6,""confidence"":0}","[0,1]","../img/tt/1235tt.jpg","",""
"704.2900000088848","","","recognition","survey-text","478","1614895","0.0-6.0-3.67","2960045","co38167","norming","","","{""guess"":""""}","","../img/tt/1235tt.jpg","",""
"null","../img/gs/1235gs.jpg","null","reveal","image-keyboard-response","479","1616902","0.0-6.0-4.67","2960045","co38167","norming","","","","","","",""
"null","../img/tt/1235tt.jpg","null","mooney2","image-keyboard-response","480","1618905","0.0-6.0-5.67","2960045","co38167","norming","","","","","","",""
"2796.730000001844","","","post_reveal_questions","survey-likert","481","1621706","0.0-6.0-6.67","2960045","co38167","norming","","","{""aha"":3}","[0]","../img/tt/1235tt.jpg","",""
"null","<div style=""font-size:60px;""> </div>","null","fixation","html-keyboard-response","482","1621914","0.0-6.0-0.68","2960045","co38167","norming","","","","","","",""
"null","../img/tt/078tt.jpg","null","mooney1","image-keyboard-response","483","1624929","0.0-6.0-1.68","2960045","co38167","norming","","","","","","",""
"11296.699999991572","","","post_mooney1_questions","survey-likert","484","1636230","0.0-6.0-2.68","2960045","co38167","norming","","","{""curiosity"":5,""confidence"":2}","[0,1]","../img/tt/078tt.jpg","",""
"5030.815000005532","","","recognition","survey-text","485","1641270","0.0-6.0-3.68","2960045","co38167","norming","","","{""guess"":""grapes""}","","../img/tt/078tt.jpg","",""
"null","../img/gs/078gs.jpg","null","reveal","image-keyboard-response","486","1643275","0.0-6.0-4.68","2960045","co38167","norming","","","","","","",""
"null","../img/tt/078tt.jpg","null","mooney2","image-keyboard-response","487","1645291","0.0-6.0-5.68","2960045","co38167","norming","","","","","","",""
"16692.22999998601","","","post_reveal_questions","survey-likert","488","1661987","0.0-6.0-6.68","2960045","co38167","norming","","","{""aha"":0}","[0]","../img/tt/078tt.jpg","",""
"null","<div style=""font-size:60px;""> </div>","null","fixation","html-keyboard-response","489","1662193","0.0-6.0-0.69","2960045","co38167","norming","","","","","","",""
"null","../img/tt/1232tt.jpg","null","mooney1","image-keyboard-response","490","1665213","0.0-6.0-1.69","2960045","co38167","norming","","","","","","",""
"4433.329999999609","","","post_mooney1_questions","survey-likert","491","1669650","0.0-6.0-2.69","2960045","co38167","norming","","","{""curiosity"":5,""confidence"":1}","[0,1]","../img/tt/1232tt.jpg","",""
"3023.449999993434","","","recognition","survey-text","492","1672682","0.0-6.0-3.69","2960045","co38167","norming","","","{""guess"":""snow""}","","../img/tt/1232tt.jpg","",""
"null","../img/gs/1232gs.jpg","null","reveal","image-keyboard-response","493","1674690","0.0-6.0-4.69","2960045","co38167","norming","","","","","","",""
"null","../img/tt/1232tt.jpg","null","mooney2","image-keyboard-response","494","1676692","0.0-6.0-5.69","2960045","co38167","norming","","","","","","",""
"12507.509999995818","","","post_reveal_questions","survey-likert","495","1689204","0.0-6.0-6.69","2960045","co38167","norming","","","{""aha"":3}","[0]","../img/tt/1232tt.jpg","",""
"null","<div style=""font-size:60px;""> </div>","null","fixation","html-keyboard-response","496","1689423","0.0-6.0-0.70","2960045","co38167","norming","","","","","","",""
"null","../img/tt/1066tt.jpg","null","mooney1","image-keyboard-response","497","1692434","0.0-6.0-1.70","2960045","co38167","norming","","","","","","",""
"38229.81499999878","","","post_mooney1_questions","survey-likert","498","1730668","0.0-6.0-2.70","2960045","co38167","norming","","","{""curiosity"":6,""confidence"":0}","[0,1]","../img/tt/1066tt.jpg","",""
"556.919999988284","","","recognition","survey-text","499","1731237","0.0-6.0-3.70","2960045","co38167","norming","","","{""guess"":""""}","","../img/tt/1066tt.jpg","",""
"null","../img/gs/1066gs.jpg","null","reveal","image-keyboard-response","500","1733247","0.0-6.0-4.70","2960045","co38167","norming","","","","","","",""
"null","../img/tt/1066tt.jpg","null","mooney2","image-keyboard-response","501","1735254","0.0-6.0-5.70","2960045","co38167","norming","","","","","","",""
"79934.35999999917","","","post_reveal_questions","survey-likert","502","1815193","0.0-6.0-6.70","2960045","co38167","norming","","","{""aha"":6}","[0]","../img/tt/1066tt.jpg","",""
"null","<div style=""font-size:60px;""> </div>","null","fixation","html-keyboard-response","503","1815413","0.0-6.0-0.71","2960045","co38167","norming","","","","","","",""
"null","../img/tt/1078tt.jpg","null","mooney1","image-keyboard-response","504","1818426","0.0-6.0-1.71","2960045","co38167","norming","","","","","","",""
"13467.035000008997","","","post_mooney1_questions","survey-likert","505","1831897","0.0-6.0-2.71","2960045","co38167","norming","","","{""curiosity"":5,""confidence"":0}","[0,1]","../img/tt/1078tt.jpg","",""
"971.7799999925774","","","recognition","survey-text","506","1832877","0.0-6.0-3.71","2960045","co38167","norming","","","{""guess"":""""}","","../img/tt/1078tt.jpg","",""
"null","../img/gs/1078gs.jpg","null","reveal","image-keyboard-response","507","1834881","0.0-6.0-4.71","2960045","co38167","norming","","","","","","",""
"null","../img/tt/1078tt.jpg","null","mooney2","image-keyboard-response","508","1836890","0.0-6.0-5.71","2960045","co38167","norming","","","","","","",""
"4889.614999992773","","","post_reveal_questions","survey-likert","509","1841783","0.0-6.0-6.71","2960045","co38167","norming","","","{""aha"":6}","[0]","../img/tt/1078tt.jpg","",""
"null","<div style=""font-size:60px;""> </div>","null","fixation","html-keyboard-response","510","1842002","0.0-6.0-0.72","2960045","co38167","norming","","","","","","",""
"null","../img/tt/222tt.jpg","null","mooney1","image-keyboard-response","511","1845020","0.0-6.0-1.72","2960045","co38167","norming","","","","","","",""
"4139.645000003045","","","post_mooney1_questions","survey-likert","512","1849164","0.0-6.0-2.72","2960045","co38167","norming","","","{""curiosity"":6,""confidence"":0}","[0,1]","../img/tt/222tt.jpg","",""
"977.0200000056066","","","recognition","survey-text","513","1850144","0.0-6.0-3.72","2960045","co38167","norming","","","{""guess"":""""}","","../img/tt/222tt.jpg","",""
"null","../img/gs/222gs.jpg","null","reveal","image-keyboard-response","514","1852148","0.0-6.0-4.72","2960045","co38167","norming","","","","","","",""
"null","../img/tt/222tt.jpg","null","mooney2","image-keyboard-response","515","1854153","0.0-6.0-5.72","2960045","co38167","norming","","","","","","",""
"6145.590000000084","","","post_reveal_questions","survey-likert","516","1860303","0.0-6.0-6.72","2960045","co38167","norming","","","{""aha"":4}","[0]","../img/tt/222tt.jpg","",""
"null","<div style=""font-size:60px;""> </div>","null","fixation","html-keyboard-response","517","1860516","0.0-6.0-0.73","2960045","co38167","norming","","","","","","",""
"null","../img/tt/1159tt.jpg","null","mooney1","image-keyboard-response","518","1863530","0.0-6.0-1.73","2960045","co38167","norming","","","","","","",""
"4001.4250000095926","","","post_mooney1_questions","survey-likert","519","1867535","0.0-6.0-2.73","2960045","co38167","norming","","","{""curiosity"":6,""confidence"":1}","[0,1]","../img/tt/1159tt.jpg","",""
"673.3450000029989","","","recognition","survey-text","520","1868211","0.0-6.0-3.73","2960045","co38167","norming","","","{""guess"":""""}","","../img/tt/1159tt.jpg","",""
"null","../img/gs/1159gs.jpg","null","reveal","image-keyboard-response","521","1870226","0.0-6.0-4.73","2960045","co38167","norming","","","","","","",""
"null","../img/tt/1159tt.jpg","null","mooney2","image-keyboard-response","522","1872229","0.0-6.0-5.73","2960045","co38167","norming","","","","","","",""
"2475.269999995362","","","post_reveal_questions","survey-likert","523","1874708","0.0-6.0-6.73","2960045","co38167","norming","","","{""aha"":5}","[0]","../img/tt/1159tt.jpg","",""
"null","<div style=""font-size:60px;""> </div>","null","fixation","html-keyboard-response","524","1874913","0.0-6.0-0.74","2960045","co38167","norming","","","","","","",""
"null","../img/tt/318tt.jpg","null","mooney1","image-keyboard-response","525","1877917","0.0-6.0-1.74","2960045","co38167","norming","","","","","","",""
"4027.4599999974016","","","post_mooney1_questions","survey-likert","526","1881949","0.0-6.0-2.74","2960045","co38167","norming","","","{""curiosity"":6,""confidence"":0}","[0,1]","../img/tt/318tt.jpg","",""
"520.5900000003166","","","recognition","survey-text","527","1882480","0.0-6.0-3.74","2960045","co38167","norming","","","{""guess"":""7""}","","../img/tt/318tt.jpg","",""
"null","../img/gs/318gs.jpg","null","reveal","image-keyboard-response","528","1884494","0.0-6.0-4.74","2960045","co38167","norming","","","","","","",""
"null","../img/tt/318tt.jpg","null","mooney2","image-keyboard-response","529","1886500","0.0-6.0-5.74","2960045","co38167","norming","","","","","","",""
"18466.62500000093","","","post_reveal_questions","survey-likert","530","1904970","0.0-6.0-6.74","2960045","co38167","norming","","","{""aha"":6}","[0]","../img/tt/318tt.jpg","",""
"null","<div style=""font-size:60px;""> </div>","null","fixation","html-keyboard-response","531","1905185","0.0-6.0-0.75","2960045","co38167","norming","","","","","","",""
"null","../img/tt/1278tt.jpg","null","mooney1","image-keyboard-response","532","1908201","0.0-6.0-1.75","2960045","co38167","norming","","","","","","",""
"5147.734999991488","","","post_mooney1_questions","survey-likert","533","1913354","0.0-6.0-2.75","2960045","co38167","norming","","","{""curiosity"":6,""confidence"":0}","[0,1]","../img/tt/1278tt.jpg","",""
"4086.150000002701","","","recognition","survey-text","534","1917451","0.0-6.0-3.75","2960045","co38167","norming","","","{""guess"":""""}","","../img/tt/1278tt.jpg","",""
"null","../img/gs/1278gs.jpg","null","reveal","image-keyboard-response","535","1919454","0.0-6.0-4.75","2960045","co38167","norming","","","","","","",""
"null","../img/tt/1278tt.jpg","null","mooney2","image-keyboard-response","536","1921458","0.0-6.0-5.75","2960045","co38167","norming","","","","","","",""
"2475.4250000114553","","","post_reveal_questions","survey-likert","537","1923937","0.0-6.0-6.75","2960045","co38167","norming","","","{""aha"":6}","[0]","../img/tt/1278tt.jpg","",""
"null","<div style=""font-size:60px;""> </div>","null","fixation","html-keyboard-response","538","1924149","0.0-6.0-0.76","2960045","co38167","norming","","","","","","",""
"null","../img/tt/440tt.jpg","null","mooney1","image-keyboard-response","539","1927156","0.0-6.0-1.76","2960045","co38167","norming","","","","","","",""
"4094.054999994114","","","post_mooney1_questions","survey-likert","540","1931254","0.0-6.0-2.76","2960045","co38167","norming","","","{""curiosity"":6,""confidence"":0}","[0,1]","../img/tt/440tt.jpg","",""
"2945.075000010431","","","recognition","survey-text","541","1934208","0.0-6.0-3.76","2960045","co38167","norming","","","{""guess"":""""}","","../img/tt/440tt.jpg","",""
"null","../img/gs/440gs.jpg","null","reveal","image-keyboard-response","542","1936210","0.0-6.0-4.76","2960045","co38167","norming","","","","","","",""
"null","../img/tt/440tt.jpg","null","mooney2","image-keyboard-response","543","1938213","0.0-6.0-5.76","2960045","co38167","norming","","","","","","",""
"6492.100000003353","","","post_reveal_questions","survey-likert","544","1944709","0.0-6.0-6.76","2960045","co38167","norming","","","{""aha"":4}","[0]","../img/tt/440tt.jpg","",""
"null","<div style=""font-size:60px;""> </div>","null","fixation","html-keyboard-response","545","1944925","0.0-6.0-0.77","2960045","co38167","norming","","","","","","",""
"null","../img/tt/515tt.jpg","null","mooney1","image-keyboard-response","546","1947939","0.0-6.0-1.77","2960045","co38167","norming","","","","","","",""
"8026.459999993909","","","post_mooney1_questions","survey-likert","547","1955970","0.0-6.0-2.77","2960045","co38167","norming","","","{""curiosity"":6,""confidence"":1}","[0,1]","../img/tt/515tt.jpg","",""
"6777.795000001788","","","recognition","survey-text","548","1962757","0.0-6.0-3.77","2960045","co38167","norming","","","{""guess"":""""}","","../img/tt/515tt.jpg","",""
"null","../img/gs/515gs.jpg","null","reveal","image-keyboard-response","549","1964766","0.0-6.0-4.77","2960045","co38167","norming","","","","","","",""
"null","../img/tt/515tt.jpg","null","mooney2","image-keyboard-response","550","1966779","0.0-6.0-5.77","2960045","co38167","norming","","","","","","",""
"3834.449999994831","","","post_reveal_questions","survey-likert","551","1970617","0.0-6.0-6.77","2960045","co38167","norming","","","{""aha"":6}","[0]","../img/tt/515tt.jpg","",""
"null","<div style=""font-size:60px;""> </div>","null","fixation","html-keyboard-response","552","1970829","0.0-6.0-0.78","2960045","co38167","norming","","","","","","",""
"null","../img/tt/270tt.jpg","null","mooney1","image-keyboard-response","553","1973840","0.0-6.0-1.78","2960045","co38167","norming","","","","","","",""
