"rt","stimulus","key_press","test_part","trial_type","trial_index","time_elapsed","internal_node_id","totalTime","subject","experiment_name","button_pressed","success","responses","question_order","currentStim","old","correct"
"15806.114999999409","Welcome to the experiment. This is an online experiment so please don't close the tab/window until we say goodbye.  Press any key to begin.","13","instructions","html-keyboard-response","0","15862","0.0-0.0","3001255","co38449","norming","","","","","","",""
"24077.149999997346","<div style='word-wrap: break-word; width: 900px'><h3>Please consider this information carefully before deciding whether to participate in this research</h3><ul style='text-align: left; font-size: .8em;'><li><b>Purpose of the research</b>: To examine how people process images.</li><li><b>What you will do in this research</b>:  Stimuli (images) will be presented on the computer and you will be asked different questions about them.</li><li><b>Time required</b>: Participation will take between 45 and 60 minutes to complete.</li><li><b>Risks</b>:  There are no anticipated risks associated with participating in this study. The effects of participating should be comparable to those you would experience from viewing a computer monitor for 30 minutes and using a mouse or keyboard.</li><li><b>Benefits</b>:  This study provides no benefits to you individually except for the credit. The study provides important information about the nature of perception and learning.</li><li><b>Confidentiality</b>:  Your participation in this study will remain confidential. No personally identifiable information will be associated with your data. Your de-identified data may be shared with other researchers and used in future projects.</li><li><b>Participation and withdrawal</b>:  Your participation in this study is completely voluntary and you may refuse to participate or you may choose to withdraw at any time without penalty.</li><li><b>How to contact the researchers</b>: If you have questions or concerns about your participation or payment, or want to request a summary of research findings, please contact Sander Van de Cruys (KU Leuven), at sander.vandecruys@kuleuven.be.</li></ul><p>The nature and purpose of this research have been sufficiently explained and I agree to participate in this study.  I understand that I am free to withdraw at any time without incurring any penalty.</p><p>Please consent by clicking the button below to continue. Otherwise, please exit the study at this time.</p></div>","","instructions","html-button-response","1","39941","0.0-1.0","3001255","co38449","norming","0","","","","","",""
"","","","instructions","fullscreen","2","44567","0.0-2.0","3001255","co38449","norming","","true","","","","",""
"28187.395000000834","","","sona","survey-html-form","3","72758","0.0-3.0","3001255","co38449","norming","","","[{""name"":""sonaid"",""value"":""38449""},{""name"":""debrief"",""value"":""no""},{""name"":""datajoin"",""value"":""yes""}]","","","",""
"91972.09500000463","<div style='word-wrap: break-word; width: 900px'><h3>Instructions</h3><p>This experiment will have 3 parts. In the first part you will see a series of distorted images like the one below on the left. As you can see in the righthand image, the distorted images are derived from actual photographs. In what follows, you will <strong>briefly</strong> be presented with <strong>only</strong> the distorted image.</p> <div style='float: left; margin-right: 20px;'><img src='../img/018tt.jpg' height='250' width='250'></img></div><div style='float: right; margin-left: 20px;'><img src='../img/018gs.jpg' height='250' width='250'></img></div><p>Subsequently you will be asked a few questions about the image: One question on how <strong>curious</strong> you are about the solution and one on how <strong>confident</strong> you are that you know the solution.</p>Next, we ask you to make a guess on what is in the image. Note that it is OK to name just the <strong>basic level category</strong>. For example when you see a parrot in the image, 'parrot' will obviously be a correct answer but also correct is 'bird'. However, 'animal' will <strong>not</strong> be counted as a correct response. For the example above, 'rose' would be correct or 'flower', but not 'plant'. When soccer players are depicted, 'soccer', 'football', 'soccer players' will be correct, but not 'humans', 'outdoors', or 'sports'. You do not need to describe the image in full, just name the main object in it <strong>in one or two words</strong>. All images depict objects from one of the following broad level categories: animals, inanimate objects, plants, sports, vehicles, and food. Recognizing means knowing <strong>more</strong> than these broad labels for a given image. But we always encourage you to <strong>make a guess</strong> if you can. Note that you are allowed to use <strong>Dutch and English</strong> in your answers, whatever comes easiest for you.</p><p>Press any key to continue.</p></div>","13","instructions","html-keyboard-response","4","164732","0.0-4.0","3001255","co38449","norming","","","","","","",""
"25670.589999994263","<div style='word-wrap: break-word; width: 900px'><h3>Instructions</h3> <p>Next, the solution image will be revealed to you and you'll be asked to indicate how strong your <strong>aha-experience</strong> was after seeing the solution. This describes the positive feeling of the 'click' you sometimes experience, when the pieces of the 'puzzle' fall together and you suddenly have 'insight' in the image.</p><img src='aha.jpg' height='188' width='250'></img><p>Note that there are no right or wrong answers. We are interested in what <strong>you</strong> see in the image and how <strong>you</strong> feel about it.</p><p>Press any key to start the experiment.</p></div>","13","instructions","html-keyboard-response","5","190403","0.0-5.0","3001255","co38449","norming","","","","","","",""
"null","<div style=""font-size:60px;""> </div>","null","fixation","html-keyboard-response","6","190605","0.0-6.0-0.0","3001255","co38449","norming","","","","","","",""
"null","../img/tt/412tt.jpg","null","mooney1","image-keyboard-response","7","193614","0.0-6.0-1.0","3001255","co38449","norming","","","","","","",""
"16623.39000000793","","","post_mooney1_questions","survey-likert","8","210241","0.0-6.0-2.0","3001255","co38449","norming","","","{""curiosity"":5,""confidence"":1}","[0,1]","../img/tt/412tt.jpg","",""
"9914.769999988494","","","recognition","survey-text","9","220160","0.0-6.0-3.0","3001255","co38449","norming","","","{""guess"":""Horse""}","","../img/tt/412tt.jpg","",""
"null","../img/gs/412gs.jpg","null","reveal","image-keyboard-response","10","222165","0.0-6.0-4.0","3001255","co38449","norming","","","","","","",""
"null","../img/tt/412tt.jpg","null","mooney2","image-keyboard-response","11","224168","0.0-6.0-5.0","3001255","co38449","norming","","","","","","",""
"5220.354999997653","","","post_reveal_questions","survey-likert","12","229391","0.0-6.0-6.0","3001255","co38449","norming","","","{""aha"":5}","[0]","../img/tt/412tt.jpg","",""
"null","<div style=""font-size:60px;""> </div>","null","fixation","html-keyboard-response","13","229594","0.0-6.0-0.1","3001255","co38449","norming","","","","","","",""
"null","../img/tt/031tt.jpg","null","mooney1","image-keyboard-response","14","232599","0.0-6.0-1.1","3001255","co38449","norming","","","","","","",""
"5749.324999997043","","","post_mooney1_questions","survey-likert","15","238350","0.0-6.0-2.1","3001255","co38449","norming","","","{""curiosity"":4,""confidence"":2}","[0,1]","../img/tt/031tt.jpg","",""
"28905.295000004116","","","recognition","survey-text","16","267259","0.0-6.0-3.1","3001255","co38449","norming","","","{""guess"":""cow""}","","../img/tt/031tt.jpg","",""
"null","../img/gs/031gs.jpg","null","reveal","image-keyboard-response","17","269264","0.0-6.0-4.1","3001255","co38449","norming","","","","","","",""
"null","../img/tt/031tt.jpg","null","mooney2","image-keyboard-response","18","271271","0.0-6.0-5.1","3001255","co38449","norming","","","","","","",""
"4491.835000007995","","","post_reveal_questions","survey-likert","19","275765","0.0-6.0-6.1","3001255","co38449","norming","","","{""aha"":6}","[0]","../img/tt/031tt.jpg","",""
"null","<div style=""font-size:60px;""> </div>","null","fixation","html-keyboard-response","20","275967","0.0-6.0-0.2","3001255","co38449","norming","","","","","","",""
"null","../img/tt/098tt.jpg","null","mooney1","image-keyboard-response","21","278970","0.0-6.0-1.2","3001255","co38449","norming","","","","","","",""
"7249.074999999721","","","post_mooney1_questions","survey-likert","22","286222","0.0-6.0-2.2","3001255","co38449","norming","","","{""curiosity"":5,""confidence"":1}","[0,1]","../img/tt/098tt.jpg","",""
"10143.41499999864","","","recognition","survey-text","23","296369","0.0-6.0-3.2","3001255","co38449","norming","","","{""guess"":""soldier""}","","../img/tt/098tt.jpg","",""
"null","../img/gs/098gs.jpg","null","reveal","image-keyboard-response","24","298370","0.0-6.0-4.2","3001255","co38449","norming","","","","","","",""
"null","../img/tt/098tt.jpg","null","mooney2","image-keyboard-response","25","300373","0.0-6.0-5.2","3001255","co38449","norming","","","","","","",""
"3869.8499999882188","","","post_reveal_questions","survey-likert","26","304245","0.0-6.0-6.2","3001255","co38449","norming","","","{""aha"":6}","[0]","../img/tt/098tt.jpg","",""
"null","<div style=""font-size:60px;""> </div>","null","fixation","html-keyboard-response","27","304449","0.0-6.0-0.3","3001255","co38449","norming","","","","","","",""
"null","../img/tt/1122tt.jpg","null","mooney1","image-keyboard-response","28","307452","0.0-6.0-1.3","3001255","co38449","norming","","","","","","",""
"11411.069999987376","","","post_mooney1_questions","survey-likert","29","318866","0.0-6.0-2.3","3001255","co38449","norming","","","{""curiosity"":5,""confidence"":3}","[0,1]","../img/tt/1122tt.jpg","",""
"7406.880000009551","","","recognition","survey-text","30","326275","0.0-6.0-3.3","3001255","co38449","norming","","","{""guess"":""street""}","","../img/tt/1122tt.jpg","",""
"null","../img/gs/1122gs.jpg","null","reveal","image-keyboard-response","31","328284","0.0-6.0-4.3","3001255","co38449","norming","","","","","","",""
"null","../img/tt/1122tt.jpg","null","mooney2","image-keyboard-response","32","330288","0.0-6.0-5.3","3001255","co38449","norming","","","","","","",""
"2873.4149999945657","","","post_reveal_questions","survey-likert","33","333163","0.0-6.0-6.3","3001255","co38449","norming","","","{""aha"":5}","[0]","../img/tt/1122tt.jpg","",""
"null","<div style=""font-size:60px;""> </div>","null","fixation","html-keyboard-response","34","333367","0.0-6.0-0.4","3001255","co38449","norming","","","","","","",""
"null","../img/tt/440tt.jpg","null","mooney1","image-keyboard-response","35","336373","0.0-6.0-1.4","3001255","co38449","norming","","","","","","",""
"4531.864999997197","","","post_mooney1_questions","survey-likert","36","340907","0.0-6.0-2.4","3001255","co38449","norming","","","{""curiosity"":4,""confidence"":2}","[0,1]","../img/tt/440tt.jpg","",""
"12235.369999994873","","","recognition","survey-text","37","353146","0.0-6.0-3.4","3001255","co38449","norming","","","{""guess"":""horse stable""}","","../img/tt/440tt.jpg","",""
"null","../img/gs/440gs.jpg","null","reveal","image-keyboard-response","38","355148","0.0-6.0-4.4","3001255","co38449","norming","","","","","","",""
"null","../img/tt/440tt.jpg","null","mooney2","image-keyboard-response","39","357167","0.0-6.0-5.4","3001255","co38449","norming","","","","","","",""
"3696.989999996731","","","post_reveal_questions","survey-likert","40","360866","0.0-6.0-6.4","3001255","co38449","norming","","","{""aha"":4}","[0]","../img/tt/440tt.jpg","",""
"null","<div style=""font-size:60px;""> </div>","null","fixation","html-keyboard-response","41","361068","0.0-6.0-0.5","3001255","co38449","norming","","","","","","",""
"null","../img/tt/020tt.jpg","null","mooney1","image-keyboard-response","42","364076","0.0-6.0-1.5","3001255","co38449","norming","","","","","","",""
"5515.355000010459","","","post_mooney1_questions","survey-likert","43","369594","0.0-6.0-2.5","3001255","co38449","norming","","","{""curiosity"":5,""confidence"":2}","[0,1]","../img/tt/020tt.jpg","",""
"3070.6949999876088","","","recognition","survey-text","44","372668","0.0-6.0-3.5","3001255","co38449","norming","","","{""guess"":""Dog""}","","../img/tt/020tt.jpg","",""
"null","../img/gs/020gs.jpg","null","reveal","image-keyboard-response","45","374675","0.0-6.0-4.5","3001255","co38449","norming","","","","","","",""
"null","../img/tt/020tt.jpg","null","mooney2","image-keyboard-response","46","376677","0.0-6.0-5.5","3001255","co38449","norming","","","","","","",""
"3117.069999992964","","","post_reveal_questions","survey-likert","47","379796","0.0-6.0-6.5","3001255","co38449","norming","","","{""aha"":5}","[0]","../img/tt/020tt.jpg","",""
"null","<div style=""font-size:60px;""> </div>","null","fixation","html-keyboard-response","48","380014","0.0-6.0-0.6","3001255","co38449","norming","","","","","","",""
"null","../img/tt/481tt.jpg","null","mooney1","image-keyboard-response","49","383017","0.0-6.0-1.6","3001255","co38449","norming","","","","","","",""
"4467.880000011064","","","post_mooney1_questions","survey-likert","50","387487","0.0-6.0-2.6","3001255","co38449","norming","","","{""curiosity"":4,""confidence"":2}","[0,1]","../img/tt/481tt.jpg","",""
"1893.9450000034412","","","recognition","survey-text","51","389384","0.0-6.0-3.6","3001255","co38449","norming","","","{""guess"":""dog""}","","../img/tt/481tt.jpg","",""
"null","../img/gs/481gs.jpg","null","reveal","image-keyboard-response","52","391387","0.0-6.0-4.6","3001255","co38449","norming","","","","","","",""
"null","../img/tt/481tt.jpg","null","mooney2","image-keyboard-response","53","393397","0.0-6.0-5.6","3001255","co38449","norming","","","","","","",""
"2668.804999993881","","","post_reveal_questions","survey-likert","54","396068","0.0-6.0-6.6","3001255","co38449","norming","","","{""aha"":2}","[0]","../img/tt/481tt.jpg","",""
"null","<div style=""font-size:60px;""> </div>","null","fixation","html-keyboard-response","55","396281","0.0-6.0-0.7","3001255","co38449","norming","","","","","","",""
"null","../img/tt/1024tt.jpg","null","mooney1","image-keyboard-response","56","399288","0.0-6.0-1.7","3001255","co38449","norming","","","","","","",""
"7596.26500000013","","","post_mooney1_questions","survey-likert","57","406886","0.0-6.0-2.7","3001255","co38449","norming","","","{""curiosity"":5,""confidence"":1}","[0,1]","../img/tt/1024tt.jpg","",""
"9355.930000005173","","","recognition","survey-text","58","416245","0.0-6.0-3.7","3001255","co38449","norming","","","{""guess"":""athlete""}","","../img/tt/1024tt.jpg","",""
"null","../img/gs/1024gs.jpg","null","reveal","image-keyboard-response","59","418253","0.0-6.0-4.7","3001255","co38449","norming","","","","","","",""
"null","../img/tt/1024tt.jpg","null","mooney2","image-keyboard-response","60","420254","0.0-6.0-5.7","3001255","co38449","norming","","","","","","",""
"4497.560000003432","","","post_reveal_questions","survey-likert","61","424754","0.0-6.0-6.7","3001255","co38449","norming","","","{""aha"":4}","[0]","../img/tt/1024tt.jpg","",""
"null","<div style=""font-size:60px;""> </div>","null","fixation","html-keyboard-response","62","424956","0.0-6.0-0.8","3001255","co38449","norming","","","","","","",""
"null","../img/tt/1239tt.jpg","null","mooney1","image-keyboard-response","63","427959","0.0-6.0-1.8","3001255","co38449","norming","","","","","","",""
"6844.075000000885","","","post_mooney1_questions","survey-likert","64","434805","0.0-6.0-2.8","3001255","co38449","norming","","","{""curiosity"":4,""confidence"":3}","[0,1]","../img/tt/1239tt.jpg","",""
"1354.6499999938533","","","recognition","survey-text","65","436163","0.0-6.0-3.8","3001255","co38449","norming","","","{""guess"":""dog""}","","../img/tt/1239tt.jpg","",""
"null","../img/gs/1239gs.jpg","null","reveal","image-keyboard-response","66","438168","0.0-6.0-4.8","3001255","co38449","norming","","","","","","",""
"null","../img/tt/1239tt.jpg","null","mooney2","image-keyboard-response","67","440180","0.0-6.0-5.8","3001255","co38449","norming","","","","","","",""
"3551.8000000010943","","","post_reveal_questions","survey-likert","68","443734","0.0-6.0-6.8","3001255","co38449","norming","","","{""aha"":1}","[0]","../img/tt/1239tt.jpg","",""
"null","<div style=""font-size:60px;""> </div>","null","fixation","html-keyboard-response","69","443945","0.0-6.0-0.9","3001255","co38449","norming","","","","","","",""
"null","../img/tt/549tt.jpg","null","mooney1","image-keyboard-response","70","446968","0.0-6.0-1.9","3001255","co38449","norming","","","","","","",""
"6875.455000001239","","","post_mooney1_questions","survey-likert","71","453846","0.0-6.0-2.9","3001255","co38449","norming","","","{""curiosity"":6,""confidence"":0}","[0,1]","../img/tt/549tt.jpg","",""
"1835.5900000024121","","","recognition","survey-text","72","455685","0.0-6.0-3.9","3001255","co38449","norming","","","{""guess"":""bird""}","","../img/tt/549tt.jpg","",""
"null","../img/gs/549gs.jpg","null","reveal","image-keyboard-response","73","457687","0.0-6.0-4.9","3001255","co38449","norming","","","","","","",""
"null","../img/tt/549tt.jpg","null","mooney2","image-keyboard-response","74","459690","0.0-6.0-5.9","3001255","co38449","norming","","","","","","",""
"3443.2050000032177","","","post_reveal_questions","survey-likert","75","463135","0.0-6.0-6.9","3001255","co38449","norming","","","{""aha"":6}","[0]","../img/tt/549tt.jpg","",""
"null","<div style=""font-size:60px;""> </div>","null","fixation","html-keyboard-response","76","463339","0.0-6.0-0.10","3001255","co38449","norming","","","","","","",""
"null","../img/tt/584tt.jpg","null","mooney1","image-keyboard-response","77","466343","0.0-6.0-1.10","3001255","co38449","norming","","","","","","",""
"4597.550000005867","","","post_mooney1_questions","survey-likert","78","470943","0.0-6.0-2.10","3001255","co38449","norming","","","{""curiosity"":4,""confidence"":2}","[0,1]","../img/tt/584tt.jpg","",""
"1493.4250000078464","","","recognition","survey-text","79","472439","0.0-6.0-3.10","3001255","co38449","norming","","","{""guess"":""hands""}","","../img/tt/584tt.jpg","",""
"null","../img/gs/584gs.jpg","null","reveal","image-keyboard-response","80","474444","0.0-6.0-4.10","3001255","co38449","norming","","","","","","",""
"null","../img/tt/584tt.jpg","null","mooney2","image-keyboard-response","81","476450","0.0-6.0-5.10","3001255","co38449","norming","","","","","","",""
"2282.1699999913108","","","post_reveal_questions","survey-likert","82","478733","0.0-6.0-6.10","3001255","co38449","norming","","","{""aha"":5}","[0]","../img/tt/584tt.jpg","",""
"null","<div style=""font-size:60px;""> </div>","null","fixation","html-keyboard-response","83","478951","0.0-6.0-0.11","3001255","co38449","norming","","","","","","",""
"null","../img/tt/378tt.jpg","null","mooney1","image-keyboard-response","84","481954","0.0-6.0-1.11","3001255","co38449","norming","","","","","","",""
"7268.669999990379","","","post_mooney1_questions","survey-likert","85","489225","0.0-6.0-2.11","3001255","co38449","norming","","","{""curiosity"":6,""confidence"":0}","[0,1]","../img/tt/378tt.jpg","",""
"12647.004999991623","","","recognition","survey-text","86","501875","0.0-6.0-3.11","3001255","co38449","norming","","","{""guess"":""wool""}","","../img/tt/378tt.jpg","",""
"null","../img/gs/378gs.jpg","null","reveal","image-keyboard-response","87","503877","0.0-6.0-4.11","3001255","co38449","norming","","","","","","",""
"null","../img/tt/378tt.jpg","null","mooney2","image-keyboard-response","88","505883","0.0-6.0-5.11","3001255","co38449","norming","","","","","","",""
"4002.8049999964423","","","post_reveal_questions","survey-likert","89","509890","0.0-6.0-6.11","3001255","co38449","norming","","","{""aha"":6}","[0]","../img/tt/378tt.jpg","",""
"null","<div style=""font-size:60px;""> </div>","null","fixation","html-keyboard-response","90","510093","0.0-6.0-0.12","3001255","co38449","norming","","","","","","",""
"null","../img/tt/1247tt.jpg","null","mooney1","image-keyboard-response","91","513105","0.0-6.0-1.12","3001255","co38449","norming","","","","","","",""
"4619.854999997187","","","post_mooney1_questions","survey-likert","92","517728","0.0-6.0-2.12","3001255","co38449","norming","","","{""curiosity"":6,""confidence"":0}","[0,1]","../img/tt/1247tt.jpg","",""
"6343.284999995376","","","recognition","survey-text","93","524074","0.0-6.0-3.12","3001255","co38449","norming","","","{""guess"":""""}","","../img/tt/1247tt.jpg","",""
"null","../img/gs/1247gs.jpg","null","reveal","image-keyboard-response","94","526078","0.0-6.0-4.12","3001255","co38449","norming","","","","","","",""
"null","../img/tt/1247tt.jpg","null","mooney2","image-keyboard-response","95","528082","0.0-6.0-5.12","3001255","co38449","norming","","","","","","",""
"3304.1749999974854","","","post_reveal_questions","survey-likert","96","531388","0.0-6.0-6.12","3001255","co38449","norming","","","{""aha"":6}","[0]","../img/tt/1247tt.jpg","",""
"null","<div style=""font-size:60px;""> </div>","null","fixation","html-keyboard-response","97","531591","0.0-6.0-0.13","3001255","co38449","norming","","","","","","",""
"null","../img/tt/1227tt.jpg","null","mooney1","image-keyboard-response","98","534602","0.0-6.0-1.13","3001255","co38449","norming","","","","","","",""
"5606.885000001057","","","post_mooney1_questions","survey-likert","99","540211","0.0-6.0-2.13","3001255","co38449","norming","","","{""curiosity"":5,""confidence"":1}","[0,1]","../img/tt/1227tt.jpg","",""
"10938.36499999452","","","recognition","survey-text","100","551153","0.0-6.0-3.13","3001255","co38449","norming","","","{""guess"":""gun""}","","../img/tt/1227tt.jpg","",""
"null","../img/gs/1227gs.jpg","null","reveal","image-keyboard-response","101","553155","0.0-6.0-4.13","3001255","co38449","norming","","","","","","",""
"null","../img/tt/1227tt.jpg","null","mooney2","image-keyboard-response","102","555161","0.0-6.0-5.13","3001255","co38449","norming","","","","","","",""
"2081.720000001951","","","post_reveal_questions","survey-likert","103","557245","0.0-6.0-6.13","3001255","co38449","norming","","","{""aha"":6}","[0]","../img/tt/1227tt.jpg","",""
"null","<div style=""font-size:60px;""> </div>","null","fixation","html-keyboard-response","104","557447","0.0-6.0-0.14","3001255","co38449","norming","","","","","","",""
"null","../img/tt/1237tt.jpg","null","mooney1","image-keyboard-response","105","560451","0.0-6.0-1.14","3001255","co38449","norming","","","","","","",""
"9030.775000006543","","","post_mooney1_questions","survey-likert","106","569484","0.0-6.0-2.14","3001255","co38449","norming","","","{""curiosity"":5,""confidence"":1}","[0,1]","../img/tt/1237tt.jpg","",""
"2783.8599999959115","","","recognition","survey-text","107","572271","0.0-6.0-3.14","3001255","co38449","norming","","","{""guess"":""fish""}","","../img/tt/1237tt.jpg","",""
"null","../img/gs/1237gs.jpg","null","reveal","image-keyboard-response","108","574273","0.0-6.0-4.14","3001255","co38449","norming","","","","","","",""
"null","../img/tt/1237tt.jpg","null","mooney2","image-keyboard-response","109","576301","0.0-6.0-5.14","3001255","co38449","norming","","","","","","",""
"2216.6300000099","","","post_reveal_questions","survey-likert","110","578520","0.0-6.0-6.14","3001255","co38449","norming","","","{""aha"":4}","[0]","../img/tt/1237tt.jpg","",""
"null","<div style=""font-size:60px;""> </div>","null","fixation","html-keyboard-response","111","578722","0.0-6.0-0.15","3001255","co38449","norming","","","","","","",""
"null","../img/tt/1097tt.jpg","null","mooney1","image-keyboard-response","112","581725","0.0-6.0-1.15","3001255","co38449","norming","","","","","","",""
"7325.33500000136","","","post_mooney1_questions","survey-likert","113","589052","0.0-6.0-2.15","3001255","co38449","norming","","","{""curiosity"":5,""confidence"":1}","[0,1]","../img/tt/1097tt.jpg","",""
"14830.295000007027","","","recognition","survey-text","114","603886","0.0-6.0-3.15","3001255","co38449","norming","","","{""guess"":""Flamingo""}","","../img/tt/1097tt.jpg","",""
"null","../img/gs/1097gs.jpg","null","reveal","image-keyboard-response","115","605888","0.0-6.0-4.15","3001255","co38449","norming","","","","","","",""
"null","../img/tt/1097tt.jpg","null","mooney2","image-keyboard-response","116","607892","0.0-6.0-5.15","3001255","co38449","norming","","","","","","",""
"3778.099999995902","","","post_reveal_questions","survey-likert","117","611671","0.0-6.0-6.15","3001255","co38449","norming","","","{""aha"":5}","[0]","../img/tt/1097tt.jpg","",""
"null","<div style=""font-size:60px;""> </div>","null","fixation","html-keyboard-response","118","611873","0.0-6.0-0.16","3001255","co38449","norming","","","","","","",""
"null","../img/tt/001tt.jpg","null","mooney1","image-keyboard-response","119","614879","0.0-6.0-1.16","3001255","co38449","norming","","","","","","",""
"4994.760000001406","","","post_mooney1_questions","survey-likert","120","619877","0.0-6.0-2.16","3001255","co38449","norming","","","{""curiosity"":4,""confidence"":2}","[0,1]","../img/tt/001tt.jpg","",""
"1611.5399999980582","","","recognition","survey-text","121","621492","0.0-6.0-3.16","3001255","co38449","norming","","","{""guess"":""cow""}","","../img/tt/001tt.jpg","",""
"null","../img/gs/001gs.jpg","null","reveal","image-keyboard-response","122","623495","0.0-6.0-4.16","3001255","co38449","norming","","","","","","",""
"null","../img/tt/001tt.jpg","null","mooney2","image-keyboard-response","123","625502","0.0-6.0-5.16","3001255","co38449","norming","","","","","","",""
"4161.924999993062","","","post_reveal_questions","survey-likert","124","629666","0.0-6.0-6.16","3001255","co38449","norming","","","{""aha"":6}","[0]","../img/tt/001tt.jpg","",""
"null","<div style=""font-size:60px;""> </div>","null","fixation","html-keyboard-response","125","629875","0.0-6.0-0.17","3001255","co38449","norming","","","","","","",""
"null","../img/tt/184tt.jpg","null","mooney1","image-keyboard-response","126","632879","0.0-6.0-1.17","3001255","co38449","norming","","","","","","",""
"4927.469999995083","","","post_mooney1_questions","survey-likert","127","637809","0.0-6.0-2.17","3001255","co38449","norming","","","{""curiosity"":4,""confidence"":2}","[0,1]","../img/tt/184tt.jpg","",""
"860.8500000118511","","","recognition","survey-text","128","638673","0.0-6.0-3.17","3001255","co38449","norming","","","{""guess"":""dog""}","","../img/tt/184tt.jpg","",""
"null","../img/gs/184gs.jpg","null","reveal","image-keyboard-response","129","640675","0.0-6.0-4.17","3001255","co38449","norming","","","","","","",""
"null","../img/tt/184tt.jpg","null","mooney2","image-keyboard-response","130","642682","0.0-6.0-5.17","3001255","co38449","norming","","","","","","",""
"3698.439999992843","","","post_reveal_questions","survey-likert","131","646383","0.0-6.0-6.17","3001255","co38449","norming","","","{""aha"":6}","[0]","../img/tt/184tt.jpg","",""
"null","<div style=""font-size:60px;""> </div>","null","fixation","html-keyboard-response","132","646585","0.0-6.0-0.18","3001255","co38449","norming","","","","","","",""
"null","../img/tt/1154tt.jpg","null","mooney1","image-keyboard-response","133","649590","0.0-6.0-1.18","3001255","co38449","norming","","","","","","",""
"5911.659999997937","","","post_mooney1_questions","survey-likert","134","655504","0.0-6.0-2.18","3001255","co38449","norming","","","{""curiosity"":5,""confidence"":1}","[0,1]","../img/tt/1154tt.jpg","",""
"3043.825000000652","","","recognition","survey-text","135","658551","0.0-6.0-3.18","3001255","co38449","norming","","","{""guess"":""wind surf""}","","../img/tt/1154tt.jpg","",""
"null","../img/gs/1154gs.jpg","null","reveal","image-keyboard-response","136","660557","0.0-6.0-4.18","3001255","co38449","norming","","","","","","",""
"null","../img/tt/1154tt.jpg","null","mooney2","image-keyboard-response","137","662560","0.0-6.0-5.18","3001255","co38449","norming","","","","","","",""
"2930.4899999988265","","","post_reveal_questions","survey-likert","138","665491","0.0-6.0-6.18","3001255","co38449","norming","","","{""aha"":4}","[0]","../img/tt/1154tt.jpg","",""
"null","<div style=""font-size:60px;""> </div>","null","fixation","html-keyboard-response","139","665694","0.0-6.0-0.19","3001255","co38449","norming","","","","","","",""
"null","../img/tt/1040tt.jpg","null","mooney1","image-keyboard-response","140","668697","0.0-6.0-1.19","3001255","co38449","norming","","","","","","",""
"5483.775000000605","","","post_mooney1_questions","survey-likert","141","674183","0.0-6.0-2.19","3001255","co38449","norming","","","{""curiosity"":6,""confidence"":0}","[0,1]","../img/tt/1040tt.jpg","",""
"11012.484999999288","","","recognition","survey-text","142","685199","0.0-6.0-3.19","3001255","co38449","norming","","","{""guess"":""crocodile""}","","../img/tt/1040tt.jpg","",""
"null","../img/gs/1040gs.jpg","null","reveal","image-keyboard-response","143","687208","0.0-6.0-4.19","3001255","co38449","norming","","","","","","",""
"null","../img/tt/1040tt.jpg","null","mooney2","image-keyboard-response","144","689215","0.0-6.0-5.19","3001255","co38449","norming","","","","","","",""
"1982.7500000101281","","","post_reveal_questions","survey-likert","145","691200","0.0-6.0-6.19","3001255","co38449","norming","","","{""aha"":6}","[0]","../img/tt/1040tt.jpg","",""
"null","<div style=""font-size:60px;""> </div>","null","fixation","html-keyboard-response","146","691404","0.0-6.0-0.20","3001255","co38449","norming","","","","","","",""
"null","../img/tt/1189tt.jpg","null","mooney1","image-keyboard-response","147","694422","0.0-6.0-1.20","3001255","co38449","norming","","","","","","",""
"7724.199999996927","","","post_mooney1_questions","survey-likert","148","702148","0.0-6.0-2.20","3001255","co38449","norming","","","{""curiosity"":5,""confidence"":1}","[0,1]","../img/tt/1189tt.jpg","",""
"2790.629999988596","","","recognition","survey-text","149","704942","0.0-6.0-3.20","3001255","co38449","norming","","","{""guess"":""bear""}","","../img/tt/1189tt.jpg","",""
"null","../img/gs/1189gs.jpg","null","reveal","image-keyboard-response","150","706944","0.0-6.0-4.20","3001255","co38449","norming","","","","","","",""
"null","../img/tt/1189tt.jpg","null","mooney2","image-keyboard-response","151","708948","0.0-6.0-5.20","3001255","co38449","norming","","","","","","",""
"3569.1200000001118","","","post_reveal_questions","survey-likert","152","712519","0.0-6.0-6.20","3001255","co38449","norming","","","{""aha"":5}","[0]","../img/tt/1189tt.jpg","",""
"null","<div style=""font-size:60px;""> </div>","null","fixation","html-keyboard-response","153","712721","0.0-6.0-0.21","3001255","co38449","norming","","","","","","",""
"null","../img/tt/1270tt.jpg","null","mooney1","image-keyboard-response","154","715727","0.0-6.0-1.21","3001255","co38449","norming","","","","","","",""
"5549.555000005057","","","post_mooney1_questions","survey-likert","155","721279","0.0-6.0-2.21","3001255","co38449","norming","","","{""curiosity"":4,""confidence"":2}","[0,1]","../img/tt/1270tt.jpg","",""
"3265.834999998333","","","recognition","survey-text","156","724548","0.0-6.0-3.21","3001255","co38449","norming","","","{""guess"":""Elephant""}","","../img/tt/1270tt.jpg","",""
"null","../img/gs/1270gs.jpg","null","reveal","image-keyboard-response","157","726554","0.0-6.0-4.21","3001255","co38449","norming","","","","","","",""
"null","../img/tt/1270tt.jpg","null","mooney2","image-keyboard-response","158","728556","0.0-6.0-5.21","3001255","co38449","norming","","","","","","",""
"3690.94000000041","","","post_reveal_questions","survey-likert","159","732249","0.0-6.0-6.21","3001255","co38449","norming","","","{""aha"":5}","[0]","../img/tt/1270tt.jpg","",""
"null","<div style=""font-size:60px;""> </div>","null","fixation","html-keyboard-response","160","732467","0.0-6.0-0.22","3001255","co38449","norming","","","","","","",""
"null","../img/tt/1086tt.jpg","null","mooney1","image-keyboard-response","161","735470","0.0-6.0-1.22","3001255","co38449","norming","","","","","","",""
"5166.450000004261","","","post_mooney1_questions","survey-likert","162","740639","0.0-6.0-2.22","3001255","co38449","norming","","","{""curiosity"":6,""confidence"":0}","[0,1]","../img/tt/1086tt.jpg","",""
"10082.834999993793","","","recognition","survey-text","163","750725","0.0-6.0-3.22","3001255","co38449","norming","","","{""guess"":""bull""}","","../img/tt/1086tt.jpg","",""
"null","../img/gs/1086gs.jpg","null","reveal","image-keyboard-response","164","752741","0.0-6.0-4.22","3001255","co38449","norming","","","","","","",""
"null","../img/tt/1086tt.jpg","null","mooney2","image-keyboard-response","165","754747","0.0-6.0-5.22","3001255","co38449","norming","","","","","","",""
"4429.8799999960465","","","post_reveal_questions","survey-likert","166","759179","0.0-6.0-6.22","3001255","co38449","norming","","","{""aha"":6}","[0]","../img/tt/1086tt.jpg","",""
"null","<div style=""font-size:60px;""> </div>","null","fixation","html-keyboard-response","167","759382","0.0-6.0-0.23","3001255","co38449","norming","","","","","","",""
"null","../img/tt/559tt.jpg","null","mooney1","image-keyboard-response","168","762387","0.0-6.0-1.23","3001255","co38449","norming","","","","","","",""
"9357.480000006035","","","post_mooney1_questions","survey-likert","169","771747","0.0-6.0-2.23","3001255","co38449","norming","","","{""curiosity"":5,""confidence"":1}","[0,1]","../img/tt/559tt.jpg","",""
"16537.0649999968","","","recognition","survey-text","170","788288","0.0-6.0-3.23","3001255","co38449","norming","","","{""guess"":""hairdressing chair""}","","../img/tt/559tt.jpg","",""
"null","../img/gs/559gs.jpg","null","reveal","image-keyboard-response","171","790290","0.0-6.0-4.23","3001255","co38449","norming","","","","","","",""
"null","../img/tt/559tt.jpg","null","mooney2","image-keyboard-response","172","792297","0.0-6.0-5.23","3001255","co38449","norming","","","","","","",""
"2938.5800000018207","","","post_reveal_questions","survey-likert","173","795238","0.0-6.0-6.23","3001255","co38449","norming","","","{""aha"":6}","[0]","../img/tt/559tt.jpg","",""
"null","<div style=""font-size:60px;""> </div>","null","fixation","html-keyboard-response","174","795439","0.0-6.0-0.24","3001255","co38449","norming","","","","","","",""
"null","../img/tt/1224tt.jpg","null","mooney1","image-keyboard-response","175","798457","0.0-6.0-1.24","3001255","co38449","norming","","","","","","",""
"5697.7049999986775","","","post_mooney1_questions","survey-likert","176","804158","0.0-6.0-2.24","3001255","co38449","norming","","","{""curiosity"":5,""confidence"":1}","[0,1]","../img/tt/1224tt.jpg","",""
"13039.75999999966","","","recognition","survey-text","177","817200","0.0-6.0-3.24","3001255","co38449","norming","","","{""guess"":""disabled person""}","","../img/tt/1224tt.jpg","",""
"null","../img/gs/1224gs.jpg","null","reveal","image-keyboard-response","178","819216","0.0-6.0-4.24","3001255","co38449","norming","","","","","","",""
"null","../img/tt/1224tt.jpg","null","mooney2","image-keyboard-response","179","821223","0.0-6.0-5.24","3001255","co38449","norming","","","","","","",""
"2464.255000013509","","","post_reveal_questions","survey-likert","180","823689","0.0-6.0-6.24","3001255","co38449","norming","","","{""aha"":6}","[0]","../img/tt/1224tt.jpg","",""
"null","<div style=""font-size:60px;""> </div>","null","fixation","html-keyboard-response","181","823897","0.0-6.0-0.25","3001255","co38449","norming","","","","","","",""
"null","../img/tt/329tt.jpg","null","mooney1","image-keyboard-response","182","826900","0.0-6.0-1.25","3001255","co38449","norming","","","","","","",""
"5451.885000002221","","","post_mooney1_questions","survey-likert","183","832354","0.0-6.0-2.25","3001255","co38449","norming","","","{""curiosity"":5,""confidence"":1}","[0,1]","../img/tt/329tt.jpg","",""
"11469.854999988456","","","recognition","survey-text","184","843827","0.0-6.0-3.25","3001255","co38449","norming","","","{""guess"":""rabbit""}","","../img/tt/329tt.jpg","",""
"null","../img/gs/329gs.jpg","null","reveal","image-keyboard-response","185","845843","0.0-6.0-4.25","3001255","co38449","norming","","","","","","",""
"null","../img/tt/329tt.jpg","null","mooney2","image-keyboard-response","186","847846","0.0-6.0-5.25","3001255","co38449","norming","","","","","","",""
"3073.8899999996647","","","post_reveal_questions","survey-likert","187","850921","0.0-6.0-6.25","3001255","co38449","norming","","","{""aha"":5}","[0]","../img/tt/329tt.jpg","",""
"null","<div style=""font-size:60px;""> </div>","null","fixation","html-keyboard-response","188","851126","0.0-6.0-0.26","3001255","co38449","norming","","","","","","",""
"null","../img/tt/1069tt.jpg","null","mooney1","image-keyboard-response","189","854134","0.0-6.0-1.26","3001255","co38449","norming","","","","","","",""
"7004.570000004605","","","post_mooney1_questions","survey-likert","190","861141","0.0-6.0-2.26","3001255","co38449","norming","","","{""curiosity"":5,""confidence"":2}","[0,1]","../img/tt/1069tt.jpg","",""
"1681.4849999936996","","","recognition","survey-text","191","862826","0.0-6.0-3.26","3001255","co38449","norming","","","{""guess"":""sheep""}","","../img/tt/1069tt.jpg","",""
"null","../img/gs/1069gs.jpg","null","reveal","image-keyboard-response","192","864830","0.0-6.0-4.26","3001255","co38449","norming","","","","","","",""
"null","../img/tt/1069tt.jpg","null","mooney2","image-keyboard-response","193","866833","0.0-6.0-5.26","3001255","co38449","norming","","","","","","",""
"2594.584999998915","","","post_reveal_questions","survey-likert","194","869430","0.0-6.0-6.26","3001255","co38449","norming","","","{""aha"":3}","[0]","../img/tt/1069tt.jpg","",""
"null","<div style=""font-size:60px;""> </div>","null","fixation","html-keyboard-response","195","869633","0.0-6.0-0.27","3001255","co38449","norming","","","","","","",""
"null","../img/tt/194tt.jpg","null","mooney1","image-keyboard-response","196","872636","0.0-6.0-1.27","3001255","co38449","norming","","","","","","",""
"5712.064999999711","","","post_mooney1_questions","survey-likert","197","878350","0.0-6.0-2.27","3001255","co38449","norming","","","{""curiosity"":5,""confidence"":2}","[0,1]","../img/tt/194tt.jpg","",""
"2517.200000002049","","","recognition","survey-text","198","880871","0.0-6.0-3.27","3001255","co38449","norming","","","{""guess"":""lady""}","","../img/tt/194tt.jpg","",""
"null","../img/gs/194gs.jpg","null","reveal","image-keyboard-response","199","882873","0.0-6.0-4.27","3001255","co38449","norming","","","","","","",""
"null","../img/tt/194tt.jpg","null","mooney2","image-keyboard-response","200","884877","0.0-6.0-5.27","3001255","co38449","norming","","","","","","",""
"4217.700000008335","","","post_reveal_questions","survey-likert","201","889097","0.0-6.0-6.27","3001255","co38449","norming","","","{""aha"":4}","[0]","../img/tt/194tt.jpg","",""
"null","<div style=""font-size:60px;""> </div>","null","fixation","html-keyboard-response","202","889303","0.0-6.0-0.28","3001255","co38449","norming","","","","","","",""
"null","../img/tt/064tt.jpg","null","mooney1","image-keyboard-response","203","892315","0.0-6.0-1.28","3001255","co38449","norming","","","","","","",""
"6113.865000006626","","","post_mooney1_questions","survey-likert","204","898432","0.0-6.0-2.28","3001255","co38449","norming","","","{""curiosity"":6,""confidence"":0}","[0,1]","../img/tt/064tt.jpg","",""
"2791.510000010021","","","recognition","survey-text","205","901226","0.0-6.0-3.28","3001255","co38449","norming","","","{""guess"":""lion""}","","../img/tt/064tt.jpg","",""
"null","../img/gs/064gs.jpg","null","reveal","image-keyboard-response","206","903231","0.0-6.0-4.28","3001255","co38449","norming","","","","","","",""
"null","../img/tt/064tt.jpg","null","mooney2","image-keyboard-response","207","905243","0.0-6.0-5.28","3001255","co38449","norming","","","","","","",""
"3497.1999999979744","","","post_reveal_questions","survey-likert","208","908742","0.0-6.0-6.28","3001255","co38449","norming","","","{""aha"":6}","[0]","../img/tt/064tt.jpg","",""
"null","<div style=""font-size:60px;""> </div>","null","fixation","html-keyboard-response","209","908946","0.0-6.0-0.29","3001255","co38449","norming","","","","","","",""
"null","../img/tt/1211tt.jpg","null","mooney1","image-keyboard-response","210","911949","0.0-6.0-1.29","3001255","co38449","norming","","","","","","",""
"7539.835000003222","","","post_mooney1_questions","survey-likert","211","919492","0.0-6.0-2.29","3001255","co38449","norming","","","{""curiosity"":5,""confidence"":1}","[0,1]","../img/tt/1211tt.jpg","",""
"910.9349999926053","","","recognition","survey-text","212","920406","0.0-6.0-3.29","3001255","co38449","norming","","","{""guess"":""jeep""}","","../img/tt/1211tt.jpg","",""
"null","../img/gs/1211gs.jpg","null","reveal","image-keyboard-response","213","922422","0.0-6.0-4.29","3001255","co38449","norming","","","","","","",""
"null","../img/tt/1211tt.jpg","null","mooney2","image-keyboard-response","214","924429","0.0-6.0-5.29","3001255","co38449","norming","","","","","","",""
"2804.2650000134017","","","post_reveal_questions","survey-likert","215","927235","0.0-6.0-6.29","3001255","co38449","norming","","","{""aha"":5}","[0]","../img/tt/1211tt.jpg","",""
"null","<div style=""font-size:60px;""> </div>","null","fixation","html-keyboard-response","216","927437","0.0-6.0-0.30","3001255","co38449","norming","","","","","","",""
"null","../img/tt/1260tt.jpg","null","mooney1","image-keyboard-response","217","930456","0.0-6.0-1.30","3001255","co38449","norming","","","","","","",""
"4950.289999993402","","","post_mooney1_questions","survey-likert","218","935408","0.0-6.0-2.30","3001255","co38449","norming","","","{""curiosity"":4,""confidence"":2}","[0,1]","../img/tt/1260tt.jpg","",""
"11005.58500000625","","","recognition","survey-text","219","946416","0.0-6.0-3.30","3001255","co38449","norming","","","{""guess"":""tiger""}","","../img/tt/1260tt.jpg","",""
"null","../img/gs/1260gs.jpg","null","reveal","image-keyboard-response","220","948429","0.0-6.0-4.30","3001255","co38449","norming","","","","","","",""
"null","../img/tt/1260tt.jpg","null","mooney2","image-keyboard-response","221","950440","0.0-6.0-5.30","3001255","co38449","norming","","","","","","",""
"2509.6749999938766","","","post_reveal_questions","survey-likert","222","952951","0.0-6.0-6.30","3001255","co38449","norming","","","{""aha"":6}","[0]","../img/tt/1260tt.jpg","",""
"null","<div style=""font-size:60px;""> </div>","null","fixation","html-keyboard-response","223","953155","0.0-6.0-0.31","3001255","co38449","norming","","","","","","",""
"null","../img/tt/1171tt.jpg","null","mooney1","image-keyboard-response","224","956159","0.0-6.0-1.31","3001255","co38449","norming","","","","","","",""
"4235.310000003665","","","post_mooney1_questions","survey-likert","225","960397","0.0-6.0-2.31","3001255","co38449","norming","","","{""curiosity"":5,""confidence"":2}","[0,1]","../img/tt/1171tt.jpg","",""
"1300.2100000012433","","","recognition","survey-text","226","961700","0.0-6.0-3.31","3001255","co38449","norming","","","{""guess"":""panda""}","","../img/tt/1171tt.jpg","",""
"null","../img/gs/1171gs.jpg","null","reveal","image-keyboard-response","227","963705","0.0-6.0-4.31","3001255","co38449","norming","","","","","","",""
"null","../img/tt/1171tt.jpg","null","mooney2","image-keyboard-response","228","965711","0.0-6.0-5.31","3001255","co38449","norming","","","","","","",""
"5440.040000001318","","","post_reveal_questions","survey-likert","229","971153","0.0-6.0-6.31","3001255","co38449","norming","","","{""aha"":5}","[0]","../img/tt/1171tt.jpg","",""
"null","<div style=""font-size:60px;""> </div>","null","fixation","html-keyboard-response","230","971355","0.0-6.0-0.32","3001255","co38449","norming","","","","","","",""
"null","../img/tt/1196tt.jpg","null","mooney1","image-keyboard-response","231","974359","0.0-6.0-1.32","3001255","co38449","norming","","","","","","",""
"6313.32499999553","","","post_mooney1_questions","survey-likert","232","980675","0.0-6.0-2.32","3001255","co38449","norming","","","{""curiosity"":5,""confidence"":2}","[0,1]","../img/tt/1196tt.jpg","",""
"16702.625000005355","","","recognition","survey-text","233","997381","0.0-6.0-3.32","3001255","co38449","norming","","","{""guess"":""gymnaste""}","","../img/tt/1196tt.jpg","",""
"null","../img/gs/1196gs.jpg","null","reveal","image-keyboard-response","234","999383","0.0-6.0-4.32","3001255","co38449","norming","","","","","","",""
"null","../img/tt/1196tt.jpg","null","mooney2","image-keyboard-response","235","1001389","0.0-6.0-5.32","3001255","co38449","norming","","","","","","",""
"2067.494999995688","","","post_reveal_questions","survey-likert","236","1003459","0.0-6.0-6.32","3001255","co38449","norming","","","{""aha"":4}","[0]","../img/tt/1196tt.jpg","",""
"null","<div style=""font-size:60px;""> </div>","null","fixation","html-keyboard-response","237","1003664","0.0-6.0-0.33","3001255","co38449","norming","","","","","","",""
"null","../img/tt/1118tt.jpg","null","mooney1","image-keyboard-response","238","1006675","0.0-6.0-1.33","3001255","co38449","norming","","","","","","",""
"4457.515000001877","","","post_mooney1_questions","survey-likert","239","1011135","0.0-6.0-2.33","3001255","co38449","norming","","","{""curiosity"":5,""confidence"":2}","[0,1]","../img/tt/1118tt.jpg","",""
"1159.879999991972","","","recognition","survey-text","240","1012298","0.0-6.0-3.33","3001255","co38449","norming","","","{""guess"":""boat""}","","../img/tt/1118tt.jpg","",""
"null","../img/gs/1118gs.jpg","null","reveal","image-keyboard-response","241","1014304","0.0-6.0-4.33","3001255","co38449","norming","","","","","","",""
"null","../img/tt/1118tt.jpg","null","mooney2","image-keyboard-response","242","1016320","0.0-6.0-5.33","3001255","co38449","norming","","","","","","",""
"3654.0899999963585","","","post_reveal_questions","survey-likert","243","1019976","0.0-6.0-6.33","3001255","co38449","norming","","","{""aha"":5}","[0]","../img/tt/1118tt.jpg","",""
"null","<div style=""font-size:60px;""> </div>","null","fixation","html-keyboard-response","244","1020179","0.0-6.0-0.34","3001255","co38449","norming","","","","","","",""
"null","../img/tt/306tt.jpg","null","mooney1","image-keyboard-response","245","1023187","0.0-6.0-1.34","3001255","co38449","norming","","","","","","",""
"4562.0100000087405","","","post_mooney1_questions","survey-likert","246","1027752","0.0-6.0-2.34","3001255","co38449","norming","","","{""curiosity"":6,""confidence"":0}","[0,1]","../img/tt/306tt.jpg","",""
"1302.2649999911664","","","recognition","survey-text","247","1029057","0.0-6.0-3.34","3001255","co38449","norming","","","{""guess"":""""}","","../img/tt/306tt.jpg","",""
"null","../img/gs/306gs.jpg","null","reveal","image-keyboard-response","248","1031063","0.0-6.0-4.34","3001255","co38449","norming","","","","","","",""
"null","../img/tt/306tt.jpg","null","mooney2","image-keyboard-response","249","1033066","0.0-6.0-5.34","3001255","co38449","norming","","","","","","",""
"3594.9450000043726","","","post_reveal_questions","survey-likert","250","1036663","0.0-6.0-6.34","3001255","co38449","norming","","","{""aha"":6}","[0]","../img/tt/306tt.jpg","",""
"null","<div style=""font-size:60px;""> </div>","null","fixation","html-keyboard-response","251","1036879","0.0-6.0-0.35","3001255","co38449","norming","","","","","","",""
"null","../img/tt/1202tt.jpg","null","mooney1","image-keyboard-response","252","1039887","0.0-6.0-1.35","3001255","co38449","norming","","","","","","",""
"5392.959999997402","","","post_mooney1_questions","survey-likert","253","1045284","0.0-6.0-2.35","3001255","co38449","norming","","","{""curiosity"":5,""confidence"":1}","[0,1]","../img/tt/1202tt.jpg","",""
"7427.38500000257","","","recognition","survey-text","254","1052714","0.0-6.0-3.35","3001255","co38449","norming","","","{""guess"":""stable""}","","../img/tt/1202tt.jpg","",""
"null","../img/gs/1202gs.jpg","null","reveal","image-keyboard-response","255","1054718","0.0-6.0-4.35","3001255","co38449","norming","","","","","","",""
"null","../img/tt/1202tt.jpg","null","mooney2","image-keyboard-response","256","1056719","0.0-6.0-5.35","3001255","co38449","norming","","","","","","",""
"2583.374999987427","","","post_reveal_questions","survey-likert","257","1059305","0.0-6.0-6.35","3001255","co38449","norming","","","{""aha"":6}","[0]","../img/tt/1202tt.jpg","",""
"null","<div style=""font-size:60px;""> </div>","null","fixation","html-keyboard-response","258","1059513","0.0-6.0-0.36","3001255","co38449","norming","","","","","","",""
"null","../img/tt/507tt.jpg","null","mooney1","image-keyboard-response","259","1062516","0.0-6.0-1.36","3001255","co38449","norming","","","","","","",""
"5698.230000009062","","","post_mooney1_questions","survey-likert","260","1068217","0.0-6.0-2.36","3001255","co38449","norming","","","{""curiosity"":5,""confidence"":1}","[0,1]","../img/tt/507tt.jpg","",""
"5061.91499999864","","","recognition","survey-text","261","1073282","0.0-6.0-3.36","3001255","co38449","norming","","","{""guess"":""kolonel""}","","../img/tt/507tt.jpg","",""
"null","../img/gs/507gs.jpg","null","reveal","image-keyboard-response","262","1075296","0.0-6.0-4.36","3001255","co38449","norming","","","","","","",""
"null","../img/tt/507tt.jpg","null","mooney2","image-keyboard-response","263","1077301","0.0-6.0-5.36","3001255","co38449","norming","","","","","","",""
"2814.1650000035297","","","post_reveal_questions","survey-likert","264","1080117","0.0-6.0-6.36","3001255","co38449","norming","","","{""aha"":5}","[0]","../img/tt/507tt.jpg","",""
"null","<div style=""font-size:60px;""> </div>","null","fixation","html-keyboard-response","265","1080321","0.0-6.0-0.37","3001255","co38449","norming","","","","","","",""
"null","../img/tt/406tt.jpg","null","mooney1","image-keyboard-response","266","1083324","0.0-6.0-1.37","3001255","co38449","norming","","","","","","",""
"5018.600000010338","","","post_mooney1_questions","survey-likert","267","1088345","0.0-6.0-2.37","3001255","co38449","norming","","","{""curiosity"":5,""confidence"":2}","[0,1]","../img/tt/406tt.jpg","",""
"2463.1050000027753","","","recognition","survey-text","268","1090811","0.0-6.0-3.37","3001255","co38449","norming","","","{""guess"":""underware""}","","../img/tt/406tt.jpg","",""
"null","../img/gs/406gs.jpg","null","reveal","image-keyboard-response","269","1092814","0.0-6.0-4.37","3001255","co38449","norming","","","","","","",""
"null","../img/tt/406tt.jpg","null","mooney2","image-keyboard-response","270","1094816","0.0-6.0-5.37","3001255","co38449","norming","","","","","","",""
"3099.4950000022072","","","post_reveal_questions","survey-likert","271","1097918","0.0-6.0-6.37","3001255","co38449","norming","","","{""aha"":5}","[0]","../img/tt/406tt.jpg","",""
"null","<div style=""font-size:60px;""> </div>","null","fixation","html-keyboard-response","272","1098122","0.0-6.0-0.38","3001255","co38449","norming","","","","","","",""
"null","../img/tt/1027tt.jpg","null","mooney1","image-keyboard-response","273","1101136","0.0-6.0-1.38","3001255","co38449","norming","","","","","","",""
"4961.729999995558","","","post_mooney1_questions","survey-likert","274","1106100","0.0-6.0-2.38","3001255","co38449","norming","","","{""curiosity"":4,""confidence"":4}","[0,1]","../img/tt/1027tt.jpg","",""
"1423.1099999886937","","","recognition","survey-text","275","1107527","0.0-6.0-3.38","3001255","co38449","norming","","","{""guess"":""cow""}","","../img/tt/1027tt.jpg","",""
"null","../img/gs/1027gs.jpg","null","reveal","image-keyboard-response","276","1109530","0.0-6.0-4.38","3001255","co38449","norming","","","","","","",""
"null","../img/tt/1027tt.jpg","null","mooney2","image-keyboard-response","277","1111536","0.0-6.0-5.38","3001255","co38449","norming","","","","","","",""
"4387.975000005215","","","post_reveal_questions","survey-likert","278","1115927","0.0-6.0-6.38","3001255","co38449","norming","","","{""aha"":1}","[0]","../img/tt/1027tt.jpg","",""
"null","<div style=""font-size:60px;""> </div>","null","fixation","html-keyboard-response","279","1116128","0.0-6.0-0.39","3001255","co38449","norming","","","","","","",""
"null","../img/tt/082tt.jpg","null","mooney1","image-keyboard-response","280","1119135","0.0-6.0-1.39","3001255","co38449","norming","","","","","","",""
"4918.98999999091","","","post_mooney1_questions","survey-likert","281","1124057","0.0-6.0-2.39","3001255","co38449","norming","","","{""curiosity"":4,""confidence"":2}","[0,1]","../img/tt/082tt.jpg","",""
"9440.585000004154","","","recognition","survey-text","282","1133501","0.0-6.0-3.39","3001255","co38449","norming","","","{""guess"":""giraffe""}","","../img/tt/082tt.jpg","",""
"null","../img/gs/082gs.jpg","null","reveal","image-keyboard-response","283","1135516","0.0-6.0-4.39","3001255","co38449","norming","","","","","","",""
"null","../img/tt/082tt.jpg","null","mooney2","image-keyboard-response","284","1137519","0.0-6.0-5.39","3001255","co38449","norming","","","","","","",""
"9658.905000003986","","","post_reveal_questions","survey-likert","285","1147180","0.0-6.0-6.39","3001255","co38449","norming","","","{""aha"":6}","[0]","../img/tt/082tt.jpg","",""
"null","<div style=""font-size:60px;""> </div>","null","fixation","html-keyboard-response","286","1147385","0.0-6.0-0.40","3001255","co38449","norming","","","","","","",""
"null","../img/tt/1290tt.jpg","null","mooney1","image-keyboard-response","287","1150401","0.0-6.0-1.40","3001255","co38449","norming","","","","","","",""
"18782.735000000568","","","post_mooney1_questions","survey-likert","288","1169187","0.0-6.0-2.40","3001255","co38449","norming","","","{""curiosity"":5,""confidence"":1}","[0,1]","../img/tt/1290tt.jpg","",""
"1714.950000008801","","","recognition","survey-text","289","1170906","0.0-6.0-3.40","3001255","co38449","norming","","","{""guess"":""ski lift""}","","../img/tt/1290tt.jpg","",""
"null","../img/gs/1290gs.jpg","null","reveal","image-keyboard-response","290","1172911","0.0-6.0-4.40","3001255","co38449","norming","","","","","","",""
"null","../img/tt/1290tt.jpg","null","mooney2","image-keyboard-response","291","1174917","0.0-6.0-5.40","3001255","co38449","norming","","","","","","",""
"2582.8649999895133","","","post_reveal_questions","survey-likert","292","1177502","0.0-6.0-6.40","3001255","co38449","norming","","","{""aha"":2}","[0]","../img/tt/1290tt.jpg","",""
"null","<div style=""font-size:60px;""> </div>","null","fixation","html-keyboard-response","293","1177707","0.0-6.0-0.41","3001255","co38449","norming","","","","","","",""
"null","../img/tt/222tt.jpg","null","mooney1","image-keyboard-response","294","1180709","0.0-6.0-1.41","3001255","co38449","norming","","","","","","",""
"5227.044999992242","","","post_mooney1_questions","survey-likert","295","1185939","0.0-6.0-2.41","3001255","co38449","norming","","","{""curiosity"":5,""confidence"":1}","[0,1]","../img/tt/222tt.jpg","",""
"1066.1099999996368","","","recognition","survey-text","296","1187009","0.0-6.0-3.41","3001255","co38449","norming","","","{""guess"":""boat""}","","../img/tt/222tt.jpg","",""
"null","../img/gs/222gs.jpg","null","reveal","image-keyboard-response","297","1189011","0.0-6.0-4.41","3001255","co38449","norming","","","","","","",""
"null","../img/tt/222tt.jpg","null","mooney2","image-keyboard-response","298","1191023","0.0-6.0-5.41","3001255","co38449","norming","","","","","","",""
"3665.5850000097416","","","post_reveal_questions","survey-likert","299","1194691","0.0-6.0-6.41","3001255","co38449","norming","","","{""aha"":4}","[0]","../img/tt/222tt.jpg","",""
"null","<div style=""font-size:60px;""> </div>","null","fixation","html-keyboard-response","300","1194895","0.0-6.0-0.42","3001255","co38449","norming","","","","","","",""
"null","../img/tt/1191tt.jpg","null","mooney1","image-keyboard-response","301","1197898","0.0-6.0-1.42","3001255","co38449","norming","","","","","","",""
"6779.03000000515","","","post_mooney1_questions","survey-likert","302","1204679","0.0-6.0-2.42","3001255","co38449","norming","","","{""curiosity"":5,""confidence"":2}","[0,1]","../img/tt/1191tt.jpg","",""
"9434.255000000121","","","recognition","survey-text","303","1214117","0.0-6.0-3.42","3001255","co38449","norming","","","{""guess"":""camel""}","","../img/tt/1191tt.jpg","",""
"null","../img/gs/1191gs.jpg","null","reveal","image-keyboard-response","304","1216120","0.0-6.0-4.42","3001255","co38449","norming","","","","","","",""
"null","../img/tt/1191tt.jpg","null","mooney2","image-keyboard-response","305","1218123","0.0-6.0-5.42","3001255","co38449","norming","","","","","","",""
"3232.0699999982025","","","post_reveal_questions","survey-likert","306","1221358","0.0-6.0-6.42","3001255","co38449","norming","","","{""aha"":6}","[0]","../img/tt/1191tt.jpg","",""
"null","<div style=""font-size:60px;""> </div>","null","fixation","html-keyboard-response","307","1221562","0.0-6.0-0.43","3001255","co38449","norming","","","","","","",""
"null","../img/tt/353tt.jpg","null","mooney1","image-keyboard-response","308","1224570","0.0-6.0-1.43","3001255","co38449","norming","","","","","","",""
"13392.3150000046","","","post_mooney1_questions","survey-likert","309","1237965","0.0-6.0-2.43","3001255","co38449","norming","","","{""curiosity"":4,""confidence"":1}","[0,1]","../img/tt/353tt.jpg","",""
"12641.920000009239","","","recognition","survey-text","310","1250610","0.0-6.0-3.43","3001255","co38449","norming","","","{""guess"":""hippoptamus""}","","../img/tt/353tt.jpg","",""
"null","../img/gs/353gs.jpg","null","reveal","image-keyboard-response","311","1252631","0.0-6.0-4.43","3001255","co38449","norming","","","","","","",""
"null","../img/tt/353tt.jpg","null","mooney2","image-keyboard-response","312","1254643","0.0-6.0-5.43","3001255","co38449","norming","","","","","","",""
"2026.9599999883212","","","post_reveal_questions","survey-likert","313","1256672","0.0-6.0-6.43","3001255","co38449","norming","","","{""aha"":5}","[0]","../img/tt/353tt.jpg","",""
"null","<div style=""font-size:60px;""> </div>","null","fixation","html-keyboard-response","314","1256888","0.0-6.0-0.44","3001255","co38449","norming","","","","","","",""
"null","../img/tt/1234tt.jpg","null","mooney1","image-keyboard-response","315","1259900","0.0-6.0-1.44","3001255","co38449","norming","","","","","","",""
"3732.1249999951106","","","post_mooney1_questions","survey-likert","316","1263635","0.0-6.0-2.44","3001255","co38449","norming","","","{""curiosity"":5,""confidence"":1}","[0,1]","../img/tt/1234tt.jpg","",""
"2223.210000010906","","","recognition","survey-text","317","1265861","0.0-6.0-3.44","3001255","co38449","norming","","","{""guess"":""lion""}","","../img/tt/1234tt.jpg","",""
"null","../img/gs/1234gs.jpg","null","reveal","image-keyboard-response","318","1267864","0.0-6.0-4.44","3001255","co38449","norming","","","","","","",""
"null","../img/tt/1234tt.jpg","null","mooney2","image-keyboard-response","319","1269868","0.0-6.0-5.44","3001255","co38449","norming","","","","","","",""
"2661.334999996936","","","post_reveal_questions","survey-likert","320","1272531","0.0-6.0-6.44","3001255","co38449","norming","","","{""aha"":5}","[0]","../img/tt/1234tt.jpg","",""
"null","<div style=""font-size:60px;""> </div>","null","fixation","html-keyboard-response","321","1272734","0.0-6.0-0.45","3001255","co38449","norming","","","","","","",""
"null","../img/tt/111tt.jpg","null","mooney1","image-keyboard-response","322","1275737","0.0-6.0-1.45","3001255","co38449","norming","","","","","","",""
"11928.834999998566","","","post_mooney1_questions","survey-likert","323","1287668","0.0-6.0-2.45","3001255","co38449","norming","","","{""curiosity"":6,""confidence"":1}","[0,1]","../img/tt/111tt.jpg","",""
"8211.290000006557","","","recognition","survey-text","324","1295883","0.0-6.0-3.45","3001255","co38449","norming","","","{""guess"":""octopus""}","","../img/tt/111tt.jpg","",""
"null","../img/gs/111gs.jpg","null","reveal","image-keyboard-response","325","1297899","0.0-6.0-4.45","3001255","co38449","norming","","","","","","",""
"null","../img/tt/111tt.jpg","null","mooney2","image-keyboard-response","326","1299903","0.0-6.0-5.45","3001255","co38449","norming","","","","","","",""
"2567.375000013504","","","post_reveal_questions","survey-likert","327","1302473","0.0-6.0-6.45","3001255","co38449","norming","","","{""aha"":6}","[0]","../img/tt/111tt.jpg","",""
"null","<div style=""font-size:60px;""> </div>","null","fixation","html-keyboard-response","328","1302690","0.0-6.0-0.46","3001255","co38449","norming","","","","","","",""
"null","../img/tt/1123tt.jpg","null","mooney1","image-keyboard-response","329","1305694","0.0-6.0-1.46","3001255","co38449","norming","","","","","","",""
"5068.190000005532","","","post_mooney1_questions","survey-likert","330","1310765","0.0-6.0-2.46","3001255","co38449","norming","","","{""curiosity"":4,""confidence"":2}","[0,1]","../img/tt/1123tt.jpg","",""
"5473.425000003772","","","recognition","survey-text","331","1316242","0.0-6.0-3.46","3001255","co38449","norming","","","{""guess"":""basketbal player""}","","../img/tt/1123tt.jpg","",""
"null","../img/gs/1123gs.jpg","null","reveal","image-keyboard-response","332","1318247","0.0-6.0-4.46","3001255","co38449","norming","","","","","","",""
"null","../img/tt/1123tt.jpg","null","mooney2","image-keyboard-response","333","1320252","0.0-6.0-5.46","3001255","co38449","norming","","","","","","",""
"2493.9099999899045","","","post_reveal_questions","survey-likert","334","1322748","0.0-6.0-6.46","3001255","co38449","norming","","","{""aha"":3}","[0]","../img/tt/1123tt.jpg","",""
"null","<div style=""font-size:60px;""> </div>","null","fixation","html-keyboard-response","335","1322952","0.0-6.0-0.47","3001255","co38449","norming","","","","","","",""
"null","../img/tt/296tt.jpg","null","mooney1","image-keyboard-response","336","1325961","0.0-6.0-1.47","3001255","co38449","norming","","","","","","",""
"17899.64499999769","","","post_mooney1_questions","survey-likert","337","1343864","0.0-6.0-2.47","3001255","co38449","norming","","","{""curiosity"":4,""confidence"":2}","[0,1]","../img/tt/296tt.jpg","",""
"3836.2399999895133","","","recognition","survey-text","338","1347703","0.0-6.0-3.47","3001255","co38449","norming","","","{""guess"":""doctor's table""}","","../img/tt/296tt.jpg","",""
"null","../img/gs/296gs.jpg","null","reveal","image-keyboard-response","339","1349709","0.0-6.0-4.47","3001255","co38449","norming","","","","","","",""
"null","../img/tt/296tt.jpg","null","mooney2","image-keyboard-response","340","1351711","0.0-6.0-5.47","3001255","co38449","norming","","","","","","",""
"2744.1700000052806","","","post_reveal_questions","survey-likert","341","1354457","0.0-6.0-6.47","3001255","co38449","norming","","","{""aha"":1}","[0]","../img/tt/296tt.jpg","",""
"null","<div style=""font-size:60px;""> </div>","null","fixation","html-keyboard-response","342","1354662","0.0-6.0-0.48","3001255","co38449","norming","","","","","","",""
"null","../img/tt/418tt.jpg","null","mooney1","image-keyboard-response","343","1357667","0.0-6.0-1.48","3001255","co38449","norming","","","","","","",""
"4593.869999997085","","","post_mooney1_questions","survey-likert","344","1362264","0.0-6.0-2.48","3001255","co38449","norming","","","{""curiosity"":5,""confidence"":2}","[0,1]","../img/tt/418tt.jpg","",""
"6708.824999994133","","","recognition","survey-text","345","1368976","0.0-6.0-3.48","3001255","co38449","norming","","","{""guess"":""tomato""}","","../img/tt/418tt.jpg","",""
"null","../img/gs/418gs.jpg","null","reveal","image-keyboard-response","346","1370979","0.0-6.0-4.48","3001255","co38449","norming","","","","","","",""
"null","../img/tt/418tt.jpg","null","mooney2","image-keyboard-response","347","1372981","0.0-6.0-5.48","3001255","co38449","norming","","","","","","",""
"2496.3649999990594","","","post_reveal_questions","survey-likert","348","1375479","0.0-6.0-6.48","3001255","co38449","norming","","","{""aha"":1}","[0]","../img/tt/418tt.jpg","",""
"null","<div style=""font-size:60px;""> </div>","null","fixation","html-keyboard-response","349","1375682","0.0-6.0-0.49","3001255","co38449","norming","","","","","","",""
"null","../img/tt/603tt.jpg","null","mooney1","image-keyboard-response","350","1378692","0.0-6.0-1.49","3001255","co38449","norming","","","","","","",""
"5160.80500000692","","","post_mooney1_questions","survey-likert","351","1383855","0.0-6.0-2.49","3001255","co38449","norming","","","{""curiosity"":4,""confidence"":2}","[0,1]","../img/tt/603tt.jpg","",""
"1518.8950000011828","","","recognition","survey-text","352","1385379","0.0-6.0-3.49","3001255","co38449","norming","","","{""guess"":""cat""}","","../img/tt/603tt.jpg","",""
"null","../img/gs/603gs.jpg","null","reveal","image-keyboard-response","353","1387384","0.0-6.0-4.49","3001255","co38449","norming","","","","","","",""
"null","../img/tt/603tt.jpg","null","mooney2","image-keyboard-response","354","1389389","0.0-6.0-5.49","3001255","co38449","norming","","","","","","",""
"1846.6500000068918","","","post_reveal_questions","survey-likert","355","1391238","0.0-6.0-6.49","3001255","co38449","norming","","","{""aha"":1}","[0]","../img/tt/603tt.jpg","",""
"null","<div style=""font-size:60px;""> </div>","null","fixation","html-keyboard-response","356","1391443","0.0-6.0-0.50","3001255","co38449","norming","","","","","","",""
"null","../img/tt/091tt.jpg","null","mooney1","image-keyboard-response","357","1394449","0.0-6.0-1.50","3001255","co38449","norming","","","","","","",""
"4355.159999991767","","","post_mooney1_questions","survey-likert","358","1398807","0.0-6.0-2.50","3001255","co38449","norming","","","{""curiosity"":4,""confidence"":2}","[0,1]","../img/tt/091tt.jpg","",""
"2851.994999989867","","","recognition","survey-text","359","1401663","0.0-6.0-3.50","3001255","co38449","norming","","","{""guess"":""crocodile""}","","../img/tt/091tt.jpg","",""
"null","../img/gs/091gs.jpg","null","reveal","image-keyboard-response","360","1403666","0.0-6.0-4.50","3001255","co38449","norming","","","","","","",""
"null","../img/tt/091tt.jpg","null","mooney2","image-keyboard-response","361","1405669","0.0-6.0-5.50","3001255","co38449","norming","","","","","","",""
"2010.8850000107195","","","post_reveal_questions","survey-likert","362","1407682","0.0-6.0-6.50","3001255","co38449","norming","","","{""aha"":4}","[0]","../img/tt/091tt.jpg","",""
"null","<div style=""font-size:60px;""> </div>","null","fixation","html-keyboard-response","363","1407899","0.0-6.0-0.51","3001255","co38449","norming","","","","","","",""
"null","../img/tt/1004tt.jpg","null","mooney1","image-keyboard-response","364","1410902","0.0-6.0-1.51","3001255","co38449","norming","","","","","","",""
"4607.065000003669","","","post_mooney1_questions","survey-likert","365","1415512","0.0-6.0-2.51","3001255","co38449","norming","","","{""curiosity"":4,""confidence"":2}","[0,1]","../img/tt/1004tt.jpg","",""
"2979.749999998603","","","recognition","survey-text","366","1418495","0.0-6.0-3.51","3001255","co38449","norming","","","{""guess"":""elephant""}","","../img/tt/1004tt.jpg","",""
"null","../img/gs/1004gs.jpg","null","reveal","image-keyboard-response","367","1420501","0.0-6.0-4.51","3001255","co38449","norming","","","","","","",""
"null","../img/tt/1004tt.jpg","null","mooney2","image-keyboard-response","368","1422512","0.0-6.0-5.51","3001255","co38449","norming","","","","","","",""
"2608.269999996992","","","post_reveal_questions","survey-likert","369","1425123","0.0-6.0-6.51","3001255","co38449","norming","","","{""aha"":1}","[0]","../img/tt/1004tt.jpg","",""
"null","<div style=""font-size:60px;""> </div>","null","fixation","html-keyboard-response","370","1425325","0.0-6.0-0.52","3001255","co38449","norming","","","","","","",""
"null","../img/tt/1226tt.jpg","null","mooney1","image-keyboard-response","371","1428330","0.0-6.0-1.52","3001255","co38449","norming","","","","","","",""
"4866.430000009015","","","post_mooney1_questions","survey-likert","372","1433199","0.0-6.0-2.52","3001255","co38449","norming","","","{""curiosity"":4,""confidence"":2}","[0,1]","../img/tt/1226tt.jpg","",""
"8548.735000003828","","","recognition","survey-text","373","1441751","0.0-6.0-3.52","3001255","co38449","norming","","","{""guess"":""gosse""}","","../img/tt/1226tt.jpg","",""
"null","../img/gs/1226gs.jpg","null","reveal","image-keyboard-response","374","1443760","0.0-6.0-4.52","3001255","co38449","norming","","","","","","",""
"null","../img/tt/1226tt.jpg","null","mooney2","image-keyboard-response","375","1445766","0.0-6.0-5.52","3001255","co38449","norming","","","","","","",""
"2621.4199999957345","","","post_reveal_questions","survey-likert","376","1448390","0.0-6.0-6.52","3001255","co38449","norming","","","{""aha"":3}","[0]","../img/tt/1226tt.jpg","",""
"null","<div style=""font-size:60px;""> </div>","null","fixation","html-keyboard-response","377","1448592","0.0-6.0-0.53","3001255","co38449","norming","","","","","","",""
"null","../img/tt/1236tt.jpg","null","mooney1","image-keyboard-response","378","1451595","0.0-6.0-1.53","3001255","co38449","norming","","","","","","",""
"4544.775000002235","","","post_mooney1_questions","survey-likert","379","1456143","0.0-6.0-2.53","3001255","co38449","norming","","","{""curiosity"":4,""confidence"":2}","[0,1]","../img/tt/1236tt.jpg","",""
"1831.7200000020675","","","recognition","survey-text","380","1457978","0.0-6.0-3.53","3001255","co38449","norming","","","{""guess"":""duck""}","","../img/tt/1236tt.jpg","",""
"null","../img/gs/1236gs.jpg","null","reveal","image-keyboard-response","381","1459987","0.0-6.0-4.53","3001255","co38449","norming","","","","","","",""
"null","../img/tt/1236tt.jpg","null","mooney2","image-keyboard-response","382","1461991","0.0-6.0-5.53","3001255","co38449","norming","","","","","","",""
"2447.094999995781","","","post_reveal_questions","survey-likert","383","1464441","0.0-6.0-6.53","3001255","co38449","norming","","","{""aha"":1}","[0]","../img/tt/1236tt.jpg","",""
"null","<div style=""font-size:60px;""> </div>","null","fixation","html-keyboard-response","384","1464644","0.0-6.0-0.54","3001255","co38449","norming","","","","","","",""
"null","../img/tt/307tt.jpg","null","mooney1","image-keyboard-response","385","1467653","0.0-6.0-1.54","3001255","co38449","norming","","","","","","",""
"5076.020000007935","","","post_mooney1_questions","survey-likert","386","1472732","0.0-6.0-2.54","3001255","co38449","norming","","","{""curiosity"":5,""confidence"":1}","[0,1]","../img/tt/307tt.jpg","",""
"6975.800000000047","","","recognition","survey-text","387","1479711","0.0-6.0-3.54","3001255","co38449","norming","","","{""guess"":""fox""}","","../img/tt/307tt.jpg","",""
"null","../img/gs/307gs.jpg","null","reveal","image-keyboard-response","388","1481714","0.0-6.0-4.54","3001255","co38449","norming","","","","","","",""
"null","../img/tt/307tt.jpg","null","mooney2","image-keyboard-response","389","1483719","0.0-6.0-5.54","3001255","co38449","norming","","","","","","",""
"2002.8049999964423","","","post_reveal_questions","survey-likert","390","1485724","0.0-6.0-6.54","3001255","co38449","norming","","","{""aha"":6}","[0]","../img/tt/307tt.jpg","",""
"null","<div style=""font-size:60px;""> </div>","null","fixation","html-keyboard-response","391","1485930","0.0-6.0-0.55","3001255","co38449","norming","","","","","","",""
"null","../img/tt/300tt.jpg","null","mooney1","image-keyboard-response","392","1488933","0.0-6.0-1.55","3001255","co38449","norming","","","","","","",""
"4425.099999993108","","","post_mooney1_questions","survey-likert","393","1493361","0.0-6.0-2.55","3001255","co38449","norming","","","{""curiosity"":4,""confidence"":2}","[0,1]","../img/tt/300tt.jpg","",""
"5912.070000005653","","","recognition","survey-text","394","1499276","0.0-6.0-3.55","3001255","co38449","norming","","","{""guess"":""monkey""}","","../img/tt/300tt.jpg","",""
"null","../img/gs/300gs.jpg","null","reveal","image-keyboard-response","395","1501279","0.0-6.0-4.55","3001255","co38449","norming","","","","","","",""
"null","../img/tt/300tt.jpg","null","mooney2","image-keyboard-response","396","1503283","0.0-6.0-5.55","3001255","co38449","norming","","","","","","",""
"3713.650000005262","","","post_reveal_questions","survey-likert","397","1506999","0.0-6.0-6.55","3001255","co38449","norming","","","{""aha"":4}","[0]","../img/tt/300tt.jpg","",""
"null","<div style=""font-size:60px;""> </div>","null","fixation","html-keyboard-response","398","1507215","0.0-6.0-0.56","3001255","co38449","norming","","","","","","",""
"null","../img/tt/1159tt.jpg","null","mooney1","image-keyboard-response","399","1510218","0.0-6.0-1.56","3001255","co38449","norming","","","","","","",""
"6482.39999999362","","","post_mooney1_questions","survey-likert","400","1516703","0.0-6.0-2.56","3001255","co38449","norming","","","{""curiosity"":5,""confidence"":1}","[0,1]","../img/tt/1159tt.jpg","",""
"1256.2349999933504","","","recognition","survey-text","401","1517963","0.0-6.0-3.56","3001255","co38449","norming","","","{""guess"":""train""}","","../img/tt/1159tt.jpg","",""
"null","../img/gs/1159gs.jpg","null","reveal","image-keyboard-response","402","1519979","0.0-6.0-4.56","3001255","co38449","norming","","","","","","",""
"null","../img/tt/1159tt.jpg","null","mooney2","image-keyboard-response","403","1521984","0.0-6.0-5.56","3001255","co38449","norming","","","","","","",""
"3175.905000010971","","","post_reveal_questions","survey-likert","404","1525162","0.0-6.0-6.56","3001255","co38449","norming","","","{""aha"":4}","[0]","../img/tt/1159tt.jpg","",""
"null","<div style=""font-size:60px;""> </div>","null","fixation","html-keyboard-response","405","1525378","0.0-6.0-0.57","3001255","co38449","norming","","","","","","",""
"null","../img/tt/1084tt.jpg","null","mooney1","image-keyboard-response","406","1528381","0.0-6.0-1.57","3001255","co38449","norming","","","","","","",""
"6827.460000000428","","","post_mooney1_questions","survey-likert","407","1535211","0.0-6.0-2.57","3001255","co38449","norming","","","{""curiosity"":4,""confidence"":0}","[0,1]","../img/tt/1084tt.jpg","",""
"3707.3399999937974","","","recognition","survey-text","408","1538922","0.0-6.0-3.57","3001255","co38449","norming","","","{""guess"":""pineappel""}","","../img/tt/1084tt.jpg","",""
"null","../img/gs/1084gs.jpg","null","reveal","image-keyboard-response","409","1540927","0.0-6.0-4.57","3001255","co38449","norming","","","","","","",""
"null","../img/tt/1084tt.jpg","null","mooney2","image-keyboard-response","410","1542930","0.0-6.0-5.57","3001255","co38449","norming","","","","","","",""
"2359.5100000093225","","","post_reveal_questions","survey-likert","411","1545292","0.0-6.0-6.57","3001255","co38449","norming","","","{""aha"":5}","[0]","../img/tt/1084tt.jpg","",""
"null","<div style=""font-size:60px;""> </div>","null","fixation","html-keyboard-response","412","1545497","0.0-6.0-0.58","3001255","co38449","norming","","","","","","",""
"null","../img/tt/1217tt.jpg","null","mooney1","image-keyboard-response","413","1548505","0.0-6.0-1.58","3001255","co38449","norming","","","","","","",""
"4898.849999997765","","","post_mooney1_questions","survey-likert","414","1553407","0.0-6.0-2.58","3001255","co38449","norming","","","{""curiosity"":6,""confidence"":0}","[0,1]","../img/tt/1217tt.jpg","",""
"3425.5100000009406","","","recognition","survey-text","415","1556835","0.0-6.0-3.58","3001255","co38449","norming","","","{""guess"":""footbalteam""}","","../img/tt/1217tt.jpg","",""
"null","../img/gs/1217gs.jpg","null","reveal","image-keyboard-response","416","1558841","0.0-6.0-4.58","3001255","co38449","norming","","","","","","",""
"null","../img/tt/1217tt.jpg","null","mooney2","image-keyboard-response","417","1560848","0.0-6.0-5.58","3001255","co38449","norming","","","","","","",""
"2051.240000000689","","","post_reveal_questions","survey-likert","418","1562902","0.0-6.0-6.58","3001255","co38449","norming","","","{""aha"":4}","[0]","../img/tt/1217tt.jpg","",""
"null","<div style=""font-size:60px;""> </div>","null","fixation","html-keyboard-response","419","1563120","0.0-6.0-0.59","3001255","co38449","norming","","","","","","",""
"null","../img/tt/435tt.jpg","null","mooney1","image-keyboard-response","420","1566124","0.0-6.0-1.59","3001255","co38449","norming","","","","","","",""
"6623.285000008764","","","post_mooney1_questions","survey-likert","421","1572750","0.0-6.0-2.59","3001255","co38449","norming","","","{""curiosity"":4,""confidence"":0}","[0,1]","../img/tt/435tt.jpg","",""
"5451.854999992065","","","recognition","survey-text","422","1578205","0.0-6.0-3.59","3001255","co38449","norming","","","{""guess"":""cup of cofee""}","","../img/tt/435tt.jpg","",""
"null","../img/gs/435gs.jpg","null","reveal","image-keyboard-response","423","1580222","0.0-6.0-4.59","3001255","co38449","norming","","","","","","",""
"null","../img/tt/435tt.jpg","null","mooney2","image-keyboard-response","424","1582225","0.0-6.0-5.59","3001255","co38449","norming","","","","","","",""
"2941.3849999983795","","","post_reveal_questions","survey-likert","425","1585168","0.0-6.0-6.59","3001255","co38449","norming","","","{""aha"":5}","[0]","../img/tt/435tt.jpg","",""
"null","<div style=""font-size:60px;""> </div>","null","fixation","html-keyboard-response","426","1585378","0.0-6.0-0.60","3001255","co38449","norming","","","","","","",""
"null","../img/tt/517tt.jpg","null","mooney1","image-keyboard-response","427","1588388","0.0-6.0-1.60","3001255","co38449","norming","","","","","","",""
"3707.6549999911804","","","post_mooney1_questions","survey-likert","428","1592099","0.0-6.0-2.60","3001255","co38449","norming","","","{""curiosity"":5,""confidence"":1}","[0,1]","../img/tt/517tt.jpg","",""
"1131.8599999942817","","","recognition","survey-text","429","1593234","0.0-6.0-3.60","3001255","co38449","norming","","","{""guess"":""bear""}","","../img/tt/517tt.jpg","",""
"null","../img/gs/517gs.jpg","null","reveal","image-keyboard-response","430","1595237","0.0-6.0-4.60","3001255","co38449","norming","","","","","","",""
"null","../img/tt/517tt.jpg","null","mooney2","image-keyboard-response","431","1597244","0.0-6.0-5.60","3001255","co38449","norming","","","","","","",""
"2998.0550000034273","","","post_reveal_questions","survey-likert","432","1600244","0.0-6.0-6.60","3001255","co38449","norming","","","{""aha"":5}","[0]","../img/tt/517tt.jpg","",""
"null","<div style=""font-size:60px;""> </div>","null","fixation","html-keyboard-response","433","1600448","0.0-6.0-0.61","3001255","co38449","norming","","","","","","",""
"null","../img/tt/052tt.jpg","null","mooney1","image-keyboard-response","434","1603453","0.0-6.0-1.61","3001255","co38449","norming","","","","","","",""
"4095.8200000021607","","","post_mooney1_questions","survey-likert","435","1607551","0.0-6.0-2.61","3001255","co38449","norming","","","{""curiosity"":5,""confidence"":2}","[0,1]","../img/tt/052tt.jpg","",""
"11298.660000000149","","","recognition","survey-text","436","1618853","0.0-6.0-3.61","3001255","co38449","norming","","","{""guess"":""watch""}","","../img/tt/052tt.jpg","",""
"null","../img/gs/052gs.jpg","null","reveal","image-keyboard-response","437","1620856","0.0-6.0-4.61","3001255","co38449","norming","","","","","","",""
"null","../img/tt/052tt.jpg","null","mooney2","image-keyboard-response","438","1622863","0.0-6.0-5.61","3001255","co38449","norming","","","","","","",""
"3057.56000000122","","","post_reveal_questions","survey-likert","439","1625922","0.0-6.0-6.61","3001255","co38449","norming","","","{""aha"":4}","[0]","../img/tt/052tt.jpg","",""
"null","<div style=""font-size:60px;""> </div>","null","fixation","html-keyboard-response","440","1626129","0.0-6.0-0.62","3001255","co38449","norming","","","","","","",""
"null","../img/tt/1156tt.jpg","null","mooney1","image-keyboard-response","441","1629132","0.0-6.0-1.62","3001255","co38449","norming","","","","","","",""
"4801.770000005374","","","post_mooney1_questions","survey-likert","442","1633936","0.0-6.0-2.62","3001255","co38449","norming","","","{""curiosity"":4,""confidence"":2}","[0,1]","../img/tt/1156tt.jpg","",""
"1276.660000002943","","","recognition","survey-text","443","1635216","0.0-6.0-3.62","3001255","co38449","norming","","","{""guess"":""swimmer""}","","../img/tt/1156tt.jpg","",""
"null","../img/gs/1156gs.jpg","null","reveal","image-keyboard-response","444","1637222","0.0-6.0-4.62","3001255","co38449","norming","","","","","","",""
"null","../img/tt/1156tt.jpg","null","mooney2","image-keyboard-response","445","1639224","0.0-6.0-5.62","3001255","co38449","norming","","","","","","",""
"2240.104999989737","","","post_reveal_questions","survey-likert","446","1641466","0.0-6.0-6.62","3001255","co38449","norming","","","{""aha"":2}","[0]","../img/tt/1156tt.jpg","",""
"null","<div style=""font-size:60px;""> </div>","null","fixation","html-keyboard-response","447","1641669","0.0-6.0-0.63","3001255","co38449","norming","","","","","","",""
"null","../img/tt/1275tt.jpg","null","mooney1","image-keyboard-response","448","1644676","0.0-6.0-1.63","3001255","co38449","norming","","","","","","",""
"3948.520000005141","","","post_mooney1_questions","survey-likert","449","1648627","0.0-6.0-2.63","3001255","co38449","norming","","","{""curiosity"":4,""confidence"":1}","[0,1]","../img/tt/1275tt.jpg","",""
"1046.595000006957","","","recognition","survey-text","450","1649677","0.0-6.0-3.63","3001255","co38449","norming","","","{""guess"":""bear""}","","../img/tt/1275tt.jpg","",""
"null","../img/gs/1275gs.jpg","null","reveal","image-keyboard-response","451","1651680","0.0-6.0-4.63","3001255","co38449","norming","","","","","","",""
"null","../img/tt/1275tt.jpg","null","mooney2","image-keyboard-response","452","1653685","0.0-6.0-5.63","3001255","co38449","norming","","","","","","",""
"2147.0450000050478","","","post_reveal_questions","survey-likert","453","1655835","0.0-6.0-6.63","3001255","co38449","norming","","","{""aha"":5}","[0]","../img/tt/1275tt.jpg","",""
"null","<div style=""font-size:60px;""> </div>","null","fixation","html-keyboard-response","454","1656037","0.0-6.0-0.64","3001255","co38449","norming","","","","","","",""
"null","../img/tt/008tt.jpg","null","mooney1","image-keyboard-response","455","1659044","0.0-6.0-1.64","3001255","co38449","norming","","","","","","",""
"4677.565000005299","","","post_mooney1_questions","survey-likert","456","1663725","0.0-6.0-2.64","3001255","co38449","norming","","","{""curiosity"":4,""confidence"":1}","[0,1]","../img/tt/008tt.jpg","",""
"1438.6149999918416","","","recognition","survey-text","457","1665167","0.0-6.0-3.64","3001255","co38449","norming","","","{""guess"":""fish""}","","../img/tt/008tt.jpg","",""
"null","../img/gs/008gs.jpg","null","reveal","image-keyboard-response","458","1667181","0.0-6.0-4.64","3001255","co38449","norming","","","","","","",""
"null","../img/tt/008tt.jpg","null","mooney2","image-keyboard-response","459","1669187","0.0-6.0-5.64","3001255","co38449","norming","","","","","","",""
"2317.070000004489","","","post_reveal_questions","survey-likert","460","1671506","0.0-6.0-6.64","3001255","co38449","norming","","","{""aha"":5}","[0]","../img/tt/008tt.jpg","",""
"null","<div style=""font-size:60px;""> </div>","null","fixation","html-keyboard-response","461","1671708","0.0-6.0-0.65","3001255","co38449","norming","","","","","","",""
"null","../img/tt/497tt.jpg","null","mooney1","image-keyboard-response","462","1674720","0.0-6.0-1.65","3001255","co38449","norming","","","","","","",""
"12827.980000001844","","","post_mooney1_questions","survey-likert","463","1687551","0.0-6.0-2.65","3001255","co38449","norming","","","{""curiosity"":5,""confidence"":1}","[0,1]","../img/tt/497tt.jpg","",""
"3090.13500000583","","","recognition","survey-text","464","1690644","0.0-6.0-3.65","3001255","co38449","norming","","","{""guess"":""roulette""}","","../img/tt/497tt.jpg","",""
"null","../img/gs/497gs.jpg","null","reveal","image-keyboard-response","465","1692647","0.0-6.0-4.65","3001255","co38449","norming","","","","","","",""
"null","../img/tt/497tt.jpg","null","mooney2","image-keyboard-response","466","1694649","0.0-6.0-5.65","3001255","co38449","norming","","","","","","",""
"9893.76999999513","","","post_reveal_questions","survey-likert","467","1704545","0.0-6.0-6.65","3001255","co38449","norming","","","{""aha"":4}","[0]","../img/tt/497tt.jpg","",""
"null","<div style=""font-size:60px;""> </div>","null","fixation","html-keyboard-response","468","1704747","0.0-6.0-0.66","3001255","co38449","norming","","","","","","",""
"null","../img/tt/105tt.jpg","null","mooney1","image-keyboard-response","469","1707750","0.0-6.0-1.66","3001255","co38449","norming","","","","","","",""
"6267.024999993853","","","post_mooney1_questions","survey-likert","470","1714019","0.0-6.0-2.66","3001255","co38449","norming","","","{""curiosity"":4,""confidence"":1}","[0,1]","../img/tt/105tt.jpg","",""
"3289.239999998361","","","recognition","survey-text","471","1717312","0.0-6.0-3.66","3001255","co38449","norming","","","{""guess"":""paperclips""}","","../img/tt/105tt.jpg","",""
"null","../img/gs/105gs.jpg","null","reveal","image-keyboard-response","472","1719317","0.0-6.0-4.66","3001255","co38449","norming","","","","","","",""
"null","../img/tt/105tt.jpg","null","mooney2","image-keyboard-response","473","1721322","0.0-6.0-5.66","3001255","co38449","norming","","","","","","",""
"1913.500000009546","","","post_reveal_questions","survey-likert","474","1723237","0.0-6.0-6.66","3001255","co38449","norming","","","{""aha"":2}","[0]","../img/tt/105tt.jpg","",""
"null","<div style=""font-size:60px;""> </div>","null","fixation","html-keyboard-response","475","1723440","0.0-6.0-0.67","3001255","co38449","norming","","","","","","",""
"null","../img/tt/1012tt.jpg","null","mooney1","image-keyboard-response","476","1726455","0.0-6.0-1.67","3001255","co38449","norming","","","","","","",""
"12643.95500000706","","","post_mooney1_questions","survey-likert","477","1739102","0.0-6.0-2.67","3001255","co38449","norming","","","{""curiosity"":4,""confidence"":1}","[0,1]","../img/tt/1012tt.jpg","",""
"3130.2450000075623","","","recognition","survey-text","478","1742235","0.0-6.0-3.67","3001255","co38449","norming","","","{""guess"":""caterpillar""}","","../img/tt/1012tt.jpg","",""
"null","../img/gs/1012gs.jpg","null","reveal","image-keyboard-response","479","1744238","0.0-6.0-4.67","3001255","co38449","norming","","","","","","",""
"null","../img/tt/1012tt.jpg","null","mooney2","image-keyboard-response","480","1746243","0.0-6.0-5.67","3001255","co38449","norming","","","","","","",""
"1947.9100000024773","","","post_reveal_questions","survey-likert","481","1748194","0.0-6.0-6.67","3001255","co38449","norming","","","{""aha"":5}","[0]","../img/tt/1012tt.jpg","",""
"null","<div style=""font-size:60px;""> </div>","null","fixation","html-keyboard-response","482","1748403","0.0-6.0-0.68","3001255","co38449","norming","","","","","","",""
"null","../img/tt/036tt.jpg","null","mooney1","image-keyboard-response","483","1751410","0.0-6.0-1.68","3001255","co38449","norming","","","","","","",""
"6815.400000006659","","","post_mooney1_questions","survey-likert","484","1758229","0.0-6.0-2.68","3001255","co38449","norming","","","{""curiosity"":5,""confidence"":0}","[0,1]","../img/tt/036tt.jpg","",""
"883.739999989979","","","recognition","survey-text","485","1759116","0.0-6.0-3.68","3001255","co38449","norming","","","{""guess"":""water""}","","../img/tt/036tt.jpg","",""
"null","../img/gs/036gs.jpg","null","reveal","image-keyboard-response","486","1761119","0.0-6.0-4.68","3001255","co38449","norming","","","","","","",""
"null","../img/tt/036tt.jpg","null","mooney2","image-keyboard-response","487","1763121","0.0-6.0-5.68","3001255","co38449","norming","","","","","","",""
"2650.320000000531","","","post_reveal_questions","survey-likert","488","1765773","0.0-6.0-6.68","3001255","co38449","norming","","","{""aha"":5}","[0]","../img/tt/036tt.jpg","",""
"null","<div style=""font-size:60px;""> </div>","null","fixation","html-keyboard-response","489","1765977","0.0-6.0-0.69","3001255","co38449","norming","","","","","","",""
"null","../img/tt/1033tt.jpg","null","mooney1","image-keyboard-response","490","1768983","0.0-6.0-1.69","3001255","co38449","norming","","","","","","",""
"4970.195000001695","","","post_mooney1_questions","survey-likert","491","1773956","0.0-6.0-2.69","3001255","co38449","norming","","","{""curiosity"":4,""confidence"":2}","[0,1]","../img/tt/1033tt.jpg","",""
"3136.66500001261","","","recognition","survey-text","492","1777096","0.0-6.0-3.69","3001255","co38449","norming","","","{""guess"":""hockey""}","","../img/tt/1033tt.jpg","",""
"null","../img/gs/1033gs.jpg","null","reveal","image-keyboard-response","493","1779100","0.0-6.0-4.69","3001255","co38449","norming","","","","","","",""
"null","../img/tt/1033tt.jpg","null","mooney2","image-keyboard-response","494","1781103","0.0-6.0-5.69","3001255","co38449","norming","","","","","","",""
"1663.5399999942165","","","post_reveal_questions","survey-likert","495","1782769","0.0-6.0-6.69","3001255","co38449","norming","","","{""aha"":4}","[0]","../img/tt/1033tt.jpg","",""
"null","<div style=""font-size:60px;""> </div>","null","fixation","html-keyboard-response","496","1782973","0.0-6.0-0.70","3001255","co38449","norming","","","","","","",""
"null","../img/tt/534tt.jpg","null","mooney1","image-keyboard-response","497","1785976","0.0-6.0-1.70","3001255","co38449","norming","","","","","","",""
"5141.2750000017695","","","post_mooney1_questions","survey-likert","498","1791120","0.0-6.0-2.70","3001255","co38449","norming","","","{""curiosity"":5,""confidence"":1}","[0,1]","../img/tt/534tt.jpg","",""
"1811.4399999901652","","","recognition","survey-text","499","1792935","0.0-6.0-3.70","3001255","co38449","norming","","","{""guess"":""cactus""}","","../img/tt/534tt.jpg","",""
"null","../img/gs/534gs.jpg","null","reveal","image-keyboard-response","500","1794944","0.0-6.0-4.70","3001255","co38449","norming","","","","","","",""
"null","../img/tt/534tt.jpg","null","mooney2","image-keyboard-response","501","1796947","0.0-6.0-5.70","3001255","co38449","norming","","","","","","",""
"2192.914999992354","","","post_reveal_questions","survey-likert","502","1799141","0.0-6.0-6.70","3001255","co38449","norming","","","{""aha"":1}","[0]","../img/tt/534tt.jpg","",""
"null","<div style=""font-size:60px;""> </div>","null","fixation","html-keyboard-response","503","1799345","0.0-6.0-0.71","3001255","co38449","norming","","","","","","",""
"null","../img/tt/1128tt.jpg","null","mooney1","image-keyboard-response","504","1802347","0.0-6.0-1.71","3001255","co38449","norming","","","","","","",""
"4712.129999999888","","","post_mooney1_questions","survey-likert","505","1807062","0.0-6.0-2.71","3001255","co38449","norming","","","{""curiosity"":4,""confidence"":2}","[0,1]","../img/tt/1128tt.jpg","",""
"1153.35999999661","","","recognition","survey-text","506","1808219","0.0-6.0-3.71","3001255","co38449","norming","","","{""guess"":""panda""}","","../img/tt/1128tt.jpg","",""
"null","../img/gs/1128gs.jpg","null","reveal","image-keyboard-response","507","1810229","0.0-6.0-4.71","3001255","co38449","norming","","","","","","",""
"null","../img/tt/1128tt.jpg","null","mooney2","image-keyboard-response","508","1812243","0.0-6.0-5.71","3001255","co38449","norming","","","","","","",""
"1885.6999999987893","","","post_reveal_questions","survey-likert","509","1814131","0.0-6.0-6.71","3001255","co38449","norming","","","{""aha"":5}","[0]","../img/tt/1128tt.jpg","",""
"null","<div style=""font-size:60px;""> </div>","null","fixation","html-keyboard-response","510","1814333","0.0-6.0-0.72","3001255","co38449","norming","","","","","","",""
"null","../img/tt/1143tt.jpg","null","mooney1","image-keyboard-response","511","1817336","0.0-6.0-1.72","3001255","co38449","norming","","","","","","",""
"4060.779999999795","","","post_mooney1_questions","survey-likert","512","1821400","0.0-6.0-2.72","3001255","co38449","norming","","","{""curiosity"":4,""confidence"":2}","[0,1]","../img/tt/1143tt.jpg","",""
"1791.1900000036694","","","recognition","survey-text","513","1823194","0.0-6.0-3.72","3001255","co38449","norming","","","{""guess"":""gym""}","","../img/tt/1143tt.jpg","",""
"null","../img/gs/1143gs.jpg","null","reveal","image-keyboard-response","514","1825197","0.0-6.0-4.72","3001255","co38449","norming","","","","","","",""
"null","../img/tt/1143tt.jpg","null","mooney2","image-keyboard-response","515","1827199","0.0-6.0-5.72","3001255","co38449","norming","","","","","","",""
"2065.28500000434","","","post_reveal_questions","survey-likert","516","1829267","0.0-6.0-6.72","3001255","co38449","norming","","","{""aha"":2}","[0]","../img/tt/1143tt.jpg","",""
"null","<div style=""font-size:60px;""> </div>","null","fixation","html-keyboard-response","517","1829493","0.0-6.0-0.73","3001255","co38449","norming","","","","","","",""
"null","../img/tt/118tt.jpg","null","mooney1","image-keyboard-response","518","1832496","0.0-6.0-1.73","3001255","co38449","norming","","","","","","",""
"3644.695000009844","","","post_mooney1_questions","survey-likert","519","1836144","0.0-6.0-2.73","3001255","co38449","norming","","","{""curiosity"":4,""confidence"":1}","[0,1]","../img/tt/118tt.jpg","",""
"1180.6199999991804","","","recognition","survey-text","520","1837328","0.0-6.0-3.73","3001255","co38449","norming","","","{""guess"":""chair""}","","../img/tt/118tt.jpg","",""
"null","../img/gs/118gs.jpg","null","reveal","image-keyboard-response","521","1839333","0.0-6.0-4.73","3001255","co38449","norming","","","","","","",""
"null","../img/tt/118tt.jpg","null","mooney2","image-keyboard-response","522","1841334","0.0-6.0-5.73","3001255","co38449","norming","","","","","","",""
"2252.4450000054203","","","post_reveal_questions","survey-likert","523","1843590","0.0-6.0-6.73","3001255","co38449","norming","","","{""aha"":4}","[0]","../img/tt/118tt.jpg","",""
"null","<div style=""font-size:60px;""> </div>","null","fixation","html-keyboard-response","524","1843792","0.0-6.0-0.74","3001255","co38449","norming","","","","","","",""
"null","../img/tt/319tt.jpg","null","mooney1","image-keyboard-response","525","1846809","0.0-6.0-1.74","3001255","co38449","norming","","","","","","",""
"5174.125000004889","","","post_mooney1_questions","survey-likert","526","1851987","0.0-6.0-2.74","3001255","co38449","norming","","","{""curiosity"":5,""confidence"":1}","[0,1]","../img/tt/319tt.jpg","",""
"1564.6649999979418","","","recognition","survey-text","527","1853555","0.0-6.0-3.74","3001255","co38449","norming","","","{""guess"":""donkey""}","","../img/tt/319tt.jpg","",""
"null","../img/gs/319gs.jpg","null","reveal","image-keyboard-response","528","1855557","0.0-6.0-4.74","3001255","co38449","norming","","","","","","",""
"null","../img/tt/319tt.jpg","null","mooney2","image-keyboard-response","529","1857560","0.0-6.0-5.74","3001255","co38449","norming","","","","","","",""
"3468.4949999938253","","","post_reveal_questions","survey-likert","530","1861031","0.0-6.0-6.74","3001255","co38449","norming","","","{""aha"":3}","[0]","../img/tt/319tt.jpg","",""
"null","<div style=""font-size:60px;""> </div>","null","fixation","html-keyboard-response","531","1861232","0.0-6.0-0.75","3001255","co38449","norming","","","","","","",""
"null","../img/tt/1006tt.jpg","null","mooney1","image-keyboard-response","532","1864236","0.0-6.0-1.75","3001255","co38449","norming","","","","","","",""
"4927.969999989495","","","post_mooney1_questions","survey-likert","533","1869167","0.0-6.0-2.75","3001255","co38449","norming","","","{""curiosity"":5,""confidence"":0}","[0,1]","../img/tt/1006tt.jpg","",""
"6819.644999995828","","","recognition","survey-text","534","1875990","0.0-6.0-3.75","3001255","co38449","norming","","","{""guess"":""wei""}","","../img/tt/1006tt.jpg","",""
"null","../img/gs/1006gs.jpg","null","reveal","image-keyboard-response","535","1877993","0.0-6.0-4.75","3001255","co38449","norming","","","","","","",""
"null","../img/tt/1006tt.jpg","null","mooney2","image-keyboard-response","536","1880007","0.0-6.0-5.75","3001255","co38449","norming","","","","","","",""
"1788.4200000117999","","","post_reveal_questions","survey-likert","537","1881798","0.0-6.0-6.75","3001255","co38449","norming","","","{""aha"":5}","[0]","../img/tt/1006tt.jpg","",""
"null","<div style=""font-size:60px;""> </div>","null","fixation","html-keyboard-response","538","1882001","0.0-6.0-0.76","3001255","co38449","norming","","","","","","",""
"null","../img/tt/1107tt.jpg","null","mooney1","image-keyboard-response","539","1885003","0.0-6.0-1.76","3001255","co38449","norming","","","","","","",""
"11205.74499999918","","","post_mooney1_questions","survey-likert","540","1896212","0.0-6.0-2.76","3001255","co38449","norming","","","{""curiosity"":4,""confidence"":1}","[0,1]","../img/tt/1107tt.jpg","",""
"1636.5899999947287","","","recognition","survey-text","541","1897852","0.0-6.0-3.76","3001255","co38449","norming","","","{""guess"":""hippo""}","","../img/tt/1107tt.jpg","",""
"null","../img/gs/1107gs.jpg","null","reveal","image-keyboard-response","542","1899857","0.0-6.0-4.76","3001255","co38449","norming","","","","","","",""
"null","../img/tt/1107tt.jpg","null","mooney2","image-keyboard-response","543","1901858","0.0-6.0-5.76","3001255","co38449","norming","","","","","","",""
"1870.9650000091642","","","post_reveal_questions","survey-likert","544","1903731","0.0-6.0-6.76","3001255","co38449","norming","","","{""aha"":5}","[0]","../img/tt/1107tt.jpg","",""
"null","<div style=""font-size:60px;""> </div>","null","fixation","html-keyboard-response","545","1903934","0.0-6.0-0.77","3001255","co38449","norming","","","","","","",""
"null","../img/tt/010tt.jpg","null","mooney1","image-keyboard-response","546","1906937","0.0-6.0-1.77","3001255","co38449","norming","","","","","","",""
"6376.535000003176","","","post_mooney1_questions","survey-likert","547","1913316","0.0-6.0-2.77","3001255","co38449","norming","","","{""curiosity"":5,""confidence"":0}","[0,1]","../img/tt/010tt.jpg","",""
"7291.949999999022","","","recognition","survey-text","548","1920611","0.0-6.0-3.77","3001255","co38449","norming","","","{""guess"":""frog""}","","../img/tt/010tt.jpg","",""
"null","../img/gs/010gs.jpg","null","reveal","image-keyboard-response","549","1922616","0.0-6.0-4.77","3001255","co38449","norming","","","","","","",""
"null","../img/tt/010tt.jpg","null","mooney2","image-keyboard-response","550","1924625","0.0-6.0-5.77","3001255","co38449","norming","","","","","","",""
"2392.319999999134","","","post_reveal_questions","survey-likert","551","1927020","0.0-6.0-6.77","3001255","co38449","norming","","","{""aha"":4}","[0]","../img/tt/010tt.jpg","",""
