"rt","stimulus","key_press","test_part","trial_type","trial_index","time_elapsed","internal_node_id","totalTime","subject","experiment_name","button_pressed","success","responses","question_order","currentStim","old","correct"
"5295.969999860972","Welcome to the experiment. This is an online experiment so please don't close the tab/window until we say goodbye.  Press any key to begin.","13","instructions","html-keyboard-response","0","5320","0.0-0.0","2220503","co38446","norming","","","","","","",""
"20741.919999942183","<div style='word-wrap: break-word; width: 900px'><h3>Please consider this information carefully before deciding whether to participate in this research</h3><ul style='text-align: left; font-size: .8em;'><li><b>Purpose of the research</b>: To examine how people process images.</li><li><b>What you will do in this research</b>:  Stimuli (images) will be presented on the computer and you will be asked different questions about them.</li><li><b>Time required</b>: Participation will take between 45 and 60 minutes to complete.</li><li><b>Risks</b>:  There are no anticipated risks associated with participating in this study. The effects of participating should be comparable to those you would experience from viewing a computer monitor for 30 minutes and using a mouse or keyboard.</li><li><b>Benefits</b>:  This study provides no benefits to you individually except for the credit. The study provides important information about the nature of perception and learning.</li><li><b>Confidentiality</b>:  Your participation in this study will remain confidential. No personally identifiable information will be associated with your data. Your de-identified data may be shared with other researchers and used in future projects.</li><li><b>Participation and withdrawal</b>:  Your participation in this study is completely voluntary and you may refuse to participate or you may choose to withdraw at any time without penalty.</li><li><b>How to contact the researchers</b>: If you have questions or concerns about your participation or payment, or want to request a summary of research findings, please contact Sander Van de Cruys (KU Leuven), at sander.vandecruys@kuleuven.be.</li></ul><p>The nature and purpose of this research have been sufficiently explained and I agree to participate in this study.  I understand that I am free to withdraw at any time without incurring any penalty.</p><p>Please consent by clicking the button below to continue. Otherwise, please exit the study at this time.</p></div>","","instructions","html-button-response","1","26064","0.0-1.0","2220503","co38446","norming","0","","","","","",""
"","","","instructions","fullscreen","2","29377","0.0-2.0","2220503","co38446","norming","","true","","","","",""
"16165.149999782443","","","sona","survey-html-form","3","45545","0.0-3.0","2220503","co38446","norming","","","[{""name"":""sonaid"",""value"":""38446""},{""name"":""debrief"",""value"":""no""},{""name"":""datajoin"",""value"":""yes""}]","","","",""
"54055.51500013098","<div style='word-wrap: break-word; width: 900px'><h3>Instructions</h3><p>This experiment will have 3 parts. In the first part you will see a series of distorted images like the one below on the left. As you can see in the righthand image, the distorted images are derived from actual photographs. In what follows, you will <strong>briefly</strong> be presented with <strong>only</strong> the distorted image.</p> <div style='float: left; margin-right: 20px;'><img src='../img/018tt.jpg' height='250' width='250'></img></div><div style='float: right; margin-left: 20px;'><img src='../img/018gs.jpg' height='250' width='250'></img></div><p>Subsequently you will be asked a few questions about the image: One question on how <strong>curious</strong> you are about the solution and one on how <strong>confident</strong> you are that you know the solution.</p>Next, we ask you to make a guess on what is in the image. Note that it is OK to name just the <strong>basic level category</strong>. For example when you see a parrot in the image, 'parrot' will obviously be a correct answer but also correct is 'bird'. However, 'animal' will <strong>not</strong> be counted as a correct response. For the example above, 'rose' would be correct or 'flower', but not 'plant'. When soccer players are depicted, 'soccer', 'football', 'soccer players' will be correct, but not 'humans', 'outdoors', or 'sports'. You do not need to describe the image in full, just name the main object in it <strong>in one or two words</strong>. All images depict objects from one of the following broad level categories: animals, inanimate objects, plants, sports, vehicles, and food. Recognizing means knowing <strong>more</strong> than these broad labels for a given image. But we always encourage you to <strong>make a guess</strong> if you can. Note that you are allowed to use <strong>Dutch and English</strong> in your answers, whatever comes easiest for you.</p><p>Press any key to continue.</p></div>","13","instructions","html-keyboard-response","4","99604","0.0-4.0","2220503","co38446","norming","","","","","","",""
"10495.219999924302","<div style='word-wrap: break-word; width: 900px'><h3>Instructions</h3> <p>Next, the solution image will be revealed to you and you'll be asked to indicate how strong your <strong>aha-experience</strong> was after seeing the solution. This describes the positive feeling of the 'click' you sometimes experience, when the pieces of the 'puzzle' fall together and you suddenly have 'insight' in the image.</p><img src='aha.jpg' height='188' width='250'></img><p>Note that there are no right or wrong answers. We are interested in what <strong>you</strong> see in the image and how <strong>you</strong> feel about it.</p><p>Press any key to start the experiment.</p></div>","13","instructions","html-keyboard-response","5","110100","0.0-5.0","2220503","co38446","norming","","","","","","",""
"null","<div style=""font-size:60px;""> </div>","null","fixation","html-keyboard-response","6","110311","0.0-6.0-0.0","2220503","co38446","norming","","","","","","",""
"null","../img/tt/1156tt.jpg","null","mooney1","image-keyboard-response","7","113313","0.0-6.0-1.0","2220503","co38446","norming","","","","","","",""
"7792.064999695867","","","post_mooney1_questions","survey-likert","8","121107","0.0-6.0-2.0","2220503","co38446","norming","","","{""curiosity"":1,""confidence"":5}","[0,1]","../img/tt/1156tt.jpg","",""
"3808.970000129193","","","recognition","survey-text","9","124920","0.0-6.0-3.0","2220503","co38446","norming","","","{""guess"":""vrouw""}","","../img/tt/1156tt.jpg","",""
"null","../img/gs/1156gs.jpg","null","reveal","image-keyboard-response","10","126926","0.0-6.0-4.0","2220503","co38446","norming","","","","","","",""
"null","../img/tt/1156tt.jpg","null","mooney2","image-keyboard-response","11","128928","0.0-6.0-5.0","2220503","co38446","norming","","","","","","",""
"3391.0400001332164","","","post_reveal_questions","survey-likert","12","132321","0.0-6.0-6.0","2220503","co38446","norming","","","{""aha"":0}","[0]","../img/tt/1156tt.jpg","",""
"null","<div style=""font-size:60px;""> </div>","null","fixation","html-keyboard-response","13","132536","0.0-6.0-0.1","2220503","co38446","norming","","","","","","",""
"null","../img/tt/1043tt.jpg","null","mooney1","image-keyboard-response","14","135553","0.0-6.0-1.1","2220503","co38446","norming","","","","","","",""
"5773.569999728352","","","post_mooney1_questions","survey-likert","15","141328","0.0-6.0-2.1","2220503","co38446","norming","","","{""curiosity"":5,""confidence"":0}","[0,1]","../img/tt/1043tt.jpg","",""
"6498.92000015825","","","recognition","survey-text","16","147830","0.0-6.0-3.1","2220503","co38446","norming","","","{""guess"":""brood""}","","../img/tt/1043tt.jpg","",""
"null","../img/gs/1043gs.jpg","null","reveal","image-keyboard-response","17","149847","0.0-6.0-4.1","2220503","co38446","norming","","","","","","",""
"null","../img/tt/1043tt.jpg","null","mooney2","image-keyboard-response","18","151849","0.0-6.0-5.1","2220503","co38446","norming","","","","","","",""
"3591.4900000207126","","","post_reveal_questions","survey-likert","19","155442","0.0-6.0-6.1","2220503","co38446","norming","","","{""aha"":6}","[0]","../img/tt/1043tt.jpg","",""
"null","<div style=""font-size:60px;""> </div>","null","fixation","html-keyboard-response","20","155655","0.0-6.0-0.2","2220503","co38446","norming","","","","","","",""
"null","../img/tt/357tt.jpg","null","mooney1","image-keyboard-response","21","158657","0.0-6.0-1.2","2220503","co38446","norming","","","","","","",""
"6077.0149999298155","","","post_mooney1_questions","survey-likert","22","164734","0.0-6.0-2.2","2220503","co38446","norming","","","{""curiosity"":4,""confidence"":1}","[0,1]","../img/tt/357tt.jpg","",""
"1892.8149999119341","","","recognition","survey-text","23","166630","0.0-6.0-3.2","2220503","co38446","norming","","","{""guess"":""mais""}","","../img/tt/357tt.jpg","",""
"null","../img/gs/357gs.jpg","null","reveal","image-keyboard-response","24","168641","0.0-6.0-4.2","2220503","co38446","norming","","","","","","",""
"null","../img/tt/357tt.jpg","null","mooney2","image-keyboard-response","25","170643","0.0-6.0-5.2","2220503","co38446","norming","","","","","","",""
"2519.7049998678267","","","post_reveal_questions","survey-likert","26","173164","0.0-6.0-6.2","2220503","co38446","norming","","","{""aha"":5}","[0]","../img/tt/357tt.jpg","",""
"null","<div style=""font-size:60px;""> </div>","null","fixation","html-keyboard-response","27","173366","0.0-6.0-0.3","2220503","co38446","norming","","","","","","",""
"null","../img/tt/082tt.jpg","null","mooney1","image-keyboard-response","28","176368","0.0-6.0-1.3","2220503","co38446","norming","","","","","","",""
"5032.77499973774","","","post_mooney1_questions","survey-likert","29","181402","0.0-6.0-2.3","2220503","co38446","norming","","","{""curiosity"":5,""confidence"":0}","[0,1]","../img/tt/082tt.jpg","",""
"2785.7099999673665","","","recognition","survey-text","30","184191","0.0-6.0-3.3","2220503","co38446","norming","","","{""guess"":""kaars""}","","../img/tt/082tt.jpg","",""
"null","../img/gs/082gs.jpg","null","reveal","image-keyboard-response","31","186201","0.0-6.0-4.3","2220503","co38446","norming","","","","","","",""
"null","../img/tt/082tt.jpg","null","mooney2","image-keyboard-response","32","188205","0.0-6.0-5.3","2220503","co38446","norming","","","","","","",""
"3228.529999963939","","","post_reveal_questions","survey-likert","33","191435","0.0-6.0-6.3","2220503","co38446","norming","","","{""aha"":4}","[0]","../img/tt/082tt.jpg","",""
"null","<div style=""font-size:60px;""> </div>","null","fixation","html-keyboard-response","34","191646","0.0-6.0-0.4","2220503","co38446","norming","","","","","","",""
"null","../img/tt/1159tt.jpg","null","mooney1","image-keyboard-response","35","194648","0.0-6.0-1.4","2220503","co38446","norming","","","","","","",""
"5220.2849998138845","","","post_mooney1_questions","survey-likert","36","199870","0.0-6.0-2.4","2220503","co38446","norming","","","{""curiosity"":6,""confidence"":2}","[0,1]","../img/tt/1159tt.jpg","",""
"1345.8249997347593","","","recognition","survey-text","37","201219","0.0-6.0-3.4","2220503","co38446","norming","","","{""guess"":""boot""}","","../img/tt/1159tt.jpg","",""
"null","../img/gs/1159gs.jpg","null","reveal","image-keyboard-response","38","203230","0.0-6.0-4.4","2220503","co38446","norming","","","","","","",""
"null","../img/tt/1159tt.jpg","null","mooney2","image-keyboard-response","39","205242","0.0-6.0-5.4","2220503","co38446","norming","","","","","","",""
"2655.4049998521805","","","post_reveal_questions","survey-likert","40","207898","0.0-6.0-6.4","2220503","co38446","norming","","","{""aha"":5}","[0]","../img/tt/1159tt.jpg","",""
"null","<div style=""font-size:60px;""> </div>","null","fixation","html-keyboard-response","41","208105","0.0-6.0-0.5","2220503","co38446","norming","","","","","","",""
"null","../img/tt/1148tt.jpg","null","mooney1","image-keyboard-response","42","211106","0.0-6.0-1.5","2220503","co38446","norming","","","","","","",""
"4490.370000246912","","","post_mooney1_questions","survey-likert","43","215598","0.0-6.0-2.5","2220503","co38446","norming","","","{""curiosity"":5,""confidence"":2}","[0,1]","../img/tt/1148tt.jpg","",""
"2345.370000228286","","","recognition","survey-text","44","217946","0.0-6.0-3.5","2220503","co38446","norming","","","{""guess"":""kajak""}","","../img/tt/1148tt.jpg","",""
"null","../img/gs/1148gs.jpg","null","reveal","image-keyboard-response","45","219959","0.0-6.0-4.5","2220503","co38446","norming","","","","","","",""
"null","../img/tt/1148tt.jpg","null","mooney2","image-keyboard-response","46","221960","0.0-6.0-5.5","2220503","co38446","norming","","","","","","",""
"2003.885000012815","","","post_reveal_questions","survey-likert","47","223965","0.0-6.0-6.5","2220503","co38446","norming","","","{""aha"":4}","[0]","../img/tt/1148tt.jpg","",""
"null","<div style=""font-size:60px;""> </div>","null","fixation","html-keyboard-response","48","224176","0.0-6.0-0.6","2220503","co38446","norming","","","","","","",""
"null","../img/tt/1255tt.jpg","null","mooney1","image-keyboard-response","49","227181","0.0-6.0-1.6","2220503","co38446","norming","","","","","","",""
"5648.1950003653765","","","post_mooney1_questions","survey-likert","50","232831","0.0-6.0-2.6","2220503","co38446","norming","","","{""curiosity"":5,""confidence"":0}","[0,1]","../img/tt/1255tt.jpg","",""
"1413.7349999509752","","","recognition","survey-text","51","234247","0.0-6.0-3.6","2220503","co38446","norming","","","{""guess"":""""}","","../img/tt/1255tt.jpg","",""
"null","../img/gs/1255gs.jpg","null","reveal","image-keyboard-response","52","236263","0.0-6.0-4.6","2220503","co38446","norming","","","","","","",""
"null","../img/tt/1255tt.jpg","null","mooney2","image-keyboard-response","53","238265","0.0-6.0-5.6","2220503","co38446","norming","","","","","","",""
"2058.260000310838","","","post_reveal_questions","survey-likert","54","240325","0.0-6.0-6.6","2220503","co38446","norming","","","{""aha"":6}","[0]","../img/tt/1255tt.jpg","",""
"null","<div style=""font-size:60px;""> </div>","null","fixation","html-keyboard-response","55","240543","0.0-6.0-0.7","2220503","co38446","norming","","","","","","",""
"null","../img/tt/222tt.jpg","null","mooney1","image-keyboard-response","56","243547","0.0-6.0-1.7","2220503","co38446","norming","","","","","","",""
"4138.344999868423","","","post_mooney1_questions","survey-likert","57","247687","0.0-6.0-2.7","2220503","co38446","norming","","","{""curiosity"":6,""confidence"":1}","[0,1]","../img/tt/222tt.jpg","",""
"1852.3499998264015","","","recognition","survey-text","58","249542","0.0-6.0-3.7","2220503","co38446","norming","","","{""guess"":""bad""}","","../img/tt/222tt.jpg","",""
"null","../img/gs/222gs.jpg","null","reveal","image-keyboard-response","59","251556","0.0-6.0-4.7","2220503","co38446","norming","","","","","","",""
"null","../img/tt/222tt.jpg","null","mooney2","image-keyboard-response","60","253559","0.0-6.0-5.7","2220503","co38446","norming","","","","","","",""
"2033.375000115484","","","post_reveal_questions","survey-likert","61","255593","0.0-6.0-6.7","2220503","co38446","norming","","","{""aha"":3}","[0]","../img/tt/222tt.jpg","",""
"null","<div style=""font-size:60px;""> </div>","null","fixation","html-keyboard-response","62","255807","0.0-6.0-0.8","2220503","co38446","norming","","","","","","",""
"null","../img/tt/1084tt.jpg","null","mooney1","image-keyboard-response","63","258818","0.0-6.0-1.8","2220503","co38446","norming","","","","","","",""
"4856.200000271201","","","post_mooney1_questions","survey-likert","64","263675","0.0-6.0-2.8","2220503","co38446","norming","","","{""curiosity"":6,""confidence"":0}","[0,1]","../img/tt/1084tt.jpg","",""
"2093.8800000585616","","","recognition","survey-text","65","265772","0.0-6.0-3.8","2220503","co38446","norming","","","{""guess"":""thee""}","","../img/tt/1084tt.jpg","",""
"null","../img/gs/1084gs.jpg","null","reveal","image-keyboard-response","66","267775","0.0-6.0-4.8","2220503","co38446","norming","","","","","","",""
"null","../img/tt/1084tt.jpg","null","mooney2","image-keyboard-response","67","269778","0.0-6.0-5.8","2220503","co38446","norming","","","","","","",""
"2396.5499997138977","","","post_reveal_questions","survey-likert","68","272177","0.0-6.0-6.8","2220503","co38446","norming","","","{""aha"":5}","[0]","../img/tt/1084tt.jpg","",""
"null","<div style=""font-size:60px;""> </div>","null","fixation","html-keyboard-response","69","272390","0.0-6.0-0.9","2220503","co38446","norming","","","","","","",""
"null","../img/tt/1196tt.jpg","null","mooney1","image-keyboard-response","70","275392","0.0-6.0-1.9","2220503","co38446","norming","","","","","","",""
"4466.0600000061095","","","post_mooney1_questions","survey-likert","71","279859","0.0-6.0-2.9","2220503","co38446","norming","","","{""curiosity"":6,""confidence"":0}","[0,1]","../img/tt/1196tt.jpg","",""
"714.695000089705","","","recognition","survey-text","72","280577","0.0-6.0-3.9","2220503","co38446","norming","","","{""guess"":""""}","","../img/tt/1196tt.jpg","",""
"null","../img/gs/1196gs.jpg","null","reveal","image-keyboard-response","73","282594","0.0-6.0-4.9","2220503","co38446","norming","","","","","","",""
"null","../img/tt/1196tt.jpg","null","mooney2","image-keyboard-response","74","284596","0.0-6.0-5.9","2220503","co38446","norming","","","","","","",""
"2015.4150002636015","","","post_reveal_questions","survey-likert","75","286613","0.0-6.0-6.9","2220503","co38446","norming","","","{""aha"":6}","[0]","../img/tt/1196tt.jpg","",""
"null","<div style=""font-size:60px;""> </div>","null","fixation","html-keyboard-response","76","286825","0.0-6.0-0.10","2220503","co38446","norming","","","","","","",""
"null","../img/tt/091tt.jpg","null","mooney1","image-keyboard-response","77","289827","0.0-6.0-1.10","2220503","co38446","norming","","","","","","",""
"4566.325000021607","","","post_mooney1_questions","survey-likert","78","294395","0.0-6.0-2.10","2220503","co38446","norming","","","{""curiosity"":5,""confidence"":2}","[0,1]","../img/tt/091tt.jpg","",""
"2758.8150002993643","","","recognition","survey-text","79","297156","0.0-6.0-3.10","2220503","co38446","norming","","","{""guess"":""brood""}","","../img/tt/091tt.jpg","",""
"null","../img/gs/091gs.jpg","null","reveal","image-keyboard-response","80","299159","0.0-6.0-4.10","2220503","co38446","norming","","","","","","",""
"null","../img/tt/091tt.jpg","null","mooney2","image-keyboard-response","81","301161","0.0-6.0-5.10","2220503","co38446","norming","","","","","","",""
"3343.279999680817","","","post_reveal_questions","survey-likert","82","304506","0.0-6.0-6.10","2220503","co38446","norming","","","{""aha"":6}","[0]","../img/tt/091tt.jpg","",""
"null","<div style=""font-size:60px;""> </div>","null","fixation","html-keyboard-response","83","304720","0.0-6.0-0.11","2220503","co38446","norming","","","","","","",""
"null","../img/tt/1040tt.jpg","null","mooney1","image-keyboard-response","84","307723","0.0-6.0-1.11","2220503","co38446","norming","","","","","","",""
"4954.499999992549","","","post_mooney1_questions","survey-likert","85","312679","0.0-6.0-2.11","2220503","co38446","norming","","","{""curiosity"":6,""confidence"":0}","[0,1]","../img/tt/1040tt.jpg","",""
"1089.3899998627603","","","recognition","survey-text","86","313771","0.0-6.0-3.11","2220503","co38446","norming","","","{""guess"":""""}","","../img/tt/1040tt.jpg","",""
"null","../img/gs/1040gs.jpg","null","reveal","image-keyboard-response","87","315776","0.0-6.0-4.11","2220503","co38446","norming","","","","","","",""
"null","../img/tt/1040tt.jpg","null","mooney2","image-keyboard-response","88","317782","0.0-6.0-5.11","2220503","co38446","norming","","","","","","",""
"3353.675000369549","","","post_reveal_questions","survey-likert","89","321136","0.0-6.0-6.11","2220503","co38446","norming","","","{""aha"":5}","[0]","../img/tt/1040tt.jpg","",""
"null","<div style=""font-size:60px;""> </div>","null","fixation","html-keyboard-response","90","321339","0.0-6.0-0.12","2220503","co38446","norming","","","","","","",""
"null","../img/tt/515tt.jpg","null","mooney1","image-keyboard-response","91","324345","0.0-6.0-1.12","2220503","co38446","norming","","","","","","",""
"5894.465000368655","","","post_mooney1_questions","survey-likert","92","330241","0.0-6.0-2.12","2220503","co38446","norming","","","{""curiosity"":5,""confidence"":1}","[0,1]","../img/tt/515tt.jpg","",""
"3130.4899998940527","","","recognition","survey-text","93","333374","0.0-6.0-3.12","2220503","co38446","norming","","","{""guess"":""boek""}","","../img/tt/515tt.jpg","",""
"null","../img/gs/515gs.jpg","null","reveal","image-keyboard-response","94","335380","0.0-6.0-4.12","2220503","co38446","norming","","","","","","",""
"null","../img/tt/515tt.jpg","null","mooney2","image-keyboard-response","95","337384","0.0-6.0-5.12","2220503","co38446","norming","","","","","","",""
"1658.9649999514222","","","post_reveal_questions","survey-likert","96","339045","0.0-6.0-6.12","2220503","co38446","norming","","","{""aha"":6}","[0]","../img/tt/515tt.jpg","",""
"null","<div style=""font-size:60px;""> </div>","null","fixation","html-keyboard-response","97","339253","0.0-6.0-0.13","2220503","co38446","norming","","","","","","",""
"null","../img/tt/189tt.jpg","null","mooney1","image-keyboard-response","98","342254","0.0-6.0-1.13","2220503","co38446","norming","","","","","","",""
"4072.3399999551475","","","post_mooney1_questions","survey-likert","99","346329","0.0-6.0-2.13","2220503","co38446","norming","","","{""curiosity"":5,""confidence"":1}","[0,1]","../img/tt/189tt.jpg","",""
"2283.369999844581","","","recognition","survey-text","100","348615","0.0-6.0-3.13","2220503","co38446","norming","","","{""guess"":""snowboard""}","","../img/tt/189tt.jpg","",""
"null","../img/gs/189gs.jpg","null","reveal","image-keyboard-response","101","350630","0.0-6.0-4.13","2220503","co38446","norming","","","","","","",""
"null","../img/tt/189tt.jpg","null","mooney2","image-keyboard-response","102","352634","0.0-6.0-5.13","2220503","co38446","norming","","","","","","",""
"1695.0999996624887","","","post_reveal_questions","survey-likert","103","354331","0.0-6.0-6.13","2220503","co38446","norming","","","{""aha"":4}","[0]","../img/tt/189tt.jpg","",""
"null","<div style=""font-size:60px;""> </div>","null","fixation","html-keyboard-response","104","354535","0.0-6.0-0.14","2220503","co38446","norming","","","","","","",""
"null","../img/tt/1055tt.jpg","null","mooney1","image-keyboard-response","105","357550","0.0-6.0-1.14","2220503","co38446","norming","","","","","","",""
"5595.720000099391","","","post_mooney1_questions","survey-likert","106","363147","0.0-6.0-2.14","2220503","co38446","norming","","","{""curiosity"":3,""confidence"":2}","[0,1]","../img/tt/1055tt.jpg","",""
"1459.569999948144","","","recognition","survey-text","107","364610","0.0-6.0-3.14","2220503","co38446","norming","","","{""guess"":""water""}","","../img/tt/1055tt.jpg","",""
"null","../img/gs/1055gs.jpg","null","reveal","image-keyboard-response","108","366619","0.0-6.0-4.14","2220503","co38446","norming","","","","","","",""
"null","../img/tt/1055tt.jpg","null","mooney2","image-keyboard-response","109","368623","0.0-6.0-5.14","2220503","co38446","norming","","","","","","",""
"2779.1100000031292","","","post_reveal_questions","survey-likert","110","371404","0.0-6.0-6.14","2220503","co38446","norming","","","{""aha"":3}","[0]","../img/tt/1055tt.jpg","",""
"null","<div style=""font-size:60px;""> </div>","null","fixation","html-keyboard-response","111","371614","0.0-6.0-0.15","2220503","co38446","norming","","","","","","",""
"null","../img/tt/1247tt.jpg","null","mooney1","image-keyboard-response","112","374621","0.0-6.0-1.15","2220503","co38446","norming","","","","","","",""
"4376.679999753833","","","post_mooney1_questions","survey-likert","113","379000","0.0-6.0-2.15","2220503","co38446","norming","","","{""curiosity"":6,""confidence"":0}","[0,1]","../img/tt/1247tt.jpg","",""
"1198.2100000604987","","","recognition","survey-text","114","380201","0.0-6.0-3.15","2220503","co38446","norming","","","{""guess"":""""}","","../img/tt/1247tt.jpg","",""
"null","../img/gs/1247gs.jpg","null","reveal","image-keyboard-response","115","382205","0.0-6.0-4.15","2220503","co38446","norming","","","","","","",""
"null","../img/tt/1247tt.jpg","null","mooney2","image-keyboard-response","116","384207","0.0-6.0-5.15","2220503","co38446","norming","","","","","","",""
"1595.8199999295175","","","post_reveal_questions","survey-likert","117","385804","0.0-6.0-6.15","2220503","co38446","norming","","","{""aha"":6}","[0]","../img/tt/1247tt.jpg","",""
"null","<div style=""font-size:60px;""> </div>","null","fixation","html-keyboard-response","118","386018","0.0-6.0-0.16","2220503","co38446","norming","","","","","","",""
"null","../img/tt/184tt.jpg","null","mooney1","image-keyboard-response","119","389034","0.0-6.0-1.16","2220503","co38446","norming","","","","","","",""
"3637.1300001628697","","","post_mooney1_questions","survey-likert","120","392674","0.0-6.0-2.16","2220503","co38446","norming","","","{""curiosity"":5,""confidence"":1}","[0,1]","../img/tt/184tt.jpg","",""
"1169.1950000822544","","","recognition","survey-text","121","393848","0.0-6.0-3.16","2220503","co38446","norming","","","{""guess"":""cake""}","","../img/tt/184tt.jpg","",""
"null","../img/gs/184gs.jpg","null","reveal","image-keyboard-response","122","395851","0.0-6.0-4.16","2220503","co38446","norming","","","","","","",""
"null","../img/tt/184tt.jpg","null","mooney2","image-keyboard-response","123","397859","0.0-6.0-5.16","2220503","co38446","norming","","","","","","",""
"1364.2749995924532","","","post_reveal_questions","survey-likert","124","399225","0.0-6.0-6.16","2220503","co38446","norming","","","{""aha"":4}","[0]","../img/tt/184tt.jpg","",""
"null","<div style=""font-size:60px;""> </div>","null","fixation","html-keyboard-response","125","399431","0.0-6.0-0.17","2220503","co38446","norming","","","","","","",""
"null","../img/tt/1211tt.jpg","null","mooney1","image-keyboard-response","126","402444","0.0-6.0-1.17","2220503","co38446","norming","","","","","","",""
"4522.365000098944","","","post_mooney1_questions","survey-likert","127","406968","0.0-6.0-2.17","2220503","co38446","norming","","","{""curiosity"":6,""confidence"":0}","[0,1]","../img/tt/1211tt.jpg","",""
"957.545000128448","","","recognition","survey-text","128","407928","0.0-6.0-3.17","2220503","co38446","norming","","","{""guess"":""""}","","../img/tt/1211tt.jpg","",""
"null","../img/gs/1211gs.jpg","null","reveal","image-keyboard-response","129","409930","0.0-6.0-4.17","2220503","co38446","norming","","","","","","",""
"null","../img/tt/1211tt.jpg","null","mooney2","image-keyboard-response","130","411933","0.0-6.0-5.17","2220503","co38446","norming","","","","","","",""
"1620.3299998305738","","","post_reveal_questions","survey-likert","131","413555","0.0-6.0-6.17","2220503","co38446","norming","","","{""aha"":6}","[0]","../img/tt/1211tt.jpg","",""
"null","<div style=""font-size:60px;""> </div>","null","fixation","html-keyboard-response","132","413764","0.0-6.0-0.18","2220503","co38446","norming","","","","","","",""
"null","../img/tt/1027tt.jpg","null","mooney1","image-keyboard-response","133","416780","0.0-6.0-1.18","2220503","co38446","norming","","","","","","",""
"5158.4049998782575","","","post_mooney1_questions","survey-likert","134","421940","0.0-6.0-2.18","2220503","co38446","norming","","","{""curiosity"":3,""confidence"":2}","[0,1]","../img/tt/1027tt.jpg","",""
"1811.2449999898672","","","recognition","survey-text","135","423754","0.0-6.0-3.18","2220503","co38446","norming","","","{""guess"":""olifant""}","","../img/tt/1027tt.jpg","",""
"null","../img/gs/1027gs.jpg","null","reveal","image-keyboard-response","136","425757","0.0-6.0-4.18","2220503","co38446","norming","","","","","","",""
"null","../img/tt/1027tt.jpg","null","mooney2","image-keyboard-response","137","427757","0.0-6.0-5.18","2220503","co38446","norming","","","","","","",""
"2188.7749996967614","","","post_reveal_questions","survey-likert","138","429947","0.0-6.0-6.18","2220503","co38446","norming","","","{""aha"":5}","[0]","../img/tt/1027tt.jpg","",""
"null","<div style=""font-size:60px;""> </div>","null","fixation","html-keyboard-response","139","430159","0.0-6.0-0.19","2220503","co38446","norming","","","","","","",""
"null","../img/tt/1053tt.jpg","null","mooney1","image-keyboard-response","140","433176","0.0-6.0-1.19","2220503","co38446","norming","","","","","","",""
"4229.515000246465","","","post_mooney1_questions","survey-likert","141","437408","0.0-6.0-2.19","2220503","co38446","norming","","","{""curiosity"":3,""confidence"":4}","[0,1]","../img/tt/1053tt.jpg","",""
"1870.4699999652803","","","recognition","survey-text","142","439281","0.0-6.0-3.19","2220503","co38446","norming","","","{""guess"":""koe""}","","../img/tt/1053tt.jpg","",""
"null","../img/gs/1053gs.jpg","null","reveal","image-keyboard-response","143","441294","0.0-6.0-4.19","2220503","co38446","norming","","","","","","",""
"null","../img/tt/1053tt.jpg","null","mooney2","image-keyboard-response","144","443295","0.0-6.0-5.19","2220503","co38446","norming","","","","","","",""
"1755.9700002893806","","","post_reveal_questions","survey-likert","145","445053","0.0-6.0-6.19","2220503","co38446","norming","","","{""aha"":1}","[0]","../img/tt/1053tt.jpg","",""
"null","<div style=""font-size:60px;""> </div>","null","fixation","html-keyboard-response","146","445263","0.0-6.0-0.20","2220503","co38446","norming","","","","","","",""
"null","../img/tt/1037tt.jpg","null","mooney1","image-keyboard-response","147","448275","0.0-6.0-1.20","2220503","co38446","norming","","","","","","",""
"3829.0650001727045","","","post_mooney1_questions","survey-likert","148","452106","0.0-6.0-2.20","2220503","co38446","norming","","","{""curiosity"":3,""confidence"":5}","[0,1]","../img/tt/1037tt.jpg","",""
"1689.9999999441206","","","recognition","survey-text","149","453799","0.0-6.0-3.20","2220503","co38446","norming","","","{""guess"":""hond""}","","../img/tt/1037tt.jpg","",""
"null","../img/gs/1037gs.jpg","null","reveal","image-keyboard-response","150","455801","0.0-6.0-4.20","2220503","co38446","norming","","","","","","",""
"null","../img/tt/1037tt.jpg","null","mooney2","image-keyboard-response","151","457808","0.0-6.0-5.20","2220503","co38446","norming","","","","","","",""
"2516.309999860823","","","post_reveal_questions","survey-likert","152","460326","0.0-6.0-6.20","2220503","co38446","norming","","","{""aha"":0}","[0]","../img/tt/1037tt.jpg","",""
"null","<div style=""font-size:60px;""> </div>","null","fixation","html-keyboard-response","153","460539","0.0-6.0-0.21","2220503","co38446","norming","","","","","","",""
"null","../img/tt/1234tt.jpg","null","mooney1","image-keyboard-response","154","463543","0.0-6.0-1.21","2220503","co38446","norming","","","","","","",""
"3541.0699998028576","","","post_mooney1_questions","survey-likert","155","467085","0.0-6.0-2.21","2220503","co38446","norming","","","{""curiosity"":6,""confidence"":0}","[0,1]","../img/tt/1234tt.jpg","",""
"763.7399998493493","","","recognition","survey-text","156","467852","0.0-6.0-3.21","2220503","co38446","norming","","","{""guess"":""""}","","../img/tt/1234tt.jpg","",""
"null","../img/gs/1234gs.jpg","null","reveal","image-keyboard-response","157","469869","0.0-6.0-4.21","2220503","co38446","norming","","","","","","",""
"null","../img/tt/1234tt.jpg","null","mooney2","image-keyboard-response","158","471881","0.0-6.0-5.21","2220503","co38446","norming","","","","","","",""
"2312.0249998755753","","","post_reveal_questions","survey-likert","159","474194","0.0-6.0-6.21","2220503","co38446","norming","","","{""aha"":5}","[0]","../img/tt/1234tt.jpg","",""
"null","<div style=""font-size:60px;""> </div>","null","fixation","html-keyboard-response","160","474404","0.0-6.0-0.22","2220503","co38446","norming","","","","","","",""
"null","../img/tt/1270tt.jpg","null","mooney1","image-keyboard-response","161","477411","0.0-6.0-1.22","2220503","co38446","norming","","","","","","",""
"3888.4649998508394","","","post_mooney1_questions","survey-likert","162","481301","0.0-6.0-2.22","2220503","co38446","norming","","","{""curiosity"":1,""confidence"":6}","[0,1]","../img/tt/1270tt.jpg","",""
"2880.3650001063943","","","recognition","survey-text","163","484185","0.0-6.0-3.22","2220503","co38446","norming","","","{""guess"":""olifant""}","","../img/tt/1270tt.jpg","",""
"null","../img/gs/1270gs.jpg","null","reveal","image-keyboard-response","164","486189","0.0-6.0-4.22","2220503","co38446","norming","","","","","","",""
"null","../img/tt/1270tt.jpg","null","mooney2","image-keyboard-response","165","488193","0.0-6.0-5.22","2220503","co38446","norming","","","","","","",""
"1549.0399999544024","","","post_reveal_questions","survey-likert","166","489743","0.0-6.0-6.22","2220503","co38446","norming","","","{""aha"":6}","[0]","../img/tt/1270tt.jpg","",""
"null","<div style=""font-size:60px;""> </div>","null","fixation","html-keyboard-response","167","489953","0.0-6.0-0.23","2220503","co38446","norming","","","","","","",""
"null","../img/tt/468tt.jpg","null","mooney1","image-keyboard-response","168","492956","0.0-6.0-1.23","2220503","co38446","norming","","","","","","",""
"4600.535000208765","","","post_mooney1_questions","survey-likert","169","497558","0.0-6.0-2.23","2220503","co38446","norming","","","{""curiosity"":6,""confidence"":0}","[0,1]","../img/tt/468tt.jpg","",""
"1080.929999705404","","","recognition","survey-text","170","498641","0.0-6.0-3.23","2220503","co38446","norming","","","{""guess"":""""}","","../img/tt/468tt.jpg","",""
"null","../img/gs/468gs.jpg","null","reveal","image-keyboard-response","171","500657","0.0-6.0-4.23","2220503","co38446","norming","","","","","","",""
"null","../img/tt/468tt.jpg","null","mooney2","image-keyboard-response","172","502665","0.0-6.0-5.23","2220503","co38446","norming","","","","","","",""
"2541.135000064969","","","post_reveal_questions","survey-likert","173","505207","0.0-6.0-6.23","2220503","co38446","norming","","","{""aha"":1}","[0]","../img/tt/468tt.jpg","",""
"null","<div style=""font-size:60px;""> </div>","null","fixation","html-keyboard-response","174","505418","0.0-6.0-0.24","2220503","co38446","norming","","","","","","",""
"null","../img/tt/306tt.jpg","null","mooney1","image-keyboard-response","175","508430","0.0-6.0-1.24","2220503","co38446","norming","","","","","","",""
"6005.535000003874","","","post_mooney1_questions","survey-likert","176","514437","0.0-6.0-2.24","2220503","co38446","norming","","","{""curiosity"":6,""confidence"":1}","[0,1]","../img/tt/306tt.jpg","",""
"1489.2699997872114","","","recognition","survey-text","177","515932","0.0-6.0-3.24","2220503","co38446","norming","","","{""guess"":""fles""}","","../img/tt/306tt.jpg","",""
"null","../img/gs/306gs.jpg","null","reveal","image-keyboard-response","178","517943","0.0-6.0-4.24","2220503","co38446","norming","","","","","","",""
"null","../img/tt/306tt.jpg","null","mooney2","image-keyboard-response","179","519945","0.0-6.0-5.24","2220503","co38446","norming","","","","","","",""
"2263.4649998508394","","","post_reveal_questions","survey-likert","180","522210","0.0-6.0-6.24","2220503","co38446","norming","","","{""aha"":0}","[0]","../img/tt/306tt.jpg","",""
"null","<div style=""font-size:60px;""> </div>","null","fixation","html-keyboard-response","181","522419","0.0-6.0-0.25","2220503","co38446","norming","","","","","","",""
"null","../img/tt/194tt.jpg","null","mooney1","image-keyboard-response","182","525435","0.0-6.0-1.25","2220503","co38446","norming","","","","","","",""
"4526.704999618232","","","post_mooney1_questions","survey-likert","183","529964","0.0-6.0-2.25","2220503","co38446","norming","","","{""curiosity"":1,""confidence"":4}","[0,1]","../img/tt/194tt.jpg","",""
"1623.399999924004","","","recognition","survey-text","184","531591","0.0-6.0-3.25","2220503","co38446","norming","","","{""guess"":""vrouw""}","","../img/tt/194tt.jpg","",""
"null","../img/gs/194gs.jpg","null","reveal","image-keyboard-response","185","533608","0.0-6.0-4.25","2220503","co38446","norming","","","","","","",""
"null","../img/tt/194tt.jpg","null","mooney2","image-keyboard-response","186","535616","0.0-6.0-5.25","2220503","co38446","norming","","","","","","",""
"4819.900000002235","","","post_reveal_questions","survey-likert","187","540437","0.0-6.0-6.25","2220503","co38446","norming","","","{""aha"":0}","[0]","../img/tt/194tt.jpg","",""
"null","<div style=""font-size:60px;""> </div>","null","fixation","html-keyboard-response","188","540648","0.0-6.0-0.26","2220503","co38446","norming","","","","","","",""
"null","../img/tt/1260tt.jpg","null","mooney1","image-keyboard-response","189","543653","0.0-6.0-1.26","2220503","co38446","norming","","","","","","",""
"3017.1699998900294","","","post_mooney1_questions","survey-likert","190","546671","0.0-6.0-2.26","2220503","co38446","norming","","","{""curiosity"":6,""confidence"":2}","[0,1]","../img/tt/1260tt.jpg","",""
"1850.3849999979138","","","recognition","survey-text","191","548525","0.0-6.0-3.26","2220503","co38446","norming","","","{""guess"":""strand""}","","../img/tt/1260tt.jpg","",""
"null","../img/gs/1260gs.jpg","null","reveal","image-keyboard-response","192","550527","0.0-6.0-4.26","2220503","co38446","norming","","","","","","",""
"null","../img/tt/1260tt.jpg","null","mooney2","image-keyboard-response","193","552529","0.0-6.0-5.26","2220503","co38446","norming","","","","","","",""
"1893.560000229627","","","post_reveal_questions","survey-likert","194","554424","0.0-6.0-6.26","2220503","co38446","norming","","","{""aha"":5}","[0]","../img/tt/1260tt.jpg","",""
"null","<div style=""font-size:60px;""> </div>","null","fixation","html-keyboard-response","195","554636","0.0-6.0-0.27","2220503","co38446","norming","","","","","","",""
"null","../img/tt/1142tt.jpg","null","mooney1","image-keyboard-response","196","557641","0.0-6.0-1.27","2220503","co38446","norming","","","","","","",""
"5252.449999563396","","","post_mooney1_questions","survey-likert","197","562895","0.0-6.0-2.27","2220503","co38446","norming","","","{""curiosity"":0,""confidence"":6}","[0,1]","../img/tt/1142tt.jpg","",""
"4679.975000210106","","","recognition","survey-text","198","567578","0.0-6.0-3.27","2220503","co38446","norming","","","{""guess"":""vrouw volleybal""}","","../img/tt/1142tt.jpg","",""
"null","../img/gs/1142gs.jpg","null","reveal","image-keyboard-response","199","569595","0.0-6.0-4.27","2220503","co38446","norming","","","","","","",""
"null","../img/tt/1142tt.jpg","null","mooney2","image-keyboard-response","200","571598","0.0-6.0-5.27","2220503","co38446","norming","","","","","","",""
"2585.2199997752905","","","post_reveal_questions","survey-likert","201","574185","0.0-6.0-6.27","2220503","co38446","norming","","","{""aha"":2}","[0]","../img/tt/1142tt.jpg","",""
"null","<div style=""font-size:60px;""> </div>","null","fixation","html-keyboard-response","202","574398","0.0-6.0-0.28","2220503","co38446","norming","","","","","","",""
"null","../img/tt/080tt.jpg","null","mooney1","image-keyboard-response","203","577399","0.0-6.0-1.28","2220503","co38446","norming","","","","","","",""
"4065.7999999821186","","","post_mooney1_questions","survey-likert","204","581467","0.0-6.0-2.28","2220503","co38446","norming","","","{""curiosity"":6,""confidence"":2}","[0,1]","../img/tt/080tt.jpg","",""
"1671.7899995855987","","","recognition","survey-text","205","583141","0.0-6.0-3.28","2220503","co38446","norming","","","{""guess"":""tijger""}","","../img/tt/080tt.jpg","",""
"null","../img/gs/080gs.jpg","null","reveal","image-keyboard-response","206","585150","0.0-6.0-4.28","2220503","co38446","norming","","","","","","",""
"null","../img/tt/080tt.jpg","null","mooney2","image-keyboard-response","207","587152","0.0-6.0-5.28","2220503","co38446","norming","","","","","","",""
"2393.295000307262","","","post_reveal_questions","survey-likert","208","589547","0.0-6.0-6.28","2220503","co38446","norming","","","{""aha"":2}","[0]","../img/tt/080tt.jpg","",""
"null","<div style=""font-size:60px;""> </div>","null","fixation","html-keyboard-response","209","589761","0.0-6.0-0.29","2220503","co38446","norming","","","","","","",""
"null","../img/tt/126tt.jpg","null","mooney1","image-keyboard-response","210","592767","0.0-6.0-1.29","2220503","co38446","norming","","","","","","",""
"3602.4349997751415","","","post_mooney1_questions","survey-likert","211","596371","0.0-6.0-2.29","2220503","co38446","norming","","","{""curiosity"":3,""confidence"":5}","[0,1]","../img/tt/126tt.jpg","",""
"2134.9100000225008","","","recognition","survey-text","212","598509","0.0-6.0-3.29","2220503","co38446","norming","","","{""guess"":""koe""}","","../img/tt/126tt.jpg","",""
"null","../img/gs/126gs.jpg","null","reveal","image-keyboard-response","213","600513","0.0-6.0-4.29","2220503","co38446","norming","","","","","","",""
"null","../img/tt/126tt.jpg","null","mooney2","image-keyboard-response","214","602516","0.0-6.0-5.29","2220503","co38446","norming","","","","","","",""
"1560.9549996443093","","","post_reveal_questions","survey-likert","215","604079","0.0-6.0-6.29","2220503","co38446","norming","","","{""aha"":0}","[0]","../img/tt/126tt.jpg","",""
"null","<div style=""font-size:60px;""> </div>","null","fixation","html-keyboard-response","216","604293","0.0-6.0-0.30","2220503","co38446","norming","","","","","","",""
"null","../img/tt/078tt.jpg","null","mooney1","image-keyboard-response","217","607297","0.0-6.0-1.30","2220503","co38446","norming","","","","","","",""
"5213.975000195205","","","post_mooney1_questions","survey-likert","218","612513","0.0-6.0-2.30","2220503","co38446","norming","","","{""curiosity"":6,""confidence"":0}","[0,1]","../img/tt/078tt.jpg","",""
"1016.5900001302361","","","recognition","survey-text","219","613533","0.0-6.0-3.30","2220503","co38446","norming","","","{""guess"":""""}","","../img/tt/078tt.jpg","",""
"null","../img/gs/078gs.jpg","null","reveal","image-keyboard-response","220","615536","0.0-6.0-4.30","2220503","co38446","norming","","","","","","",""
"null","../img/tt/078tt.jpg","null","mooney2","image-keyboard-response","221","617543","0.0-6.0-5.30","2220503","co38446","norming","","","","","","",""
"1546.2899999693036","","","post_reveal_questions","survey-likert","222","619091","0.0-6.0-6.30","2220503","co38446","norming","","","{""aha"":1}","[0]","../img/tt/078tt.jpg","",""
"null","<div style=""font-size:60px;""> </div>","null","fixation","html-keyboard-response","223","619308","0.0-6.0-0.31","2220503","co38446","norming","","","","","","",""
"null","../img/tt/1363tt.jpg","null","mooney1","image-keyboard-response","224","622326","0.0-6.0-1.31","2220503","co38446","norming","","","","","","",""
"3961.9249999523163","","","post_mooney1_questions","survey-likert","225","626290","0.0-6.0-2.31","2220503","co38446","norming","","","{""curiosity"":4,""confidence"":4}","[0,1]","../img/tt/1363tt.jpg","",""
"2229.9300003796816","","","recognition","survey-text","226","628523","0.0-6.0-3.31","2220503","co38446","norming","","","{""guess"":""theepot""}","","../img/tt/1363tt.jpg","",""
"null","../img/gs/1363gs.jpg","null","reveal","image-keyboard-response","227","630525","0.0-6.0-4.31","2220503","co38446","norming","","","","","","",""
"null","../img/tt/1363tt.jpg","null","mooney2","image-keyboard-response","228","632529","0.0-6.0-5.31","2220503","co38446","norming","","","","","","",""
"1793.939999770373","","","post_reveal_questions","survey-likert","229","634324","0.0-6.0-6.31","2220503","co38446","norming","","","{""aha"":3}","[0]","../img/tt/1363tt.jpg","",""
"null","<div style=""font-size:60px;""> </div>","null","fixation","html-keyboard-response","230","634541","0.0-6.0-0.32","2220503","co38446","norming","","","","","","",""
"null","../img/tt/094tt.jpg","null","mooney1","image-keyboard-response","231","637551","0.0-6.0-1.32","2220503","co38446","norming","","","","","","",""
"4634.639999829233","","","post_mooney1_questions","survey-likert","232","642188","0.0-6.0-2.32","2220503","co38446","norming","","","{""curiosity"":6,""confidence"":1}","[0,1]","../img/tt/094tt.jpg","",""
"1181.0800000093877","","","recognition","survey-text","233","643372","0.0-6.0-3.32","2220503","co38446","norming","","","{""guess"":""koe""}","","../img/tt/094tt.jpg","",""
"null","../img/gs/094gs.jpg","null","reveal","image-keyboard-response","234","645381","0.0-6.0-4.32","2220503","co38446","norming","","","","","","",""
"null","../img/tt/094tt.jpg","null","mooney2","image-keyboard-response","235","647397","0.0-6.0-5.32","2220503","co38446","norming","","","","","","",""
"1965.1549998670816","","","post_reveal_questions","survey-likert","236","649364","0.0-6.0-6.32","2220503","co38446","norming","","","{""aha"":4}","[0]","../img/tt/094tt.jpg","",""
"null","<div style=""font-size:60px;""> </div>","null","fixation","html-keyboard-response","237","649577","0.0-6.0-0.33","2220503","co38446","norming","","","","","","",""
"null","../img/tt/442tt.jpg","null","mooney1","image-keyboard-response","238","652579","0.0-6.0-1.33","2220503","co38446","norming","","","","","","",""
"3737.0950002223253","","","post_mooney1_questions","survey-likert","239","656318","0.0-6.0-2.33","2220503","co38446","norming","","","{""curiosity"":6,""confidence"":1}","[0,1]","../img/tt/442tt.jpg","",""
"1278.1149996444583","","","recognition","survey-text","240","657600","0.0-6.0-3.33","2220503","co38446","norming","","","{""guess"":""ananas""}","","../img/tt/442tt.jpg","",""
"null","../img/gs/442gs.jpg","null","reveal","image-keyboard-response","241","659613","0.0-6.0-4.33","2220503","co38446","norming","","","","","","",""
"null","../img/tt/442tt.jpg","null","mooney2","image-keyboard-response","242","661616","0.0-6.0-5.33","2220503","co38446","norming","","","","","","",""
"2484.1800001449883","","","post_reveal_questions","survey-likert","243","664101","0.0-6.0-6.33","2220503","co38446","norming","","","{""aha"":6}","[0]","../img/tt/442tt.jpg","",""
"null","<div style=""font-size:60px;""> </div>","null","fixation","html-keyboard-response","244","664305","0.0-6.0-0.34","2220503","co38446","norming","","","","","","",""
"null","../img/tt/064tt.jpg","null","mooney1","image-keyboard-response","245","667308","0.0-6.0-1.34","2220503","co38446","norming","","","","","","",""
"3878.804999869317","","","post_mooney1_questions","survey-likert","246","671190","0.0-6.0-2.34","2220503","co38446","norming","","","{""curiosity"":6,""confidence"":0}","[0,1]","../img/tt/064tt.jpg","",""
"779.8250000923872","","","recognition","survey-text","247","671972","0.0-6.0-3.34","2220503","co38446","norming","","","{""guess"":""""}","","../img/tt/064tt.jpg","",""
"null","../img/gs/064gs.jpg","null","reveal","image-keyboard-response","248","673979","0.0-6.0-4.34","2220503","co38446","norming","","","","","","",""
"null","../img/tt/064tt.jpg","null","mooney2","image-keyboard-response","249","675982","0.0-6.0-5.34","2220503","co38446","norming","","","","","","",""
"5552.355000283569","","","post_reveal_questions","survey-likert","250","681536","0.0-6.0-6.34","2220503","co38446","norming","","","{""aha"":4}","[0]","../img/tt/064tt.jpg","",""
"null","<div style=""font-size:60px;""> </div>","null","fixation","html-keyboard-response","251","681741","0.0-6.0-0.35","2220503","co38446","norming","","","","","","",""
"null","../img/tt/1089tt.jpg","null","mooney1","image-keyboard-response","252","684747","0.0-6.0-1.35","2220503","co38446","norming","","","","","","",""
"3859.62999984622","","","post_mooney1_questions","survey-likert","253","688609","0.0-6.0-2.35","2220503","co38446","norming","","","{""curiosity"":4,""confidence"":2}","[0,1]","../img/tt/1089tt.jpg","",""
"2573.350000195205","","","recognition","survey-text","254","691185","0.0-6.0-3.35","2220503","co38446","norming","","","{""guess"":""woonkamer""}","","../img/tt/1089tt.jpg","",""
"null","../img/gs/1089gs.jpg","null","reveal","image-keyboard-response","255","693199","0.0-6.0-4.35","2220503","co38446","norming","","","","","","",""
"null","../img/tt/1089tt.jpg","null","mooney2","image-keyboard-response","256","695201","0.0-6.0-5.35","2220503","co38446","norming","","","","","","",""
"1506.0149999335408","","","post_reveal_questions","survey-likert","257","696709","0.0-6.0-6.35","2220503","co38446","norming","","","{""aha"":3}","[0]","../img/tt/1089tt.jpg","",""
"null","<div style=""font-size:60px;""> </div>","null","fixation","html-keyboard-response","258","696922","0.0-6.0-0.36","2220503","co38446","norming","","","","","","",""
"null","../img/tt/032tt.jpg","null","mooney1","image-keyboard-response","259","699938","0.0-6.0-1.36","2220503","co38446","norming","","","","","","",""
"4241.344999987632","","","post_mooney1_questions","survey-likert","260","704181","0.0-6.0-2.36","2220503","co38446","norming","","","{""curiosity"":2,""confidence"":4}","[0,1]","../img/tt/032tt.jpg","",""
"1916.909999679774","","","recognition","survey-text","261","706102","0.0-6.0-3.36","2220503","co38446","norming","","","{""guess"":""slang""}","","../img/tt/032tt.jpg","",""
"null","../img/gs/032gs.jpg","null","reveal","image-keyboard-response","262","708119","0.0-6.0-4.36","2220503","co38446","norming","","","","","","",""
"null","../img/tt/032tt.jpg","null","mooney2","image-keyboard-response","263","710121","0.0-6.0-5.36","2220503","co38446","norming","","","","","","",""
"1810.0800001993775","","","post_reveal_questions","survey-likert","264","711932","0.0-6.0-6.36","2220503","co38446","norming","","","{""aha"":1}","[0]","../img/tt/032tt.jpg","",""
"null","<div style=""font-size:60px;""> </div>","null","fixation","html-keyboard-response","265","712138","0.0-6.0-0.37","2220503","co38446","norming","","","","","","",""
"null","../img/tt/353tt.jpg","null","mooney1","image-keyboard-response","266","715151","0.0-6.0-1.37","2220503","co38446","norming","","","","","","",""
"3942.1650003641844","","","post_mooney1_questions","survey-likert","267","719094","0.0-6.0-2.37","2220503","co38446","norming","","","{""curiosity"":6,""confidence"":1}","[0,1]","../img/tt/353tt.jpg","",""
"1564.710000064224","","","recognition","survey-text","268","720662","0.0-6.0-3.37","2220503","co38446","norming","","","{""guess"":""konijn""}","","../img/tt/353tt.jpg","",""
"null","../img/gs/353gs.jpg","null","reveal","image-keyboard-response","269","722664","0.0-6.0-4.37","2220503","co38446","norming","","","","","","",""
"null","../img/tt/353tt.jpg","null","mooney2","image-keyboard-response","270","724665","0.0-6.0-5.37","2220503","co38446","norming","","","","","","",""
"1722.5199998356402","","","post_reveal_questions","survey-likert","271","726389","0.0-6.0-6.37","2220503","co38446","norming","","","{""aha"":4}","[0]","../img/tt/353tt.jpg","",""
"null","<div style=""font-size:60px;""> </div>","null","fixation","html-keyboard-response","272","726605","0.0-6.0-0.38","2220503","co38446","norming","","","","","","",""
"null","../img/tt/300tt.jpg","null","mooney1","image-keyboard-response","273","729617","0.0-6.0-1.38","2220503","co38446","norming","","","","","","",""
"4580.004999879748","","","post_mooney1_questions","survey-likert","274","734199","0.0-6.0-2.38","2220503","co38446","norming","","","{""curiosity"":4,""confidence"":3}","[0,1]","../img/tt/300tt.jpg","",""
"2167.905000038445","","","recognition","survey-text","275","736370","0.0-6.0-3.38","2220503","co38446","norming","","","{""guess"":""kangeroo""}","","../img/tt/300tt.jpg","",""
"null","../img/gs/300gs.jpg","null","reveal","image-keyboard-response","276","738374","0.0-6.0-4.38","2220503","co38446","norming","","","","","","",""
"null","../img/tt/300tt.jpg","null","mooney2","image-keyboard-response","277","740389","0.0-6.0-5.38","2220503","co38446","norming","","","","","","",""
"3043.945000041276","","","post_reveal_questions","survey-likert","278","743435","0.0-6.0-6.38","2220503","co38446","norming","","","{""aha"":6}","[0]","../img/tt/300tt.jpg","",""
"null","<div style=""font-size:60px;""> </div>","null","fixation","html-keyboard-response","279","743651","0.0-6.0-0.39","2220503","co38446","norming","","","","","","",""
"null","../img/tt/105tt.jpg","null","mooney1","image-keyboard-response","280","746667","0.0-6.0-1.39","2220503","co38446","norming","","","","","","",""
"4316.305000334978","","","post_mooney1_questions","survey-likert","281","750985","0.0-6.0-2.39","2220503","co38446","norming","","","{""curiosity"":6,""confidence"":1}","[0,1]","../img/tt/105tt.jpg","",""
"1160.0850000977516","","","recognition","survey-text","282","752148","0.0-6.0-3.39","2220503","co38446","norming","","","{""guess"":""stenen""}","","../img/tt/105tt.jpg","",""
"null","../img/gs/105gs.jpg","null","reveal","image-keyboard-response","283","754153","0.0-6.0-4.39","2220503","co38446","norming","","","","","","",""
"null","../img/tt/105tt.jpg","null","mooney2","image-keyboard-response","284","756158","0.0-6.0-5.39","2220503","co38446","norming","","","","","","",""
"2438.5299999266863","","","post_reveal_questions","survey-likert","285","758598","0.0-6.0-6.39","2220503","co38446","norming","","","{""aha"":1}","[0]","../img/tt/105tt.jpg","",""
"null","<div style=""font-size:60px;""> </div>","null","fixation","html-keyboard-response","286","758814","0.0-6.0-0.40","2220503","co38446","norming","","","","","","",""
"null","../img/tt/1226tt.jpg","null","mooney1","image-keyboard-response","287","761823","0.0-6.0-1.40","2220503","co38446","norming","","","","","","",""
"4507.83499982208","","","post_mooney1_questions","survey-likert","288","766332","0.0-6.0-2.40","2220503","co38446","norming","","","{""curiosity"":5,""confidence"":4}","[0,1]","../img/tt/1226tt.jpg","",""
"1917.125000152737","","","recognition","survey-text","289","768252","0.0-6.0-3.40","2220503","co38446","norming","","","{""guess"":""zwaan""}","","../img/tt/1226tt.jpg","",""
"null","../img/gs/1226gs.jpg","null","reveal","image-keyboard-response","290","770256","0.0-6.0-4.40","2220503","co38446","norming","","","","","","",""
"null","../img/tt/1226tt.jpg","null","mooney2","image-keyboard-response","291","772269","0.0-6.0-5.40","2220503","co38446","norming","","","","","","",""
"2316.6300002485514","","","post_reveal_questions","survey-likert","292","774587","0.0-6.0-6.40","2220503","co38446","norming","","","{""aha"":4}","[0]","../img/tt/1226tt.jpg","",""
"null","<div style=""font-size:60px;""> </div>","null","fixation","html-keyboard-response","293","774796","0.0-6.0-0.41","2220503","co38446","norming","","","","","","",""
"null","../img/tt/1217tt.jpg","null","mooney1","image-keyboard-response","294","777806","0.0-6.0-1.41","2220503","co38446","norming","","","","","","",""
"3511.5149999037385","","","post_mooney1_questions","survey-likert","295","781319","0.0-6.0-2.41","2220503","co38446","norming","","","{""curiosity"":6,""confidence"":0}","[0,1]","../img/tt/1217tt.jpg","",""
"1073.4000001102686","","","recognition","survey-text","296","782396","0.0-6.0-3.41","2220503","co38446","norming","","","{""guess"":""""}","","../img/tt/1217tt.jpg","",""
"null","../img/gs/1217gs.jpg","null","reveal","image-keyboard-response","297","784409","0.0-6.0-4.41","2220503","co38446","norming","","","","","","",""
"null","../img/tt/1217tt.jpg","null","mooney2","image-keyboard-response","298","786414","0.0-6.0-5.41","2220503","co38446","norming","","","","","","",""
"2735.0999996997416","","","post_reveal_questions","survey-likert","299","789151","0.0-6.0-6.41","2220503","co38446","norming","","","{""aha"":1}","[0]","../img/tt/1217tt.jpg","",""
"null","<div style=""font-size:60px;""> </div>","null","fixation","html-keyboard-response","300","789363","0.0-6.0-0.42","2220503","co38446","norming","","","","","","",""
"null","../img/tt/1128tt.jpg","null","mooney1","image-keyboard-response","301","792376","0.0-6.0-1.42","2220503","co38446","norming","","","","","","",""
"3897.334999870509","","","post_mooney1_questions","survey-likert","302","796275","0.0-6.0-2.42","2220503","co38446","norming","","","{""curiosity"":5,""confidence"":4}","[0,1]","../img/tt/1128tt.jpg","",""
"2193.4650000184774","","","recognition","survey-text","303","798471","0.0-6.0-3.42","2220503","co38446","norming","","","{""guess"":""vrouw""}","","../img/tt/1128tt.jpg","",""
"null","../img/gs/1128gs.jpg","null","reveal","image-keyboard-response","304","800478","0.0-6.0-4.42","2220503","co38446","norming","","","","","","",""
"null","../img/tt/1128tt.jpg","null","mooney2","image-keyboard-response","305","802480","0.0-6.0-5.42","2220503","co38446","norming","","","","","","",""
"1618.2699999772012","","","post_reveal_questions","survey-likert","306","804100","0.0-6.0-6.42","2220503","co38446","norming","","","{""aha"":6}","[0]","../img/tt/1128tt.jpg","",""
"null","<div style=""font-size:60px;""> </div>","null","fixation","html-keyboard-response","307","804311","0.0-6.0-0.43","2220503","co38446","norming","","","","","","",""
"null","../img/tt/1096tt.jpg","null","mooney1","image-keyboard-response","308","807326","0.0-6.0-1.43","2220503","co38446","norming","","","","","","",""
"4362.389999907464","","","post_mooney1_questions","survey-likert","309","811690","0.0-6.0-2.43","2220503","co38446","norming","","","{""curiosity"":5,""confidence"":0}","[0,1]","../img/tt/1096tt.jpg","",""
"792.9949997924268","","","recognition","survey-text","310","812486","0.0-6.0-3.43","2220503","co38446","norming","","","{""guess"":""""}","","../img/tt/1096tt.jpg","",""
"null","../img/gs/1096gs.jpg","null","reveal","image-keyboard-response","311","814488","0.0-6.0-4.43","2220503","co38446","norming","","","","","","",""
"null","../img/tt/1096tt.jpg","null","mooney2","image-keyboard-response","312","816490","0.0-6.0-5.43","2220503","co38446","norming","","","","","","",""
"1626.489999704063","","","post_reveal_questions","survey-likert","313","818118","0.0-6.0-6.43","2220503","co38446","norming","","","{""aha"":1}","[0]","../img/tt/1096tt.jpg","",""
"null","<div style=""font-size:60px;""> </div>","null","fixation","html-keyboard-response","314","818325","0.0-6.0-0.44","2220503","co38446","norming","","","","","","",""
"null","../img/tt/534tt.jpg","null","mooney1","image-keyboard-response","315","821330","0.0-6.0-1.44","2220503","co38446","norming","","","","","","",""
"10309.750000014901","","","post_mooney1_questions","survey-likert","316","831642","0.0-6.0-2.44","2220503","co38446","norming","","","{""curiosity"":3,""confidence"":6}","[0,1]","../img/tt/534tt.jpg","",""
"2896.435000002384","","","recognition","survey-text","317","834542","0.0-6.0-3.44","2220503","co38446","norming","","","{""guess"":""cactus""}","","../img/tt/534tt.jpg","",""
"null","../img/gs/534gs.jpg","null","reveal","image-keyboard-response","318","836544","0.0-6.0-4.44","2220503","co38446","norming","","","","","","",""
"null","../img/tt/534tt.jpg","null","mooney2","image-keyboard-response","319","838548","0.0-6.0-5.44","2220503","co38446","norming","","","","","","",""
"4993.879999965429","","","post_reveal_questions","survey-likert","320","843545","0.0-6.0-6.44","2220503","co38446","norming","","","{""aha"":0}","[0]","../img/tt/534tt.jpg","",""
"null","<div style=""font-size:60px;""> </div>","null","fixation","html-keyboard-response","321","843755","0.0-6.0-0.45","2220503","co38446","norming","","","","","","",""
"null","../img/tt/1033tt.jpg","null","mooney1","image-keyboard-response","322","846762","0.0-6.0-1.45","2220503","co38446","norming","","","","","","",""
"4658.635000232607","","","post_mooney1_questions","survey-likert","323","851422","0.0-6.0-2.45","2220503","co38446","norming","","","{""curiosity"":6,""confidence"":1}","[0,1]","../img/tt/1033tt.jpg","",""
"1239.9100000038743","","","recognition","survey-text","324","852665","0.0-6.0-3.45","2220503","co38446","norming","","","{""guess"":""pijl""}","","../img/tt/1033tt.jpg","",""
"null","../img/gs/1033gs.jpg","null","reveal","image-keyboard-response","325","854677","0.0-6.0-4.45","2220503","co38446","norming","","","","","","",""
"null","../img/tt/1033tt.jpg","null","mooney2","image-keyboard-response","326","856682","0.0-6.0-5.45","2220503","co38446","norming","","","","","","",""
"2393.554999958724","","","post_reveal_questions","survey-likert","327","859076","0.0-6.0-6.45","2220503","co38446","norming","","","{""aha"":3}","[0]","../img/tt/1033tt.jpg","",""
"null","<div style=""font-size:60px;""> </div>","null","fixation","html-keyboard-response","328","859291","0.0-6.0-0.46","2220503","co38446","norming","","","","","","",""
"null","../img/tt/549tt.jpg","null","mooney1","image-keyboard-response","329","862305","0.0-6.0-1.46","2220503","co38446","norming","","","","","","",""
"3636.5849999710917","","","post_mooney1_questions","survey-likert","330","865943","0.0-6.0-2.46","2220503","co38446","norming","","","{""curiosity"":6,""confidence"":0}","[0,1]","../img/tt/549tt.jpg","",""
"1062.4649999663234","","","recognition","survey-text","331","867008","0.0-6.0-3.46","2220503","co38446","norming","","","{""guess"":""""}","","../img/tt/549tt.jpg","",""
"null","../img/gs/549gs.jpg","null","reveal","image-keyboard-response","332","869010","0.0-6.0-4.46","2220503","co38446","norming","","","","","","",""
"null","../img/tt/549tt.jpg","null","mooney2","image-keyboard-response","333","871014","0.0-6.0-5.46","2220503","co38446","norming","","","","","","",""
"2043.2400000281632","","","post_reveal_questions","survey-likert","334","873058","0.0-6.0-6.46","2220503","co38446","norming","","","{""aha"":0}","[0]","../img/tt/549tt.jpg","",""
"null","<div style=""font-size:60px;""> </div>","null","fixation","html-keyboard-response","335","873269","0.0-6.0-0.47","2220503","co38446","norming","","","","","","",""
"null","../img/tt/580tt.jpg","null","mooney1","image-keyboard-response","336","876285","0.0-6.0-1.47","2220503","co38446","norming","","","","","","",""
"4221.425000112504","","","post_mooney1_questions","survey-likert","337","880508","0.0-6.0-2.47","2220503","co38446","norming","","","{""curiosity"":5,""confidence"":0}","[0,1]","../img/tt/580tt.jpg","",""
"3006.1949999071658","","","recognition","survey-text","338","883518","0.0-6.0-3.47","2220503","co38446","norming","","","{""guess"":""muur""}","","../img/tt/580tt.jpg","",""
"null","../img/gs/580gs.jpg","null","reveal","image-keyboard-response","339","885521","0.0-6.0-4.47","2220503","co38446","norming","","","","","","",""
"null","../img/tt/580tt.jpg","null","mooney2","image-keyboard-response","340","887523","0.0-6.0-5.47","2220503","co38446","norming","","","","","","",""
"3545.195000246167","","","post_reveal_questions","survey-likert","341","891070","0.0-6.0-6.47","2220503","co38446","norming","","","{""aha"":3}","[0]","../img/tt/580tt.jpg","",""
"null","<div style=""font-size:60px;""> </div>","null","fixation","html-keyboard-response","342","891284","0.0-6.0-0.48","2220503","co38446","norming","","","","","","",""
"null","../img/tt/1290tt.jpg","null","mooney1","image-keyboard-response","343","894288","0.0-6.0-1.48","2220503","co38446","norming","","","","","","",""
"4115.360000170767","","","post_mooney1_questions","survey-likert","344","898405","0.0-6.0-2.48","2220503","co38446","norming","","","{""curiosity"":6,""confidence"":1}","[0,1]","../img/tt/1290tt.jpg","",""
"4638.964999932796","","","recognition","survey-text","345","903047","0.0-6.0-3.48","2220503","co38446","norming","","","{""guess"":""granaat""}","","../img/tt/1290tt.jpg","",""
"null","../img/gs/1290gs.jpg","null","reveal","image-keyboard-response","346","905052","0.0-6.0-4.48","2220503","co38446","norming","","","","","","",""
"null","../img/tt/1290tt.jpg","null","mooney2","image-keyboard-response","347","907059","0.0-6.0-5.48","2220503","co38446","norming","","","","","","",""
"2828.325000125915","","","post_reveal_questions","survey-likert","348","909888","0.0-6.0-6.48","2220503","co38446","norming","","","{""aha"":4}","[0]","../img/tt/1290tt.jpg","",""
"null","<div style=""font-size:60px;""> </div>","null","fixation","html-keyboard-response","349","910100","0.0-6.0-0.49","2220503","co38446","norming","","","","","","",""
"null","../img/tt/552tt.jpg","null","mooney1","image-keyboard-response","350","913109","0.0-6.0-1.49","2220503","co38446","norming","","","","","","",""
"4821.835000067949","","","post_mooney1_questions","survey-likert","351","917933","0.0-6.0-2.49","2220503","co38446","norming","","","{""curiosity"":4,""confidence"":5}","[0,1]","../img/tt/552tt.jpg","",""
"2148.4650000929832","","","recognition","survey-text","352","920085","0.0-6.0-3.49","2220503","co38446","norming","","","{""guess"":""stinkdie""}","","../img/tt/552tt.jpg","",""
"null","../img/gs/552gs.jpg","null","reveal","image-keyboard-response","353","922096","0.0-6.0-4.49","2220503","co38446","norming","","","","","","",""
"null","../img/tt/552tt.jpg","null","mooney2","image-keyboard-response","354","924098","0.0-6.0-5.49","2220503","co38446","norming","","","","","","",""
"4669.169999659061","","","post_reveal_questions","survey-likert","355","928769","0.0-6.0-6.49","2220503","co38446","norming","","","{""aha"":2}","[0]","../img/tt/552tt.jpg","",""
"null","<div style=""font-size:60px;""> </div>","null","fixation","html-keyboard-response","356","928981","0.0-6.0-0.50","2220503","co38446","norming","","","","","","",""
"null","../img/tt/559tt.jpg","null","mooney1","image-keyboard-response","357","931987","0.0-6.0-1.50","2220503","co38446","norming","","","","","","",""
"5626.510000322014","","","post_mooney1_questions","survey-likert","358","937616","0.0-6.0-2.50","2220503","co38446","norming","","","{""curiosity"":6,""confidence"":0}","[0,1]","../img/tt/559tt.jpg","",""
"4947.8750000707805","","","recognition","survey-text","359","942566","0.0-6.0-3.50","2220503","co38446","norming","","","{""guess"":""""}","","../img/tt/559tt.jpg","",""
"null","../img/gs/559gs.jpg","null","reveal","image-keyboard-response","360","944568","0.0-6.0-4.50","2220503","co38446","norming","","","","","","",""
"null","../img/tt/559tt.jpg","null","mooney2","image-keyboard-response","361","946572","0.0-6.0-5.50","2220503","co38446","norming","","","","","","",""
"2294.5099999196827","","","post_reveal_questions","survey-likert","362","948868","0.0-6.0-6.50","2220503","co38446","norming","","","{""aha"":4}","[0]","../img/tt/559tt.jpg","",""
"null","<div style=""font-size:60px;""> </div>","null","fixation","html-keyboard-response","363","949079","0.0-6.0-0.51","2220503","co38446","norming","","","","","","",""
"null","../img/tt/1236tt.jpg","null","mooney1","image-keyboard-response","364","952081","0.0-6.0-1.51","2220503","co38446","norming","","","","","","",""
"4326.640000101179","","","post_mooney1_questions","survey-likert","365","956410","0.0-6.0-2.51","2220503","co38446","norming","","","{""curiosity"":5,""confidence"":2}","[0,1]","../img/tt/1236tt.jpg","",""
"1199.3549996986985","","","recognition","survey-text","366","957613","0.0-6.0-3.51","2220503","co38446","norming","","","{""guess"":""stenen""}","","../img/tt/1236tt.jpg","",""
"null","../img/gs/1236gs.jpg","null","reveal","image-keyboard-response","367","959615","0.0-6.0-4.51","2220503","co38446","norming","","","","","","",""
"null","../img/tt/1236tt.jpg","null","mooney2","image-keyboard-response","368","961616","0.0-6.0-5.51","2220503","co38446","norming","","","","","","",""
"1973.5599998384714","","","post_reveal_questions","survey-likert","369","963591","0.0-6.0-6.51","2220503","co38446","norming","","","{""aha"":1}","[0]","../img/tt/1236tt.jpg","",""
"null","<div style=""font-size:60px;""> </div>","null","fixation","html-keyboard-response","370","963799","0.0-6.0-0.52","2220503","co38446","norming","","","","","","",""
"null","../img/tt/019tt.jpg","null","mooney1","image-keyboard-response","371","966801","0.0-6.0-1.52","2220503","co38446","norming","","","","","","",""
"3741.7199998162687","","","post_mooney1_questions","survey-likert","372","970545","0.0-6.0-2.52","2220503","co38446","norming","","","{""curiosity"":2,""confidence"":6}","[0,1]","../img/tt/019tt.jpg","",""
"1488.4949997067451","","","recognition","survey-text","373","972036","0.0-6.0-3.52","2220503","co38446","norming","","","{""guess"":""tang""}","","../img/tt/019tt.jpg","",""
"null","../img/gs/019gs.jpg","null","reveal","image-keyboard-response","374","974040","0.0-6.0-4.52","2220503","co38446","norming","","","","","","",""
"null","../img/tt/019tt.jpg","null","mooney2","image-keyboard-response","375","976042","0.0-6.0-5.52","2220503","co38446","norming","","","","","","",""
"1438.835000153631","","","post_reveal_questions","survey-likert","376","977482","0.0-6.0-6.52","2220503","co38446","norming","","","{""aha"":0}","[0]","../img/tt/019tt.jpg","",""
"null","<div style=""font-size:60px;""> </div>","null","fixation","html-keyboard-response","377","977692","0.0-6.0-0.53","2220503","co38446","norming","","","","","","",""
"null","../img/tt/1353tt.jpg","null","mooney1","image-keyboard-response","378","980710","0.0-6.0-1.53","2220503","co38446","norming","","","","","","",""
"3199.7899999842048","","","post_mooney1_questions","survey-likert","379","983911","0.0-6.0-2.53","2220503","co38446","norming","","","{""curiosity"":6,""confidence"":0}","[0,1]","../img/tt/1353tt.jpg","",""
"756.6349999979138","","","recognition","survey-text","380","984671","0.0-6.0-3.53","2220503","co38446","norming","","","{""guess"":""""}","","../img/tt/1353tt.jpg","",""
"null","../img/gs/1353gs.jpg","null","reveal","image-keyboard-response","381","986687","0.0-6.0-4.53","2220503","co38446","norming","","","","","","",""
"null","../img/tt/1353tt.jpg","null","mooney2","image-keyboard-response","382","988697","0.0-6.0-5.53","2220503","co38446","norming","","","","","","",""
"1706.4650002866983","","","post_reveal_questions","survey-likert","383","990405","0.0-6.0-6.53","2220503","co38446","norming","","","{""aha"":6}","[0]","../img/tt/1353tt.jpg","",""
"null","<div style=""font-size:60px;""> </div>","null","fixation","html-keyboard-response","384","990618","0.0-6.0-0.54","2220503","co38446","norming","","","","","","",""
"null","../img/tt/1097tt.jpg","null","mooney1","image-keyboard-response","385","993620","0.0-6.0-1.54","2220503","co38446","norming","","","","","","",""
"5354.495000094175","","","post_mooney1_questions","survey-likert","386","998976","0.0-6.0-2.54","2220503","co38446","norming","","","{""curiosity"":2,""confidence"":6}","[0,1]","../img/tt/1097tt.jpg","",""
"1316.1949999630451","","","recognition","survey-text","387","1000295","0.0-6.0-3.54","2220503","co38446","norming","","","{""guess"":""man""}","","../img/tt/1097tt.jpg","",""
"null","../img/gs/1097gs.jpg","null","reveal","image-keyboard-response","388","1002298","0.0-6.0-4.54","2220503","co38446","norming","","","","","","",""
"null","../img/tt/1097tt.jpg","null","mooney2","image-keyboard-response","389","1004300","0.0-6.0-5.54","2220503","co38446","norming","","","","","","",""
"1974.4800003245473","","","post_reveal_questions","survey-likert","390","1006277","0.0-6.0-6.54","2220503","co38446","norming","","","{""aha"":5}","[0]","../img/tt/1097tt.jpg","",""
"null","<div style=""font-size:60px;""> </div>","null","fixation","html-keyboard-response","391","1006491","0.0-6.0-0.55","2220503","co38446","norming","","","","","","",""
"null","../img/tt/1191tt.jpg","null","mooney1","image-keyboard-response","392","1009499","0.0-6.0-1.55","2220503","co38446","norming","","","","","","",""
"3654.8999999649823","","","post_mooney1_questions","survey-likert","393","1013156","0.0-6.0-2.55","2220503","co38446","norming","","","{""curiosity"":6,""confidence"":1}","[0,1]","../img/tt/1191tt.jpg","",""
"1799.4550000876188","","","recognition","survey-text","394","1014958","0.0-6.0-3.55","2220503","co38446","norming","","","{""guess"":""danser""}","","../img/tt/1191tt.jpg","",""
"null","../img/gs/1191gs.jpg","null","reveal","image-keyboard-response","395","1016963","0.0-6.0-4.55","2220503","co38446","norming","","","","","","",""
"null","../img/tt/1191tt.jpg","null","mooney2","image-keyboard-response","396","1018964","0.0-6.0-5.55","2220503","co38446","norming","","","","","","",""
"2093.3500002138317","","","post_reveal_questions","survey-likert","397","1021059","0.0-6.0-6.55","2220503","co38446","norming","","","{""aha"":5}","[0]","../img/tt/1191tt.jpg","",""
"null","<div style=""font-size:60px;""> </div>","null","fixation","html-keyboard-response","398","1021273","0.0-6.0-0.56","2220503","co38446","norming","","","","","","",""
"null","../img/tt/163tt.jpg","null","mooney1","image-keyboard-response","399","1024275","0.0-6.0-1.56","2220503","co38446","norming","","","","","","",""
"3797.2900001332164","","","post_mooney1_questions","survey-likert","400","1028073","0.0-6.0-2.56","2220503","co38446","norming","","","{""curiosity"":6,""confidence"":0}","[0,1]","../img/tt/163tt.jpg","",""
"779.9300001934171","","","recognition","survey-text","401","1028855","0.0-6.0-3.56","2220503","co38446","norming","","","{""guess"":""""}","","../img/tt/163tt.jpg","",""
"null","../img/gs/163gs.jpg","null","reveal","image-keyboard-response","402","1030858","0.0-6.0-4.56","2220503","co38446","norming","","","","","","",""
"null","../img/tt/163tt.jpg","null","mooney2","image-keyboard-response","403","1032860","0.0-6.0-5.56","2220503","co38446","norming","","","","","","",""
"1617.7349998615682","","","post_reveal_questions","survey-likert","404","1034479","0.0-6.0-6.56","2220503","co38446","norming","","","{""aha"":2}","[0]","../img/tt/163tt.jpg","",""
"null","<div style=""font-size:60px;""> </div>","null","fixation","html-keyboard-response","405","1034690","0.0-6.0-0.57","2220503","co38446","norming","","","","","","",""
"null","../img/tt/1272tt.jpg","null","mooney1","image-keyboard-response","406","1037695","0.0-6.0-1.57","2220503","co38446","norming","","","","","","",""
"4355.855000205338","","","post_mooney1_questions","survey-likert","407","1042053","0.0-6.0-2.57","2220503","co38446","norming","","","{""curiosity"":6,""confidence"":0}","[0,1]","../img/tt/1272tt.jpg","",""
"1266.5550000965595","","","recognition","survey-text","408","1043322","0.0-6.0-3.57","2220503","co38446","norming","","","{""guess"":""ananas""}","","../img/tt/1272tt.jpg","",""
"null","../img/gs/1272gs.jpg","null","reveal","image-keyboard-response","409","1045328","0.0-6.0-4.57","2220503","co38446","norming","","","","","","",""
"null","../img/tt/1272tt.jpg","null","mooney2","image-keyboard-response","410","1047329","0.0-6.0-5.57","2220503","co38446","norming","","","","","","",""
"2875.609999988228","","","post_reveal_questions","survey-likert","411","1050206","0.0-6.0-6.57","2220503","co38446","norming","","","{""aha"":5}","[0]","../img/tt/1272tt.jpg","",""
"null","<div style=""font-size:60px;""> </div>","null","fixation","html-keyboard-response","412","1050419","0.0-6.0-0.58","2220503","co38446","norming","","","","","","",""
"null","../img/tt/1189tt.jpg","null","mooney1","image-keyboard-response","413","1053426","0.0-6.0-1.58","2220503","co38446","norming","","","","","","",""
"3888.7200001627207","","","post_mooney1_questions","survey-likert","414","1057317","0.0-6.0-2.58","2220503","co38446","norming","","","{""curiosity"":4,""confidence"":4}","[0,1]","../img/tt/1189tt.jpg","",""
"1592.7550001069903","","","recognition","survey-text","415","1058913","0.0-6.0-3.58","2220503","co38446","norming","","","{""guess"":""zwemmer""}","","../img/tt/1189tt.jpg","",""
"null","../img/gs/1189gs.jpg","null","reveal","image-keyboard-response","416","1060928","0.0-6.0-4.58","2220503","co38446","norming","","","","","","",""
"null","../img/tt/1189tt.jpg","null","mooney2","image-keyboard-response","417","1062930","0.0-6.0-5.58","2220503","co38446","norming","","","","","","",""
"2026.310000102967","","","post_reveal_questions","survey-likert","418","1064957","0.0-6.0-6.58","2220503","co38446","norming","","","{""aha"":2}","[0]","../img/tt/1189tt.jpg","",""
"null","<div style=""font-size:60px;""> </div>","null","fixation","html-keyboard-response","419","1065168","0.0-6.0-0.59","2220503","co38446","norming","","","","","","",""
"null","../img/tt/1227tt.jpg","null","mooney1","image-keyboard-response","420","1068173","0.0-6.0-1.59","2220503","co38446","norming","","","","","","",""
"4754.009999800473","","","post_mooney1_questions","survey-likert","421","1072929","0.0-6.0-2.59","2220503","co38446","norming","","","{""curiosity"":5,""confidence"":4}","[0,1]","../img/tt/1227tt.jpg","",""
"1576.7000000923872","","","recognition","survey-text","422","1074509","0.0-6.0-3.59","2220503","co38446","norming","","","{""guess"":""kippen""}","","../img/tt/1227tt.jpg","",""
"null","../img/gs/1227gs.jpg","null","reveal","image-keyboard-response","423","1076521","0.0-6.0-4.59","2220503","co38446","norming","","","","","","",""
"null","../img/tt/1227tt.jpg","null","mooney2","image-keyboard-response","424","1078525","0.0-6.0-5.59","2220503","co38446","norming","","","","","","",""
"2883.8700000196695","","","post_reveal_questions","survey-likert","425","1081411","0.0-6.0-6.59","2220503","co38446","norming","","","{""aha"":1}","[0]","../img/tt/1227tt.jpg","",""
"null","<div style=""font-size:60px;""> </div>","null","fixation","html-keyboard-response","426","1081618","0.0-6.0-0.60","2220503","co38446","norming","","","","","","",""
"null","../img/tt/1261tt.jpg","null","mooney1","image-keyboard-response","427","1084627","0.0-6.0-1.60","2220503","co38446","norming","","","","","","",""
"3646.7050001956522","","","post_mooney1_questions","survey-likert","428","1088275","0.0-6.0-2.60","2220503","co38446","norming","","","{""curiosity"":5,""confidence"":4}","[0,1]","../img/tt/1261tt.jpg","",""
"1078.3400000073016","","","recognition","survey-text","429","1089357","0.0-6.0-3.60","2220503","co38446","norming","","","{""guess"":""rund""}","","../img/tt/1261tt.jpg","",""
"null","../img/gs/1261gs.jpg","null","reveal","image-keyboard-response","430","1091361","0.0-6.0-4.60","2220503","co38446","norming","","","","","","",""
"null","../img/tt/1261tt.jpg","null","mooney2","image-keyboard-response","431","1093365","0.0-6.0-5.60","2220503","co38446","norming","","","","","","",""
"1630.4199998266995","","","post_reveal_questions","survey-likert","432","1094997","0.0-6.0-6.60","2220503","co38446","norming","","","{""aha"":6}","[0]","../img/tt/1261tt.jpg","",""
"null","<div style=""font-size:60px;""> </div>","null","fixation","html-keyboard-response","433","1095203","0.0-6.0-0.61","2220503","co38446","norming","","","","","","",""
"null","../img/tt/319tt.jpg","null","mooney1","image-keyboard-response","434","1098206","0.0-6.0-1.61","2220503","co38446","norming","","","","","","",""
"4903.6700003780425","","","post_mooney1_questions","survey-likert","435","1103111","0.0-6.0-2.61","2220503","co38446","norming","","","{""curiosity"":2,""confidence"":6}","[0,1]","../img/tt/319tt.jpg","",""
"920.7349997013807","","","recognition","survey-text","436","1104035","0.0-6.0-3.61","2220503","co38446","norming","","","{""guess"":""koe""}","","../img/tt/319tt.jpg","",""
"null","../img/gs/319gs.jpg","null","reveal","image-keyboard-response","437","1106038","0.0-6.0-4.61","2220503","co38446","norming","","","","","","",""
"null","../img/tt/319tt.jpg","null","mooney2","image-keyboard-response","438","1108043","0.0-6.0-5.61","2220503","co38446","norming","","","","","","",""
"2257.1300002746284","","","post_reveal_questions","survey-likert","439","1110301","0.0-6.0-6.61","2220503","co38446","norming","","","{""aha"":5}","[0]","../img/tt/319tt.jpg","",""
"null","<div style=""font-size:60px;""> </div>","null","fixation","html-keyboard-response","440","1110515","0.0-6.0-0.62","2220503","co38446","norming","","","","","","",""
"null","../img/tt/1086tt.jpg","null","mooney1","image-keyboard-response","441","1113517","0.0-6.0-1.62","2220503","co38446","norming","","","","","","",""
"6125.775000080466","","","post_mooney1_questions","survey-likert","442","1119645","0.0-6.0-2.62","2220503","co38446","norming","","","{""curiosity"":3,""confidence"":4}","[0,1]","../img/tt/1086tt.jpg","",""
"846.3400001637638","","","recognition","survey-text","443","1120494","0.0-6.0-3.62","2220503","co38446","norming","","","{""guess"":""koe""}","","../img/tt/1086tt.jpg","",""
"null","../img/gs/1086gs.jpg","null","reveal","image-keyboard-response","444","1122507","0.0-6.0-4.62","2220503","co38446","norming","","","","","","",""
"null","../img/tt/1086tt.jpg","null","mooney2","image-keyboard-response","445","1124511","0.0-6.0-5.62","2220503","co38446","norming","","","","","","",""
"1500.8550002239645","","","post_reveal_questions","survey-likert","446","1126014","0.0-6.0-6.62","2220503","co38446","norming","","","{""aha"":1}","[0]","../img/tt/1086tt.jpg","",""
"null","<div style=""font-size:60px;""> </div>","null","fixation","html-keyboard-response","447","1126216","0.0-6.0-0.63","2220503","co38446","norming","","","","","","",""
"null","../img/tt/1046tt.jpg","null","mooney1","image-keyboard-response","448","1129221","0.0-6.0-1.63","2220503","co38446","norming","","","","","","",""
"2975.639999844134","","","post_mooney1_questions","survey-likert","449","1132198","0.0-6.0-2.63","2220503","co38446","norming","","","{""curiosity"":6,""confidence"":0}","[0,1]","../img/tt/1046tt.jpg","",""
"682.9599998891354","","","recognition","survey-text","450","1132885","0.0-6.0-3.63","2220503","co38446","norming","","","{""guess"":""""}","","../img/tt/1046tt.jpg","",""
"null","../img/gs/1046gs.jpg","null","reveal","image-keyboard-response","451","1134902","0.0-6.0-4.63","2220503","co38446","norming","","","","","","",""
"null","../img/tt/1046tt.jpg","null","mooney2","image-keyboard-response","452","1136908","0.0-6.0-5.63","2220503","co38446","norming","","","","","","",""
"1715.1150000281632","","","post_reveal_questions","survey-likert","453","1138625","0.0-6.0-6.63","2220503","co38446","norming","","","{""aha"":3}","[0]","../img/tt/1046tt.jpg","",""
"null","<div style=""font-size:60px;""> </div>","null","fixation","html-keyboard-response","454","1138832","0.0-6.0-0.64","2220503","co38446","norming","","","","","","",""
"null","../img/tt/1243tt.jpg","null","mooney1","image-keyboard-response","455","1141834","0.0-6.0-1.64","2220503","co38446","norming","","","","","","",""
"5004.850000143051","","","post_mooney1_questions","survey-likert","456","1146841","0.0-6.0-2.64","2220503","co38446","norming","","","{""curiosity"":3,""confidence"":4}","[0,1]","../img/tt/1243tt.jpg","",""
"1489.5549998618662","","","recognition","survey-text","457","1148335","0.0-6.0-3.64","2220503","co38446","norming","","","{""guess"":""tijger""}","","../img/tt/1243tt.jpg","",""
"null","../img/gs/1243gs.jpg","null","reveal","image-keyboard-response","458","1150344","0.0-6.0-4.64","2220503","co38446","norming","","","","","","",""
"null","../img/tt/1243tt.jpg","null","mooney2","image-keyboard-response","459","1152349","0.0-6.0-5.64","2220503","co38446","norming","","","","","","",""
"1880.1899999380112","","","post_reveal_questions","survey-likert","460","1154231","0.0-6.0-6.64","2220503","co38446","norming","","","{""aha"":6}","[0]","../img/tt/1243tt.jpg","",""
"null","<div style=""font-size:60px;""> </div>","null","fixation","html-keyboard-response","461","1154436","0.0-6.0-0.65","2220503","co38446","norming","","","","","","",""
"null","../img/tt/1250tt.jpg","null","mooney1","image-keyboard-response","462","1157449","0.0-6.0-1.65","2220503","co38446","norming","","","","","","",""
"4448.634999804199","","","post_mooney1_questions","survey-likert","463","1161899","0.0-6.0-2.65","2220503","co38446","norming","","","{""curiosity"":5,""confidence"":4}","[0,1]","../img/tt/1250tt.jpg","",""
"1097.2549999132752","","","recognition","survey-text","464","1163000","0.0-6.0-3.65","2220503","co38446","norming","","","{""guess"":""eend""}","","../img/tt/1250tt.jpg","",""
"null","../img/gs/1250gs.jpg","null","reveal","image-keyboard-response","465","1165001","0.0-6.0-4.65","2220503","co38446","norming","","","","","","",""
"null","../img/tt/1250tt.jpg","null","mooney2","image-keyboard-response","466","1167002","0.0-6.0-5.65","2220503","co38446","norming","","","","","","",""
"2002.9450003057718","","","post_reveal_questions","survey-likert","467","1169007","0.0-6.0-6.65","2220503","co38446","norming","","","{""aha"":4}","[0]","../img/tt/1250tt.jpg","",""
"null","<div style=""font-size:60px;""> </div>","null","fixation","html-keyboard-response","468","1169213","0.0-6.0-0.66","2220503","co38446","norming","","","","","","",""
"null","../img/tt/124tt.jpg","null","mooney1","image-keyboard-response","469","1172217","0.0-6.0-1.66","2220503","co38446","norming","","","","","","",""
"2852.3800000548363","","","post_mooney1_questions","survey-likert","470","1175071","0.0-6.0-2.66","2220503","co38446","norming","","","{""curiosity"":1,""confidence"":6}","[0,1]","../img/tt/124tt.jpg","",""
"1010.5550000444055","","","recognition","survey-text","471","1176085","0.0-6.0-3.66","2220503","co38446","norming","","","{""guess"":""aap""}","","../img/tt/124tt.jpg","",""
"null","../img/gs/124gs.jpg","null","reveal","image-keyboard-response","472","1178087","0.0-6.0-4.66","2220503","co38446","norming","","","","","","",""
"null","../img/tt/124tt.jpg","null","mooney2","image-keyboard-response","473","1180090","0.0-6.0-5.66","2220503","co38446","norming","","","","","","",""
"2397.000000346452","","","post_reveal_questions","survey-likert","474","1182489","0.0-6.0-6.66","2220503","co38446","norming","","","{""aha"":0}","[0]","../img/tt/124tt.jpg","",""
"null","<div style=""font-size:60px;""> </div>","null","fixation","html-keyboard-response","475","1182694","0.0-6.0-0.67","2220503","co38446","norming","","","","","","",""
"null","../img/tt/456tt.jpg","null","mooney1","image-keyboard-response","476","1185701","0.0-6.0-1.67","2220503","co38446","norming","","","","","","",""
"3759.535000193864","","","post_mooney1_questions","survey-likert","477","1189462","0.0-6.0-2.67","2220503","co38446","norming","","","{""curiosity"":6,""confidence"":0}","[0,1]","../img/tt/456tt.jpg","",""
"639.1050000675023","","","recognition","survey-text","478","1190104","0.0-6.0-3.67","2220503","co38446","norming","","","{""guess"":""""}","","../img/tt/456tt.jpg","",""
"null","../img/gs/456gs.jpg","null","reveal","image-keyboard-response","479","1192110","0.0-6.0-4.67","2220503","co38446","norming","","","","","","",""
"null","../img/tt/456tt.jpg","null","mooney2","image-keyboard-response","480","1194118","0.0-6.0-5.67","2220503","co38446","norming","","","","","","",""
"1666.0099998116493","","","post_reveal_questions","survey-likert","481","1195786","0.0-6.0-6.67","2220503","co38446","norming","","","{""aha"":6}","[0]","../img/tt/456tt.jpg","",""
"null","<div style=""font-size:60px;""> </div>","null","fixation","html-keyboard-response","482","1195997","0.0-6.0-0.68","2220503","co38446","norming","","","","","","",""
"null","../img/tt/1171tt.jpg","null","mooney1","image-keyboard-response","483","1199002","0.0-6.0-1.68","2220503","co38446","norming","","","","","","",""
"13555.739999748766","","","post_mooney1_questions","survey-likert","484","1212558","0.0-6.0-2.68","2220503","co38446","norming","","","{""curiosity"":5,""confidence"":0}","[0,1]","../img/tt/1171tt.jpg","",""
"1734.54499989748","","","recognition","survey-text","485","1214295","0.0-6.0-3.68","2220503","co38446","norming","","","{""guess"":""""}","","../img/tt/1171tt.jpg","",""
"null","../img/gs/1171gs.jpg","null","reveal","image-keyboard-response","486","1216305","0.0-6.0-4.68","2220503","co38446","norming","","","","","","",""
"null","../img/tt/1171tt.jpg","null","mooney2","image-keyboard-response","487","1218317","0.0-6.0-5.68","2220503","co38446","norming","","","","","","",""
"2203.470000065863","","","post_reveal_questions","survey-likert","488","1220522","0.0-6.0-6.68","2220503","co38446","norming","","","{""aha"":6}","[0]","../img/tt/1171tt.jpg","",""
"null","<div style=""font-size:60px;""> </div>","null","fixation","html-keyboard-response","489","1220725","0.0-6.0-0.69","2220503","co38446","norming","","","","","","",""
"null","../img/tt/112tt.jpg","null","mooney1","image-keyboard-response","490","1223730","0.0-6.0-1.69","2220503","co38446","norming","","","","","","",""
"4241.475000046194","","","post_mooney1_questions","survey-likert","491","1227973","0.0-6.0-2.69","2220503","co38446","norming","","","{""curiosity"":5,""confidence"":4}","[0,1]","../img/tt/112tt.jpg","",""
"1702.2799998521805","","","recognition","survey-text","492","1229679","0.0-6.0-3.69","2220503","co38446","norming","","","{""guess"":""gsm""}","","../img/tt/112tt.jpg","",""
"null","../img/gs/112gs.jpg","null","reveal","image-keyboard-response","493","1231681","0.0-6.0-4.69","2220503","co38446","norming","","","","","","",""
"null","../img/tt/112tt.jpg","null","mooney2","image-keyboard-response","494","1233682","0.0-6.0-5.69","2220503","co38446","norming","","","","","","",""
"2055.695000104606","","","post_reveal_questions","survey-likert","495","1235739","0.0-6.0-6.69","2220503","co38446","norming","","","{""aha"":6}","[0]","../img/tt/112tt.jpg","",""
"null","<div style=""font-size:60px;""> </div>","null","fixation","html-keyboard-response","496","1235955","0.0-6.0-0.70","2220503","co38446","norming","","","","","","",""
"null","../img/tt/273tt.jpg","null","mooney1","image-keyboard-response","497","1238964","0.0-6.0-1.70","2220503","co38446","norming","","","","","","",""
"4107.515000272542","","","post_mooney1_questions","survey-likert","498","1243073","0.0-6.0-2.70","2220503","co38446","norming","","","{""curiosity"":6,""confidence"":0}","[0,1]","../img/tt/273tt.jpg","",""
"2353.285000193864","","","recognition","survey-text","499","1245430","0.0-6.0-3.70","2220503","co38446","norming","","","{""guess"":""voeten""}","","../img/tt/273tt.jpg","",""
"null","../img/gs/273gs.jpg","null","reveal","image-keyboard-response","500","1247432","0.0-6.0-4.70","2220503","co38446","norming","","","","","","",""
"null","../img/tt/273tt.jpg","null","mooney2","image-keyboard-response","501","1249436","0.0-6.0-5.70","2220503","co38446","norming","","","","","","",""
"2025.164999999106","","","post_reveal_questions","survey-likert","502","1251462","0.0-6.0-6.70","2220503","co38446","norming","","","{""aha"":4}","[0]","../img/tt/273tt.jpg","",""
"null","<div style=""font-size:60px;""> </div>","null","fixation","html-keyboard-response","503","1251675","0.0-6.0-0.71","2220503","co38446","norming","","","","","","",""
"null","../img/tt/1228tt.jpg","null","mooney1","image-keyboard-response","504","1254687","0.0-6.0-1.71","2220503","co38446","norming","","","","","","",""
"4185.779999941587","","","post_mooney1_questions","survey-likert","505","1258875","0.0-6.0-2.71","2220503","co38446","norming","","","{""curiosity"":4,""confidence"":3}","[0,1]","../img/tt/1228tt.jpg","",""
"2091.3250003941357","","","recognition","survey-text","506","1260969","0.0-6.0-3.71","2220503","co38446","norming","","","{""guess"":""zwaan""}","","../img/tt/1228tt.jpg","",""
"null","../img/gs/1228gs.jpg","null","reveal","image-keyboard-response","507","1262976","0.0-6.0-4.71","2220503","co38446","norming","","","","","","",""
"null","../img/tt/1228tt.jpg","null","mooney2","image-keyboard-response","508","1264981","0.0-6.0-5.71","2220503","co38446","norming","","","","","","",""
"1992.5750000402331","","","post_reveal_questions","survey-likert","509","1266975","0.0-6.0-6.71","2220503","co38446","norming","","","{""aha"":1}","[0]","../img/tt/1228tt.jpg","",""
"null","<div style=""font-size:60px;""> </div>","null","fixation","html-keyboard-response","510","1267186","0.0-6.0-0.72","2220503","co38446","norming","","","","","","",""
"null","../img/tt/1232tt.jpg","null","mooney1","image-keyboard-response","511","1270202","0.0-6.0-1.72","2220503","co38446","norming","","","","","","",""
"4181.489999871701","","","post_mooney1_questions","survey-likert","512","1274385","0.0-6.0-2.72","2220503","co38446","norming","","","{""curiosity"":6,""confidence"":0}","[0,1]","../img/tt/1232tt.jpg","",""
"2274.1750003769994","","","recognition","survey-text","513","1276662","0.0-6.0-3.72","2220503","co38446","norming","","","{""guess"":""maan""}","","../img/tt/1232tt.jpg","",""
"null","../img/gs/1232gs.jpg","null","reveal","image-keyboard-response","514","1278666","0.0-6.0-4.72","2220503","co38446","norming","","","","","","",""
"null","../img/tt/1232tt.jpg","null","mooney2","image-keyboard-response","515","1280667","0.0-6.0-5.72","2220503","co38446","norming","","","","","","",""
"1884.8299998790026","","","post_reveal_questions","survey-likert","516","1282554","0.0-6.0-6.72","2220503","co38446","norming","","","{""aha"":6}","[0]","../img/tt/1232tt.jpg","",""
"null","<div style=""font-size:60px;""> </div>","null","fixation","html-keyboard-response","517","1282766","0.0-6.0-0.73","2220503","co38446","norming","","","","","","",""
"null","../img/tt/1070tt.jpg","null","mooney1","image-keyboard-response","518","1285780","0.0-6.0-1.73","2220503","co38446","norming","","","","","","",""
"4867.880000267178","","","post_mooney1_questions","survey-likert","519","1290650","0.0-6.0-2.73","2220503","co38446","norming","","","{""curiosity"":5,""confidence"":4}","[0,1]","../img/tt/1070tt.jpg","",""
"4031.7500000819564","","","recognition","survey-text","520","1294684","0.0-6.0-3.73","2220503","co38446","norming","","","{""guess"":""brood""}","","../img/tt/1070tt.jpg","",""
"null","../img/gs/1070gs.jpg","null","reveal","image-keyboard-response","521","1296686","0.0-6.0-4.73","2220503","co38446","norming","","","","","","",""
"null","../img/tt/1070tt.jpg","null","mooney2","image-keyboard-response","522","1298689","0.0-6.0-5.73","2220503","co38446","norming","","","","","","",""
"2008.5400003008544","","","post_reveal_questions","survey-likert","523","1300699","0.0-6.0-6.73","2220503","co38446","norming","","","{""aha"":3}","[0]","../img/tt/1070tt.jpg","",""
"null","<div style=""font-size:60px;""> </div>","null","fixation","html-keyboard-response","524","1300901","0.0-6.0-0.74","2220503","co38446","norming","","","","","","",""
"null","../img/tt/055tt.jpg","null","mooney1","image-keyboard-response","525","1303905","0.0-6.0-1.74","2220503","co38446","norming","","","","","","",""
"2715.390000026673","","","post_mooney1_questions","survey-likert","526","1306622","0.0-6.0-2.74","2220503","co38446","norming","","","{""curiosity"":2,""confidence"":6}","[0,1]","../img/tt/055tt.jpg","",""
"2032.9549997113645","","","recognition","survey-text","527","1308658","0.0-6.0-3.74","2220503","co38446","norming","","","{""guess"":""zadel""}","","../img/tt/055tt.jpg","",""
"null","../img/gs/055gs.jpg","null","reveal","image-keyboard-response","528","1310660","0.0-6.0-4.74","2220503","co38446","norming","","","","","","",""
"null","../img/tt/055tt.jpg","null","mooney2","image-keyboard-response","529","1312662","0.0-6.0-5.74","2220503","co38446","norming","","","","","","",""
"1950.8150001056492","","","post_reveal_questions","survey-likert","530","1314614","0.0-6.0-6.74","2220503","co38446","norming","","","{""aha"":0}","[0]","../img/tt/055tt.jpg","",""
"null","<div style=""font-size:60px;""> </div>","null","fixation","html-keyboard-response","531","1314830","0.0-6.0-0.75","2220503","co38446","norming","","","","","","",""
"null","../img/tt/1143tt.jpg","null","mooney1","image-keyboard-response","532","1317836","0.0-6.0-1.75","2220503","co38446","norming","","","","","","",""
"5116.609999909997","","","post_mooney1_questions","survey-likert","533","1322955","0.0-6.0-2.75","2220503","co38446","norming","","","{""curiosity"":2,""confidence"":6}","[0,1]","../img/tt/1143tt.jpg","",""
"1982.2350000031292","","","recognition","survey-text","534","1324941","0.0-6.0-3.75","2220503","co38446","norming","","","{""guess"":""loopband""}","","../img/tt/1143tt.jpg","",""
"null","../img/gs/1143gs.jpg","null","reveal","image-keyboard-response","535","1326944","0.0-6.0-4.75","2220503","co38446","norming","","","","","","",""
"null","../img/tt/1143tt.jpg","null","mooney2","image-keyboard-response","536","1328945","0.0-6.0-5.75","2220503","co38446","norming","","","","","","",""
"2206.579999998212","","","post_reveal_questions","survey-likert","537","1331153","0.0-6.0-6.75","2220503","co38446","norming","","","{""aha"":6}","[0]","../img/tt/1143tt.jpg","",""
"null","<div style=""font-size:60px;""> </div>","null","fixation","html-keyboard-response","538","1331364","0.0-6.0-0.76","2220503","co38446","norming","","","","","","",""
"null","../img/tt/1127tt.jpg","null","mooney1","image-keyboard-response","539","1334374","0.0-6.0-1.76","2220503","co38446","norming","","","","","","",""
"4215.154999867082","","","post_mooney1_questions","survey-likert","540","1338588","0.0-6.0-2.76","2220503","co38446","norming","","","{""curiosity"":5,""confidence"":3}","[0,1]","../img/tt/1127tt.jpg","",""
"1548.915000166744","","","recognition","survey-text","541","1340142","0.0-6.0-3.76","2220503","co38446","norming","","","{""guess"":""man""}","","../img/tt/1127tt.jpg","",""
"null","../img/gs/1127gs.jpg","null","reveal","image-keyboard-response","542","1342152","0.0-6.0-4.76","2220503","co38446","norming","","","","","","",""
"null","../img/tt/1127tt.jpg","null","mooney2","image-keyboard-response","543","1344166","0.0-6.0-5.76","2220503","co38446","norming","","","","","","",""
"1852.8100000694394","","","post_reveal_questions","survey-likert","544","1346020","0.0-6.0-6.76","2220503","co38446","norming","","","{""aha"":1}","[0]","../img/tt/1127tt.jpg","",""
"null","<div style=""font-size:60px;""> </div>","null","fixation","html-keyboard-response","545","1346226","0.0-6.0-0.77","2220503","co38446","norming","","","","","","",""
"null","../img/tt/098tt.jpg","null","mooney1","image-keyboard-response","546","1349241","0.0-6.0-1.77","2220503","co38446","norming","","","","","","",""
"3160.405000206083","","","post_mooney1_questions","survey-likert","547","1352403","0.0-6.0-2.77","2220503","co38446","norming","","","{""curiosity"":6,""confidence"":0}","[0,1]","../img/tt/098tt.jpg","",""
"735.1799998432398","","","recognition","survey-text","548","1353141","0.0-6.0-3.77","2220503","co38446","norming","","","{""guess"":""""}","","../img/tt/098tt.jpg","",""
"null","../img/gs/098gs.jpg","null","reveal","image-keyboard-response","549","1355146","0.0-6.0-4.77","2220503","co38446","norming","","","","","","",""
"null","../img/tt/098tt.jpg","null","mooney2","image-keyboard-response","550","1357148","0.0-6.0-5.77","2220503","co38446","norming","","","","","","",""
"4021.274999715388","","","post_reveal_questions","survey-likert","551","1361171","0.0-6.0-6.77","2220503","co38446","norming","","","{""aha"":1}","[0]","../img/tt/098tt.jpg","",""
"null","<div style=""font-size:60px;""> </div>","null","fixation","html-keyboard-response","552","1361374","0.0-6.0-0.78","2220503","co38446","norming","","","","","","",""
