"rt","stimulus","key_press","test_part","trial_type","trial_index","time_elapsed","internal_node_id","totalTime","subject","experiment_name","button_pressed","success","responses","question_order","currentStim","old","correct"
"61505.91999999995","Welcome to the experiment. This is an online experiment so please don't close the tab/window until we say goodbye.  Press any key to begin.","67","instructions","html-keyboard-response","0","61574","0.0-0.0","2743260","co38962","norming","","","","","","",""
"21182.189999999988","<div style='word-wrap: break-word; width: 900px'><h3>Please consider this information carefully before deciding whether to participate in this research</h3><ul style='text-align: left; font-size: .8em;'><li><b>Purpose of the research</b>: To examine how people process images.</li><li><b>What you will do in this research</b>:  Stimuli (images) will be presented on the computer and you will be asked different questions about them.</li><li><b>Time required</b>: Participation will take between 45 and 60 minutes to complete.</li><li><b>Risks</b>:  There are no anticipated risks associated with participating in this study. The effects of participating should be comparable to those you would experience from viewing a computer monitor for 30 minutes and using a mouse or keyboard.</li><li><b>Benefits</b>:  This study provides no benefits to you individually except for the credit. The study provides important information about the nature of perception and learning.</li><li><b>Confidentiality</b>:  Your participation in this study will remain confidential. No personally identifiable information will be associated with your data. Your de-identified data may be shared with other researchers and used in future projects.</li><li><b>Participation and withdrawal</b>:  Your participation in this study is completely voluntary and you may refuse to participate or you may choose to withdraw at any time without penalty.</li><li><b>How to contact the researchers</b>: If you have questions or concerns about your participation or payment, or want to request a summary of research findings, please contact Sander Van de Cruys (KU Leuven), at sander.vandecruys@kuleuven.be.</li></ul><p>The nature and purpose of this research have been sufficiently explained and I agree to participate in this study.  I understand that I am free to withdraw at any time without incurring any penalty.</p><p>Please consent by clicking the button below to continue. Otherwise, please exit the study at this time.</p></div>","","instructions","html-button-response","1","82759","0.0-1.0","2743260","co38962","norming","0","","","","","",""
"","","","instructions","fullscreen","2","86651","0.0-2.0","2743260","co38962","norming","","true","","","","",""
"33141.039999999964","","","sona","survey-html-form","3","119796","0.0-3.0","2743260","co38962","norming","","","[{""name"":""sonaid"",""value"":""38962""},{""name"":""debrief"",""value"":""yes""},{""name"":""datajoin"",""value"":""yes""}]","","","",""
"42599.25","<div style='word-wrap: break-word; width: 900px'><h3>Instructions</h3><p>This experiment will have 3 parts. In the first part you will see a series of distorted images like the one below on the left. As you can see in the righthand image, the distorted images are derived from actual photographs. In what follows, you will <strong>briefly</strong> be presented with <strong>only</strong> the distorted image.</p> <div style='float: left; margin-right: 20px;'><img src='../img/018tt.jpg' height='250' width='250'></img></div><div style='float: right; margin-left: 20px;'><img src='../img/018gs.jpg' height='250' width='250'></img></div><p>Subsequently you will be asked a few questions about the image: One question on how <strong>curious</strong> you are about the solution and one on how <strong>confident</strong> you are that you know the solution.</p>Next, we ask you to make a guess on what is in the image. Note that it is OK to name just the <strong>basic level category</strong>. For example when you see a parrot in the image, 'parrot' will obviously be a correct answer but also correct is 'bird'. However, 'animal' will <strong>not</strong> be counted as a correct response. For the example above, 'rose' would be correct or 'flower', but not 'plant'. When soccer players are depicted, 'soccer', 'football', 'soccer players' will be correct, but not 'humans', 'outdoors', or 'sports'. You do not need to describe the image in full, just name the main object in it <strong>in one or two words</strong>. All images depict objects from one of the following broad level categories: animals, inanimate objects, plants, sports, vehicles, and food. Recognizing means knowing <strong>more</strong> than these broad labels for a given image. But we always encourage you to <strong>make a guess</strong> if you can. Note that you are allowed to use <strong>Dutch and English</strong> in your answers, whatever comes easiest for you.</p><p>Press any key to continue.</p></div>","67","instructions","html-keyboard-response","4","162399","0.0-4.0","2743260","co38962","norming","","","","","","",""
"14662.805000000051","<div style='word-wrap: break-word; width: 900px'><h3>Instructions</h3> <p>Next, the solution image will be revealed to you and you'll be asked to indicate how strong your <strong>aha-experience</strong> was after seeing the solution. This describes the positive feeling of the 'click' you sometimes experience, when the pieces of the 'puzzle' fall together and you suddenly have 'insight' in the image.</p><img src='aha.jpg' height='188' width='250'></img><p>Note that there are no right or wrong answers. We are interested in what <strong>you</strong> see in the image and how <strong>you</strong> feel about it.</p><p>Press any key to start the experiment.</p></div>","67","instructions","html-keyboard-response","5","177063","0.0-5.0","2743260","co38962","norming","","","","","","",""
"null","<div style=""font-size:60px;""> </div>","null","fixation","html-keyboard-response","6","177265","0.0-6.0-0.0","2743260","co38962","norming","","","","","","",""
"null","../img/tt/442tt.jpg","null","mooney1","image-keyboard-response","7","180268","0.0-6.0-1.0","2743260","co38962","norming","","","","","","",""
"11928.629999999976","","","post_mooney1_questions","survey-likert","8","192200","0.0-6.0-2.0","2743260","co38962","norming","","","{""curiosity"":4,""confidence"":2}","[0,1]","../img/tt/442tt.jpg","",""
"5287.829999999987","","","recognition","survey-text","9","197497","0.0-6.0-3.0","2743260","co38962","norming","","","{""guess"":""human""}","","../img/tt/442tt.jpg","",""
"null","../img/gs/442gs.jpg","null","reveal","image-keyboard-response","10","199502","0.0-6.0-4.0","2743260","co38962","norming","","","","","","",""
"null","../img/tt/442tt.jpg","null","mooney2","image-keyboard-response","11","201508","0.0-6.0-5.0","2743260","co38962","norming","","","","","","",""
"7664.824999999953","","","post_reveal_questions","survey-likert","12","209175","0.0-6.0-6.0","2743260","co38962","norming","","","{""aha"":5}","[0]","../img/tt/442tt.jpg","",""
"null","<div style=""font-size:60px;""> </div>","null","fixation","html-keyboard-response","13","209383","0.0-6.0-0.1","2743260","co38962","norming","","","","","","",""
"null","../img/tt/124tt.jpg","null","mooney1","image-keyboard-response","14","212388","0.0-6.0-1.1","2743260","co38962","norming","","","","","","",""
"9092.679999999993","","","post_mooney1_questions","survey-likert","15","221483","0.0-6.0-2.1","2743260","co38962","norming","","","{""curiosity"":5,""confidence"":4}","[0,1]","../img/tt/124tt.jpg","",""
"2487.610000000015","","","recognition","survey-text","16","223979","0.0-6.0-3.1","2743260","co38962","norming","","","{""guess"":""bear""}","","../img/tt/124tt.jpg","",""
"null","../img/gs/124gs.jpg","null","reveal","image-keyboard-response","17","225984","0.0-6.0-4.1","2743260","co38962","norming","","","","","","",""
"null","../img/tt/124tt.jpg","null","mooney2","image-keyboard-response","18","227989","0.0-6.0-5.1","2743260","co38962","norming","","","","","","",""
"3324.079999999987","","","post_reveal_questions","survey-likert","19","231315","0.0-6.0-6.1","2743260","co38962","norming","","","{""aha"":4}","[0]","../img/tt/124tt.jpg","",""
"null","<div style=""font-size:60px;""> </div>","null","fixation","html-keyboard-response","20","231525","0.0-6.0-0.2","2743260","co38962","norming","","","","","","",""
"null","../img/tt/1040tt.jpg","null","mooney1","image-keyboard-response","21","234527","0.0-6.0-1.2","2743260","co38962","norming","","","","","","",""
"5920.470000000001","","","post_mooney1_questions","survey-likert","22","240450","0.0-6.0-2.2","2743260","co38962","norming","","","{""curiosity"":5,""confidence"":0}","[0,1]","../img/tt/1040tt.jpg","",""
"6076.739999999991","","","recognition","survey-text","23","246536","0.0-6.0-3.2","2743260","co38962","norming","","","{""guess"":""I don't know""}","","../img/tt/1040tt.jpg","",""
"null","../img/gs/1040gs.jpg","null","reveal","image-keyboard-response","24","248541","0.0-6.0-4.2","2743260","co38962","norming","","","","","","",""
"null","../img/tt/1040tt.jpg","null","mooney2","image-keyboard-response","25","250547","0.0-6.0-5.2","2743260","co38962","norming","","","","","","",""
"1938.8550000000978","","","post_reveal_questions","survey-likert","26","252487","0.0-6.0-6.2","2743260","co38962","norming","","","{""aha"":2}","[0]","../img/tt/1040tt.jpg","",""
"null","<div style=""font-size:60px;""> </div>","null","fixation","html-keyboard-response","27","252696","0.0-6.0-0.3","2743260","co38962","norming","","","","","","",""
"null","../img/tt/1205tt.jpg","null","mooney1","image-keyboard-response","28","255702","0.0-6.0-1.3","2743260","co38962","norming","","","","","","",""
"7459.565000000002","","","post_mooney1_questions","survey-likert","29","263164","0.0-6.0-2.3","2743260","co38962","norming","","","{""curiosity"":6,""confidence"":1}","[0,1]","../img/tt/1205tt.jpg","",""
"5547.645000000077","","","recognition","survey-text","30","268721","0.0-6.0-3.3","2743260","co38962","norming","","","{""guess"":""flower""}","","../img/tt/1205tt.jpg","",""
"null","../img/gs/1205gs.jpg","null","reveal","image-keyboard-response","31","270727","0.0-6.0-4.3","2743260","co38962","norming","","","","","","",""
"null","../img/tt/1205tt.jpg","null","mooney2","image-keyboard-response","32","272730","0.0-6.0-5.3","2743260","co38962","norming","","","","","","",""
"3875.6549999999697","","","post_reveal_questions","survey-likert","33","276607","0.0-6.0-6.3","2743260","co38962","norming","","","{""aha"":1}","[0]","../img/tt/1205tt.jpg","",""
"null","<div style=""font-size:60px;""> </div>","null","fixation","html-keyboard-response","34","276819","0.0-6.0-0.4","2743260","co38962","norming","","","","","","",""
"null","../img/tt/318tt.jpg","null","mooney1","image-keyboard-response","35","279821","0.0-6.0-1.4","2743260","co38962","norming","","","","","","",""
"7268.97000000003","","","post_mooney1_questions","survey-likert","36","287092","0.0-6.0-2.4","2743260","co38962","norming","","","{""curiosity"":6,""confidence"":1}","[0,1]","../img/tt/318tt.jpg","",""
"1902.7550000000629","","","recognition","survey-text","37","289004","0.0-6.0-3.4","2743260","co38962","norming","","","{""guess"":""car""}","","../img/tt/318tt.jpg","",""
"null","../img/gs/318gs.jpg","null","reveal","image-keyboard-response","38","291006","0.0-6.0-4.4","2743260","co38962","norming","","","","","","",""
"null","../img/tt/318tt.jpg","null","mooney2","image-keyboard-response","39","293012","0.0-6.0-5.4","2743260","co38962","norming","","","","","","",""
"5530.374999999942","","","post_reveal_questions","survey-likert","40","298544","0.0-6.0-6.4","2743260","co38962","norming","","","{""aha"":5}","[0]","../img/tt/318tt.jpg","",""
"null","<div style=""font-size:60px;""> </div>","null","fixation","html-keyboard-response","41","298756","0.0-6.0-0.5","2743260","co38962","norming","","","","","","",""
"null","../img/tt/094tt.jpg","null","mooney1","image-keyboard-response","42","301762","0.0-6.0-1.5","2743260","co38962","norming","","","","","","",""
"8075.990000000049","","","post_mooney1_questions","survey-likert","43","309840","0.0-6.0-2.5","2743260","co38962","norming","","","{""curiosity"":5,""confidence"":3}","[0,1]","../img/tt/094tt.jpg","",""
"2970.795000000042","","","recognition","survey-text","44","312820","0.0-6.0-3.5","2743260","co38962","norming","","","{""guess"":""cow""}","","../img/tt/094tt.jpg","",""
"null","../img/gs/094gs.jpg","null","reveal","image-keyboard-response","45","314825","0.0-6.0-4.5","2743260","co38962","norming","","","","","","",""
"null","../img/tt/094tt.jpg","null","mooney2","image-keyboard-response","46","316831","0.0-6.0-5.5","2743260","co38962","norming","","","","","","",""
"2558.405000000028","","","post_reveal_questions","survey-likert","47","319391","0.0-6.0-6.5","2743260","co38962","norming","","","{""aha"":2}","[0]","../img/tt/094tt.jpg","",""
"null","<div style=""font-size:60px;""> </div>","null","fixation","html-keyboard-response","48","319602","0.0-6.0-0.6","2743260","co38962","norming","","","","","","",""
"null","../img/tt/1224tt.jpg","null","mooney1","image-keyboard-response","49","322609","0.0-6.0-1.6","2743260","co38962","norming","","","","","","",""
"4193.854999999981","","","post_mooney1_questions","survey-likert","50","326805","0.0-6.0-2.6","2743260","co38962","norming","","","{""curiosity"":4,""confidence"":5}","[0,1]","../img/tt/1224tt.jpg","",""
"2881.5450000001","","","recognition","survey-text","51","329696","0.0-6.0-3.6","2743260","co38962","norming","","","{""guess"":""boxing""}","","../img/tt/1224tt.jpg","",""
"null","../img/gs/1224gs.jpg","null","reveal","image-keyboard-response","52","331702","0.0-6.0-4.6","2743260","co38962","norming","","","","","","",""
"null","../img/tt/1224tt.jpg","null","mooney2","image-keyboard-response","53","333706","0.0-6.0-5.6","2743260","co38962","norming","","","","","","",""
"5112.160000000033","","","post_reveal_questions","survey-likert","54","338820","0.0-6.0-6.6","2743260","co38962","norming","","","{""aha"":1}","[0]","../img/tt/1224tt.jpg","",""
"null","<div style=""font-size:60px;""> </div>","null","fixation","html-keyboard-response","55","339031","0.0-6.0-0.7","2743260","co38962","norming","","","","","","",""
"null","../img/tt/040tt.jpg","null","mooney1","image-keyboard-response","56","342037","0.0-6.0-1.7","2743260","co38962","norming","","","","","","",""
"3530.9400000000023","","","post_mooney1_questions","survey-likert","57","345570","0.0-6.0-2.7","2743260","co38962","norming","","","{""curiosity"":5,""confidence"":4}","[0,1]","../img/tt/040tt.jpg","",""
"2139.234999999986","","","recognition","survey-text","58","347718","0.0-6.0-3.7","2743260","co38962","norming","","","{""guess"":""dog""}","","../img/tt/040tt.jpg","",""
"null","../img/gs/040gs.jpg","null","reveal","image-keyboard-response","59","349720","0.0-6.0-4.7","2743260","co38962","norming","","","","","","",""
"null","../img/tt/040tt.jpg","null","mooney2","image-keyboard-response","60","351723","0.0-6.0-5.7","2743260","co38962","norming","","","","","","",""
"2687.160000000091","","","post_reveal_questions","survey-likert","61","354412","0.0-6.0-6.7","2743260","co38962","norming","","","{""aha"":1}","[0]","../img/tt/040tt.jpg","",""
"null","<div style=""font-size:60px;""> </div>","null","fixation","html-keyboard-response","62","354623","0.0-6.0-0.8","2743260","co38962","norming","","","","","","",""
"null","../img/tt/031tt.jpg","null","mooney1","image-keyboard-response","63","357630","0.0-6.0-1.8","2743260","co38962","norming","","","","","","",""
"5566.419999999984","","","post_mooney1_questions","survey-likert","64","363199","0.0-6.0-2.8","2743260","co38962","norming","","","{""curiosity"":5,""confidence"":1}","[0,1]","../img/tt/031tt.jpg","",""
"6514.804999999993","","","recognition","survey-text","65","369723","0.0-6.0-3.8","2743260","co38962","norming","","","{""guess"":""swimming""}","","../img/tt/031tt.jpg","",""
"null","../img/gs/031gs.jpg","null","reveal","image-keyboard-response","66","371727","0.0-6.0-4.8","2743260","co38962","norming","","","","","","",""
"null","../img/tt/031tt.jpg","null","mooney2","image-keyboard-response","67","373729","0.0-6.0-5.8","2743260","co38962","norming","","","","","","",""
"2562.335000000079","","","post_reveal_questions","survey-likert","68","376293","0.0-6.0-6.8","2743260","co38962","norming","","","{""aha"":1}","[0]","../img/tt/031tt.jpg","",""
"null","<div style=""font-size:60px;""> </div>","null","fixation","html-keyboard-response","69","376505","0.0-6.0-0.9","2743260","co38962","norming","","","","","","",""
"null","../img/tt/019tt.jpg","null","mooney1","image-keyboard-response","70","379508","0.0-6.0-1.9","2743260","co38962","norming","","","","","","",""
"7695.639999999898","","","post_mooney1_questions","survey-likert","71","387206","0.0-6.0-2.9","2743260","co38962","norming","","","{""curiosity"":5,""confidence"":4}","[0,1]","../img/tt/019tt.jpg","",""
"12106.630000000005","","","recognition","survey-text","72","399322","0.0-6.0-3.9","2743260","co38962","norming","","","{""guess"":""vliegtuig""}","","../img/tt/019tt.jpg","",""
"null","../img/gs/019gs.jpg","null","reveal","image-keyboard-response","73","401328","0.0-6.0-4.9","2743260","co38962","norming","","","","","","",""
"null","../img/tt/019tt.jpg","null","mooney2","image-keyboard-response","74","403331","0.0-6.0-5.9","2743260","co38962","norming","","","","","","",""
"1884.0150000000722","","","post_reveal_questions","survey-likert","75","405217","0.0-6.0-6.9","2743260","co38962","norming","","","{""aha"":1}","[0]","../img/tt/019tt.jpg","",""
"null","<div style=""font-size:60px;""> </div>","null","fixation","html-keyboard-response","76","405429","0.0-6.0-0.10","2743260","co38962","norming","","","","","","",""
"null","../img/tt/1261tt.jpg","null","mooney1","image-keyboard-response","77","408434","0.0-6.0-1.10","2743260","co38962","norming","","","","","","",""
"4138.730000000098","","","post_mooney1_questions","survey-likert","78","412574","0.0-6.0-2.10","2743260","co38962","norming","","","{""curiosity"":5,""confidence"":4}","[0,1]","../img/tt/1261tt.jpg","",""
"3073.0700000001234","","","recognition","survey-text","79","415657","0.0-6.0-3.10","2743260","co38962","norming","","","{""guess"":""sheep""}","","../img/tt/1261tt.jpg","",""
"null","../img/gs/1261gs.jpg","null","reveal","image-keyboard-response","80","417659","0.0-6.0-4.10","2743260","co38962","norming","","","","","","",""
"null","../img/tt/1261tt.jpg","null","mooney2","image-keyboard-response","81","419663","0.0-6.0-5.10","2743260","co38962","norming","","","","","","",""
"1841.9349999998813","","","post_reveal_questions","survey-likert","82","421507","0.0-6.0-6.10","2743260","co38962","norming","","","{""aha"":1}","[0]","../img/tt/1261tt.jpg","",""
"null","<div style=""font-size:60px;""> </div>","null","fixation","html-keyboard-response","83","421714","0.0-6.0-0.11","2743260","co38962","norming","","","","","","",""
"null","../img/tt/1362tt.jpg","null","mooney1","image-keyboard-response","84","424717","0.0-6.0-1.11","2743260","co38962","norming","","","","","","",""
"6069.584999999963","","","post_mooney1_questions","survey-likert","85","430788","0.0-6.0-2.11","2743260","co38962","norming","","","{""curiosity"":4,""confidence"":2}","[0,1]","../img/tt/1362tt.jpg","",""
"6121.4150000000955","","","recognition","survey-text","86","436919","0.0-6.0-3.11","2743260","co38962","norming","","","{""guess"":""dishes""}","","../img/tt/1362tt.jpg","",""
"null","../img/gs/1362gs.jpg","null","reveal","image-keyboard-response","87","438921","0.0-6.0-4.11","2743260","co38962","norming","","","","","","",""
"null","../img/tt/1362tt.jpg","null","mooney2","image-keyboard-response","88","440925","0.0-6.0-5.11","2743260","co38962","norming","","","","","","",""
"2167.789999999921","","","post_reveal_questions","survey-likert","89","443095","0.0-6.0-6.11","2743260","co38962","norming","","","{""aha"":4}","[0]","../img/tt/1362tt.jpg","",""
"null","<div style=""font-size:60px;""> </div>","null","fixation","html-keyboard-response","90","443307","0.0-6.0-0.12","2743260","co38962","norming","","","","","","",""
"null","../img/tt/081tt.jpg","null","mooney1","image-keyboard-response","91","446311","0.0-6.0-1.12","2743260","co38962","norming","","","","","","",""
"4871.754999999888","","","post_mooney1_questions","survey-likert","92","451185","0.0-6.0-2.12","2743260","co38962","norming","","","{""curiosity"":5,""confidence"":4}","[0,1]","../img/tt/081tt.jpg","",""
"3061.7649999999558","","","recognition","survey-text","93","454255","0.0-6.0-3.12","2743260","co38962","norming","","","{""guess"":""frog""}","","../img/tt/081tt.jpg","",""
"null","../img/gs/081gs.jpg","null","reveal","image-keyboard-response","94","456262","0.0-6.0-4.12","2743260","co38962","norming","","","","","","",""
"null","../img/tt/081tt.jpg","null","mooney2","image-keyboard-response","95","458266","0.0-6.0-5.12","2743260","co38962","norming","","","","","","",""
"2287.700000000128","","","post_reveal_questions","survey-likert","96","460555","0.0-6.0-6.12","2743260","co38962","norming","","","{""aha"":4}","[0]","../img/tt/081tt.jpg","",""
"null","<div style=""font-size:60px;""> </div>","null","fixation","html-keyboard-response","97","460771","0.0-6.0-0.13","2743260","co38962","norming","","","","","","",""
"null","../img/tt/105tt.jpg","null","mooney1","image-keyboard-response","98","463777","0.0-6.0-1.13","2743260","co38962","norming","","","","","","",""
"7238.280000000028","","","post_mooney1_questions","survey-likert","99","471018","0.0-6.0-2.13","2743260","co38962","norming","","","{""curiosity"":2,""confidence"":6}","[0,1]","../img/tt/105tt.jpg","",""
"3321.034999999916","","","recognition","survey-text","100","474348","0.0-6.0-3.13","2743260","co38962","norming","","","{""guess"":""paperclips""}","","../img/tt/105tt.jpg","",""
"null","../img/gs/105gs.jpg","null","reveal","image-keyboard-response","101","476354","0.0-6.0-4.13","2743260","co38962","norming","","","","","","",""
"null","../img/tt/105tt.jpg","null","mooney2","image-keyboard-response","102","478361","0.0-6.0-5.13","2743260","co38962","norming","","","","","","",""
"3804.1699999999255","","","post_reveal_questions","survey-likert","103","482166","0.0-6.0-6.13","2743260","co38962","norming","","","{""aha"":0}","[0]","../img/tt/105tt.jpg","",""
"null","<div style=""font-size:60px;""> </div>","null","fixation","html-keyboard-response","104","482376","0.0-6.0-0.14","2743260","co38962","norming","","","","","","",""
"null","../img/tt/273tt.jpg","null","mooney1","image-keyboard-response","105","485383","0.0-6.0-1.14","2743260","co38962","norming","","","","","","",""
"4049.375000000058","","","post_mooney1_questions","survey-likert","106","489434","0.0-6.0-2.14","2743260","co38962","norming","","","{""curiosity"":4,""confidence"":5}","[0,1]","../img/tt/273tt.jpg","",""
"2544.144999999844","","","recognition","survey-text","107","491988","0.0-6.0-3.14","2743260","co38962","norming","","","{""guess"":""eating""}","","../img/tt/273tt.jpg","",""
"null","../img/gs/273gs.jpg","null","reveal","image-keyboard-response","108","493995","0.0-6.0-4.14","2743260","co38962","norming","","","","","","",""
"null","../img/tt/273tt.jpg","null","mooney2","image-keyboard-response","109","495998","0.0-6.0-5.14","2743260","co38962","norming","","","","","","",""
"4751.73499999987","","","post_reveal_questions","survey-likert","110","500751","0.0-6.0-6.14","2743260","co38962","norming","","","{""aha"":2}","[0]","../img/tt/273tt.jpg","",""
"null","<div style=""font-size:60px;""> </div>","null","fixation","html-keyboard-response","111","500959","0.0-6.0-0.15","2743260","co38962","norming","","","","","","",""
"null","../img/tt/1123tt.jpg","null","mooney1","image-keyboard-response","112","503966","0.0-6.0-1.15","2743260","co38962","norming","","","","","","",""
"5041.295000000042","","","post_mooney1_questions","survey-likert","113","509009","0.0-6.0-2.15","2743260","co38962","norming","","","{""curiosity"":6,""confidence"":4}","[0,1]","../img/tt/1123tt.jpg","",""
"2386.8049999998184","","","recognition","survey-text","114","511405","0.0-6.0-3.15","2743260","co38962","norming","","","{""guess"":""dog""}","","../img/tt/1123tt.jpg","",""
"null","../img/gs/1123gs.jpg","null","reveal","image-keyboard-response","115","513408","0.0-6.0-4.15","2743260","co38962","norming","","","","","","",""
"null","../img/tt/1123tt.jpg","null","mooney2","image-keyboard-response","116","515410","0.0-6.0-5.15","2743260","co38962","norming","","","","","","",""
"2731.9850000001024","","","post_reveal_questions","survey-likert","117","518144","0.0-6.0-6.15","2743260","co38962","norming","","","{""aha"":1}","[0]","../img/tt/1123tt.jpg","",""
"null","<div style=""font-size:60px;""> </div>","null","fixation","html-keyboard-response","118","518356","0.0-6.0-0.16","2743260","co38962","norming","","","","","","",""
"null","../img/tt/1146tt.jpg","null","mooney1","image-keyboard-response","119","521358","0.0-6.0-1.16","2743260","co38962","norming","","","","","","",""
"5255.420000000158","","","post_mooney1_questions","survey-likert","120","526616","0.0-6.0-2.16","2743260","co38962","norming","","","{""curiosity"":4,""confidence"":4}","[0,1]","../img/tt/1146tt.jpg","",""
"2758.039999999921","","","recognition","survey-text","121","529383","0.0-6.0-3.16","2743260","co38962","norming","","","{""guess"":""sitting""}","","../img/tt/1146tt.jpg","",""
"null","../img/gs/1146gs.jpg","null","reveal","image-keyboard-response","122","531386","0.0-6.0-4.16","2743260","co38962","norming","","","","","","",""
"null","../img/tt/1146tt.jpg","null","mooney2","image-keyboard-response","123","533391","0.0-6.0-5.16","2743260","co38962","norming","","","","","","",""
"2650.3499999998603","","","post_reveal_questions","survey-likert","124","536043","0.0-6.0-6.16","2743260","co38962","norming","","","{""aha"":1}","[0]","../img/tt/1146tt.jpg","",""
"null","<div style=""font-size:60px;""> </div>","null","fixation","html-keyboard-response","125","536250","0.0-6.0-0.17","2743260","co38962","norming","","","","","","",""
"null","../img/tt/1199tt.jpg","null","mooney1","image-keyboard-response","126","539257","0.0-6.0-1.17","2743260","co38962","norming","","","","","","",""
"4952.105000000098","","","post_mooney1_questions","survey-likert","127","544211","0.0-6.0-2.17","2743260","co38962","norming","","","{""curiosity"":5,""confidence"":2}","[0,1]","../img/tt/1199tt.jpg","",""
"2566.484999999986","","","recognition","survey-text","128","546786","0.0-6.0-3.17","2743260","co38962","norming","","","{""guess"":""farming""}","","../img/tt/1199tt.jpg","",""
"null","../img/gs/1199gs.jpg","null","reveal","image-keyboard-response","129","548793","0.0-6.0-4.17","2743260","co38962","norming","","","","","","",""
"null","../img/tt/1199tt.jpg","null","mooney2","image-keyboard-response","130","550795","0.0-6.0-5.17","2743260","co38962","norming","","","","","","",""
"2863.9100000000326","","","post_reveal_questions","survey-likert","131","553660","0.0-6.0-6.17","2743260","co38962","norming","","","{""aha"":1}","[0]","../img/tt/1199tt.jpg","",""
"null","<div style=""font-size:60px;""> </div>","null","fixation","html-keyboard-response","132","553868","0.0-6.0-0.18","2743260","co38962","norming","","","","","","",""
"null","../img/tt/126tt.jpg","null","mooney1","image-keyboard-response","133","556871","0.0-6.0-1.18","2743260","co38962","norming","","","","","","",""
"3425.4449999998324","","","post_mooney1_questions","survey-likert","134","560298","0.0-6.0-2.18","2743260","co38962","norming","","","{""curiosity"":1,""confidence"":6}","[0,1]","../img/tt/126tt.jpg","",""
"3579.4150000000373","","","recognition","survey-text","135","563886","0.0-6.0-3.18","2743260","co38962","norming","","","{""guess"":""cow""}","","../img/tt/126tt.jpg","",""
"null","../img/gs/126gs.jpg","null","reveal","image-keyboard-response","136","565891","0.0-6.0-4.18","2743260","co38962","norming","","","","","","",""
"null","../img/tt/126tt.jpg","null","mooney2","image-keyboard-response","137","567897","0.0-6.0-5.18","2743260","co38962","norming","","","","","","",""
"1939.0599999999395","","","post_reveal_questions","survey-likert","138","569838","0.0-6.0-6.18","2743260","co38962","norming","","","{""aha"":0}","[0]","../img/tt/126tt.jpg","",""
"null","<div style=""font-size:60px;""> </div>","null","fixation","html-keyboard-response","139","570049","0.0-6.0-0.19","2743260","co38962","norming","","","","","","",""
"null","../img/tt/319tt.jpg","null","mooney1","image-keyboard-response","140","573055","0.0-6.0-1.19","2743260","co38962","norming","","","","","","",""
"4635.2799999999115","","","post_mooney1_questions","survey-likert","141","577693","0.0-6.0-2.19","2743260","co38962","norming","","","{""curiosity"":3,""confidence"":5}","[0,1]","../img/tt/319tt.jpg","",""
"2549.6700000001583","","","recognition","survey-text","142","580255","0.0-6.0-3.19","2743260","co38962","norming","","","{""guess"":""donkey""}","","../img/tt/319tt.jpg","",""
"null","../img/gs/319gs.jpg","null","reveal","image-keyboard-response","143","582261","0.0-6.0-4.19","2743260","co38962","norming","","","","","","",""
"null","../img/tt/319tt.jpg","null","mooney2","image-keyboard-response","144","584262","0.0-6.0-5.19","2743260","co38962","norming","","","","","","",""
"3236.0149999998976","","","post_reveal_questions","survey-likert","145","587500","0.0-6.0-6.19","2743260","co38962","norming","","","{""aha"":4}","[0]","../img/tt/319tt.jpg","",""
"null","<div style=""font-size:60px;""> </div>","null","fixation","html-keyboard-response","146","587707","0.0-6.0-0.20","2743260","co38962","norming","","","","","","",""
"null","../img/tt/1159tt.jpg","null","mooney1","image-keyboard-response","147","590713","0.0-6.0-1.20","2743260","co38962","norming","","","","","","",""
"4987.290000000037","","","post_mooney1_questions","survey-likert","148","595702","0.0-6.0-2.20","2743260","co38962","norming","","","{""curiosity"":4,""confidence"":4}","[0,1]","../img/tt/1159tt.jpg","",""
"3219.0750000001863","","","recognition","survey-text","149","598930","0.0-6.0-3.20","2743260","co38962","norming","","","{""guess"":""skateboarding""}","","../img/tt/1159tt.jpg","",""
"null","../img/gs/1159gs.jpg","null","reveal","image-keyboard-response","150","600937","0.0-6.0-4.20","2743260","co38962","norming","","","","","","",""
"null","../img/tt/1159tt.jpg","null","mooney2","image-keyboard-response","151","602943","0.0-6.0-5.20","2743260","co38962","norming","","","","","","",""
"2105.6699999999255","","","post_reveal_questions","survey-likert","152","605050","0.0-6.0-6.20","2743260","co38962","norming","","","{""aha"":4}","[0]","../img/tt/1159tt.jpg","",""
"null","<div style=""font-size:60px;""> </div>","null","fixation","html-keyboard-response","153","605262","0.0-6.0-0.21","2743260","co38962","norming","","","","","","",""
"null","../img/tt/1037tt.jpg","null","mooney1","image-keyboard-response","154","608264","0.0-6.0-1.21","2743260","co38962","norming","","","","","","",""
"6065.650000000023","","","post_mooney1_questions","survey-likert","155","614332","0.0-6.0-2.21","2743260","co38962","norming","","","{""curiosity"":2,""confidence"":5}","[0,1]","../img/tt/1037tt.jpg","",""
"2161.335000000079","","","recognition","survey-text","156","616502","0.0-6.0-3.21","2743260","co38962","norming","","","{""guess"":""wolf""}","","../img/tt/1037tt.jpg","",""
"null","../img/gs/1037gs.jpg","null","reveal","image-keyboard-response","157","618507","0.0-6.0-4.21","2743260","co38962","norming","","","","","","",""
"null","../img/tt/1037tt.jpg","null","mooney2","image-keyboard-response","158","620511","0.0-6.0-5.21","2743260","co38962","norming","","","","","","",""
"2459.2700000000186","","","post_reveal_questions","survey-likert","159","622971","0.0-6.0-6.21","2743260","co38962","norming","","","{""aha"":2}","[0]","../img/tt/1037tt.jpg","",""
"null","<div style=""font-size:60px;""> </div>","null","fixation","html-keyboard-response","160","623178","0.0-6.0-0.22","2743260","co38962","norming","","","","","","",""
"null","../img/tt/1086tt.jpg","null","mooney1","image-keyboard-response","161","626185","0.0-6.0-1.22","2743260","co38962","norming","","","","","","",""
"6650.9550000000745","","","post_mooney1_questions","survey-likert","162","632838","0.0-6.0-2.22","2743260","co38962","norming","","","{""curiosity"":5,""confidence"":4}","[0,1]","../img/tt/1086tt.jpg","",""
"5401.359999999986","","","recognition","survey-text","163","638249","0.0-6.0-3.22","2743260","co38962","norming","","","{""guess"":""petting a dog""}","","../img/tt/1086tt.jpg","",""
"null","../img/gs/1086gs.jpg","null","reveal","image-keyboard-response","164","640251","0.0-6.0-4.22","2743260","co38962","norming","","","","","","",""
"null","../img/tt/1086tt.jpg","null","mooney2","image-keyboard-response","165","642257","0.0-6.0-5.22","2743260","co38962","norming","","","","","","",""
"2729.094999999972","","","post_reveal_questions","survey-likert","166","644988","0.0-6.0-6.22","2743260","co38962","norming","","","{""aha"":1}","[0]","../img/tt/1086tt.jpg","",""
"null","<div style=""font-size:60px;""> </div>","null","fixation","html-keyboard-response","167","645199","0.0-6.0-0.23","2743260","co38962","norming","","","","","","",""
"null","../img/tt/1084tt.jpg","null","mooney1","image-keyboard-response","168","648204","0.0-6.0-1.23","2743260","co38962","norming","","","","","","",""
"4769.319999999949","","","post_mooney1_questions","survey-likert","169","652976","0.0-6.0-2.23","2743260","co38962","norming","","","{""curiosity"":4,""confidence"":6}","[0,1]","../img/tt/1084tt.jpg","",""
"4152.614999999991","","","recognition","survey-text","170","657138","0.0-6.0-3.23","2743260","co38962","norming","","","{""guess"":""pie / taart""}","","../img/tt/1084tt.jpg","",""
"null","../img/gs/1084gs.jpg","null","reveal","image-keyboard-response","171","659144","0.0-6.0-4.23","2743260","co38962","norming","","","","","","",""
"null","../img/tt/1084tt.jpg","null","mooney2","image-keyboard-response","172","661151","0.0-6.0-5.23","2743260","co38962","norming","","","","","","",""
"2982.5250000000233","","","post_reveal_questions","survey-likert","173","664135","0.0-6.0-6.23","2743260","co38962","norming","","","{""aha"":4}","[0]","../img/tt/1084tt.jpg","",""
"null","<div style=""font-size:60px;""> </div>","null","fixation","html-keyboard-response","174","664345","0.0-6.0-0.24","2743260","co38962","norming","","","","","","",""
"null","../img/tt/559tt.jpg","null","mooney1","image-keyboard-response","175","667351","0.0-6.0-1.24","2743260","co38962","norming","","","","","","",""
"4691","","","post_mooney1_questions","survey-likert","176","672044","0.0-6.0-2.24","2743260","co38962","norming","","","{""curiosity"":5,""confidence"":5}","[0,1]","../img/tt/559tt.jpg","",""
"4332.75","","","recognition","survey-text","177","676386","0.0-6.0-3.24","2743260","co38962","norming","","","{""guess"":""sewing machine""}","","../img/tt/559tt.jpg","",""
"null","../img/gs/559gs.jpg","null","reveal","image-keyboard-response","178","678393","0.0-6.0-4.24","2743260","co38962","norming","","","","","","",""
"null","../img/tt/559tt.jpg","null","mooney2","image-keyboard-response","179","680395","0.0-6.0-5.24","2743260","co38962","norming","","","","","","",""
"3291.069999999949","","","post_reveal_questions","survey-likert","180","683688","0.0-6.0-6.24","2743260","co38962","norming","","","{""aha"":5}","[0]","../img/tt/559tt.jpg","",""
"null","<div style=""font-size:60px;""> </div>","null","fixation","html-keyboard-response","181","683899","0.0-6.0-0.25","2743260","co38962","norming","","","","","","",""
"null","../img/tt/1200tt.jpg","null","mooney1","image-keyboard-response","182","686905","0.0-6.0-1.25","2743260","co38962","norming","","","","","","",""
"4137.95000000007","","","post_mooney1_questions","survey-likert","183","691045","0.0-6.0-2.25","2743260","co38962","norming","","","{""curiosity"":4,""confidence"":6}","[0,1]","../img/tt/1200tt.jpg","",""
"9766.479999999981","","","recognition","survey-text","184","700821","0.0-6.0-3.25","2743260","co38962","norming","","","{""guess"":""roeien ""}","","../img/tt/1200tt.jpg","",""
"null","../img/gs/1200gs.jpg","null","reveal","image-keyboard-response","185","702824","0.0-6.0-4.25","2743260","co38962","norming","","","","","","",""
"null","../img/tt/1200tt.jpg","null","mooney2","image-keyboard-response","186","704829","0.0-6.0-5.25","2743260","co38962","norming","","","","","","",""
"2290.8600000001024","","","post_reveal_questions","survey-likert","187","707121","0.0-6.0-6.25","2743260","co38962","norming","","","{""aha"":3}","[0]","../img/tt/1200tt.jpg","",""
"null","<div style=""font-size:60px;""> </div>","null","fixation","html-keyboard-response","188","707329","0.0-6.0-0.26","2743260","co38962","norming","","","","","","",""
"null","../img/tt/1227tt.jpg","null","mooney1","image-keyboard-response","189","710331","0.0-6.0-1.26","2743260","co38962","norming","","","","","","",""
"2975.5400000001537","","","post_mooney1_questions","survey-likert","190","713309","0.0-6.0-2.26","2743260","co38962","norming","","","{""curiosity"":1,""confidence"":6}","[0,1]","../img/tt/1227tt.jpg","",""
"2814.409999999916","","","recognition","survey-text","191","716132","0.0-6.0-3.26","2743260","co38962","norming","","","{""guess"":""chickens""}","","../img/tt/1227tt.jpg","",""
"null","../img/gs/1227gs.jpg","null","reveal","image-keyboard-response","192","718139","0.0-6.0-4.26","2743260","co38962","norming","","","","","","",""
"null","../img/tt/1227tt.jpg","null","mooney2","image-keyboard-response","193","720141","0.0-6.0-5.26","2743260","co38962","norming","","","","","","",""
"3380.785000000149","","","post_reveal_questions","survey-likert","194","723524","0.0-6.0-6.26","2743260","co38962","norming","","","{""aha"":1}","[0]","../img/tt/1227tt.jpg","",""
"null","<div style=""font-size:60px;""> </div>","null","fixation","html-keyboard-response","195","723735","0.0-6.0-0.27","2743260","co38962","norming","","","","","","",""
"null","../img/tt/598tt.jpg","null","mooney1","image-keyboard-response","196","726742","0.0-6.0-1.27","2743260","co38962","norming","","","","","","",""
"4812.375","","","post_mooney1_questions","survey-likert","197","731557","0.0-6.0-2.27","2743260","co38962","norming","","","{""curiosity"":5,""confidence"":2}","[0,1]","../img/tt/598tt.jpg","",""
"2678.75","","","recognition","survey-text","198","734245","0.0-6.0-3.27","2743260","co38962","norming","","","{""guess"":""woman""}","","../img/tt/598tt.jpg","",""
"null","../img/gs/598gs.jpg","null","reveal","image-keyboard-response","199","736247","0.0-6.0-4.27","2743260","co38962","norming","","","","","","",""
"null","../img/tt/598tt.jpg","null","mooney2","image-keyboard-response","200","738253","0.0-6.0-5.27","2743260","co38962","norming","","","","","","",""
"2459.089999999851","","","post_reveal_questions","survey-likert","201","740714","0.0-6.0-6.27","2743260","co38962","norming","","","{""aha"":1}","[0]","../img/tt/598tt.jpg","",""
"null","<div style=""font-size:60px;""> </div>","null","fixation","html-keyboard-response","202","740926","0.0-6.0-0.28","2743260","co38962","norming","","","","","","",""
"null","../img/tt/1091tt.jpg","null","mooney1","image-keyboard-response","203","743930","0.0-6.0-1.28","2743260","co38962","norming","","","","","","",""
"5343.474999999977","","","post_mooney1_questions","survey-likert","204","749275","0.0-6.0-2.28","2743260","co38962","norming","","","{""curiosity"":4,""confidence"":5}","[0,1]","../img/tt/1091tt.jpg","",""
"2386.5799999998417","","","recognition","survey-text","205","751671","0.0-6.0-3.28","2743260","co38962","norming","","","{""guess"":""horse""}","","../img/tt/1091tt.jpg","",""
"null","../img/gs/1091gs.jpg","null","reveal","image-keyboard-response","206","753677","0.0-6.0-4.28","2743260","co38962","norming","","","","","","",""
"null","../img/tt/1091tt.jpg","null","mooney2","image-keyboard-response","207","755683","0.0-6.0-5.28","2743260","co38962","norming","","","","","","",""
"5335.394999999902","","","post_reveal_questions","survey-likert","208","761020","0.0-6.0-6.28","2743260","co38962","norming","","","{""aha"":4}","[0]","../img/tt/1091tt.jpg","",""
"null","<div style=""font-size:60px;""> </div>","null","fixation","html-keyboard-response","209","761229","0.0-6.0-0.29","2743260","co38962","norming","","","","","","",""
"null","../img/tt/189tt.jpg","null","mooney1","image-keyboard-response","210","764235","0.0-6.0-1.29","2743260","co38962","norming","","","","","","",""
"5388.744999999879","","","post_mooney1_questions","survey-likert","211","769626","0.0-6.0-2.29","2743260","co38962","norming","","","{""curiosity"":5,""confidence"":1}","[0,1]","../img/tt/189tt.jpg","",""
"7100.425000000047","","","recognition","survey-text","212","776736","0.0-6.0-3.29","2743260","co38962","norming","","","{""guess"":""sheep""}","","../img/tt/189tt.jpg","",""
"null","../img/gs/189gs.jpg","null","reveal","image-keyboard-response","213","778742","0.0-6.0-4.29","2743260","co38962","norming","","","","","","",""
"null","../img/tt/189tt.jpg","null","mooney2","image-keyboard-response","214","780743","0.0-6.0-5.29","2743260","co38962","norming","","","","","","",""
"6071.170000000158","","","post_reveal_questions","survey-likert","215","786816","0.0-6.0-6.29","2743260","co38962","norming","","","{""aha"":4}","[0]","../img/tt/189tt.jpg","",""
"null","<div style=""font-size:60px;""> </div>","null","fixation","html-keyboard-response","216","787028","0.0-6.0-0.30","2743260","co38962","norming","","","","","","",""
"null","../img/tt/1096tt.jpg","null","mooney1","image-keyboard-response","217","790033","0.0-6.0-1.30","2743260","co38962","norming","","","","","","",""
"5399.314999999828","","","post_mooney1_questions","survey-likert","218","795434","0.0-6.0-2.30","2743260","co38962","norming","","","{""curiosity"":4,""confidence"":4}","[0,1]","../img/tt/1096tt.jpg","",""
"2510.3300000000745","","","recognition","survey-text","219","797953","0.0-6.0-3.30","2743260","co38962","norming","","","{""guess"":""stairs""}","","../img/tt/1096tt.jpg","",""
"null","../img/gs/1096gs.jpg","null","reveal","image-keyboard-response","220","799960","0.0-6.0-4.30","2743260","co38962","norming","","","","","","",""
"null","../img/tt/1096tt.jpg","null","mooney2","image-keyboard-response","221","801963","0.0-6.0-5.30","2743260","co38962","norming","","","","","","",""
"2648.9499999999534","","","post_reveal_questions","survey-likert","222","804614","0.0-6.0-6.30","2743260","co38962","norming","","","{""aha"":5}","[0]","../img/tt/1096tt.jpg","",""
"null","<div style=""font-size:60px;""> </div>","null","fixation","html-keyboard-response","223","804822","0.0-6.0-0.31","2743260","co38962","norming","","","","","","",""
"null","../img/tt/098tt.jpg","null","mooney1","image-keyboard-response","224","807826","0.0-6.0-1.31","2743260","co38962","norming","","","","","","",""
"5178.344999999972","","","post_mooney1_questions","survey-likert","225","813007","0.0-6.0-2.31","2743260","co38962","norming","","","{""curiosity"":4,""confidence"":5}","[0,1]","../img/tt/098tt.jpg","",""
"4152.795000000158","","","recognition","survey-text","226","817169","0.0-6.0-3.31","2743260","co38962","norming","","","{""guess"":""insect""}","","../img/tt/098tt.jpg","",""
"null","../img/gs/098gs.jpg","null","reveal","image-keyboard-response","227","819173","0.0-6.0-4.31","2743260","co38962","norming","","","","","","",""
"null","../img/tt/098tt.jpg","null","mooney2","image-keyboard-response","228","821179","0.0-6.0-5.31","2743260","co38962","norming","","","","","","",""
"2253.730000000098","","","post_reveal_questions","survey-likert","229","823435","0.0-6.0-6.31","2743260","co38962","norming","","","{""aha"":4}","[0]","../img/tt/098tt.jpg","",""
"null","<div style=""font-size:60px;""> </div>","null","fixation","html-keyboard-response","230","823645","0.0-6.0-0.32","2743260","co38962","norming","","","","","","",""
"null","../img/tt/1232tt.jpg","null","mooney1","image-keyboard-response","231","826651","0.0-6.0-1.32","2743260","co38962","norming","","","","","","",""
"3599.1149999999907","","","post_mooney1_questions","survey-likert","232","830253","0.0-6.0-2.32","2743260","co38962","norming","","","{""curiosity"":2,""confidence"":6}","[0,1]","../img/tt/1232tt.jpg","",""
"2510.359999999986","","","recognition","survey-text","233","832772","0.0-6.0-3.32","2743260","co38962","norming","","","{""guess"":""moon""}","","../img/tt/1232tt.jpg","",""
"null","../img/gs/1232gs.jpg","null","reveal","image-keyboard-response","234","834775","0.0-6.0-4.32","2743260","co38962","norming","","","","","","",""
"null","../img/tt/1232tt.jpg","null","mooney2","image-keyboard-response","235","836781","0.0-6.0-5.32","2743260","co38962","norming","","","","","","",""
"3155.8749999998836","","","post_reveal_questions","survey-likert","236","839938","0.0-6.0-6.32","2743260","co38962","norming","","","{""aha"":1}","[0]","../img/tt/1232tt.jpg","",""
"null","<div style=""font-size:60px;""> </div>","null","fixation","html-keyboard-response","237","840150","0.0-6.0-0.33","2743260","co38962","norming","","","","","","",""
"null","../img/tt/357tt.jpg","null","mooney1","image-keyboard-response","238","843154","0.0-6.0-1.33","2743260","co38962","norming","","","","","","",""
"3634.0249999997905","","","post_mooney1_questions","survey-likert","239","846790","0.0-6.0-2.33","2743260","co38962","norming","","","{""curiosity"":5,""confidence"":2}","[0,1]","../img/tt/357tt.jpg","",""
"2680.4799999999814","","","recognition","survey-text","240","849480","0.0-6.0-3.33","2743260","co38962","norming","","","{""guess"":""bird""}","","../img/tt/357tt.jpg","",""
"null","../img/gs/357gs.jpg","null","reveal","image-keyboard-response","241","851487","0.0-6.0-4.33","2743260","co38962","norming","","","","","","",""
"null","../img/tt/357tt.jpg","null","mooney2","image-keyboard-response","242","853489","0.0-6.0-5.33","2743260","co38962","norming","","","","","","",""
"8891.955000000075","","","post_reveal_questions","survey-likert","243","862382","0.0-6.0-6.33","2743260","co38962","norming","","","{""aha"":4}","[0]","../img/tt/357tt.jpg","",""
"null","<div style=""font-size:60px;""> </div>","null","fixation","html-keyboard-response","244","862594","0.0-6.0-0.34","2743260","co38962","norming","","","","","","",""
"null","../img/tt/1143tt.jpg","null","mooney1","image-keyboard-response","245","865597","0.0-6.0-1.34","2743260","co38962","norming","","","","","","",""
"25639.01000000001","","","post_mooney1_questions","survey-likert","246","891239","0.0-6.0-2.34","2743260","co38962","norming","","","{""curiosity"":4,""confidence"":1}","[0,1]","../img/tt/1143tt.jpg","",""
"16268.445000000182","","","recognition","survey-text","247","907517","0.0-6.0-3.34","2743260","co38962","norming","","","{""guess"":""I don't know""}","","../img/tt/1143tt.jpg","",""
"null","../img/gs/1143gs.jpg","null","reveal","image-keyboard-response","248","909519","0.0-6.0-4.34","2743260","co38962","norming","","","","","","",""
"null","../img/tt/1143tt.jpg","null","mooney2","image-keyboard-response","249","911524","0.0-6.0-5.34","2743260","co38962","norming","","","","","","",""
"3866.0750000001863","","","post_reveal_questions","survey-likert","250","915392","0.0-6.0-6.34","2743260","co38962","norming","","","{""aha"":5}","[0]","../img/tt/1143tt.jpg","",""
"null","<div style=""font-size:60px;""> </div>","null","fixation","html-keyboard-response","251","915601","0.0-6.0-0.35","2743260","co38962","norming","","","","","","",""
"null","../img/tt/1189tt.jpg","null","mooney1","image-keyboard-response","252","918607","0.0-6.0-1.35","2743260","co38962","norming","","","","","","",""
"3735.6999999999534","","","post_mooney1_questions","survey-likert","253","922345","0.0-6.0-2.35","2743260","co38962","norming","","","{""curiosity"":5,""confidence"":4}","[0,1]","../img/tt/1189tt.jpg","",""
"2532.8649999998743","","","recognition","survey-text","254","924887","0.0-6.0-3.35","2743260","co38962","norming","","","{""guess"":""monkey""}","","../img/tt/1189tt.jpg","",""
"null","../img/gs/1189gs.jpg","null","reveal","image-keyboard-response","255","926891","0.0-6.0-4.35","2743260","co38962","norming","","","","","","",""
"null","../img/tt/1189tt.jpg","null","mooney2","image-keyboard-response","256","928897","0.0-6.0-5.35","2743260","co38962","norming","","","","","","",""
"2445.8249999999534","","","post_reveal_questions","survey-likert","257","931345","0.0-6.0-6.35","2743260","co38962","norming","","","{""aha"":4}","[0]","../img/tt/1189tt.jpg","",""
"null","<div style=""font-size:60px;""> </div>","null","fixation","html-keyboard-response","258","931552","0.0-6.0-0.36","2743260","co38962","norming","","","","","","",""
"null","../img/tt/1186tt.jpg","null","mooney1","image-keyboard-response","259","934559","0.0-6.0-1.36","2743260","co38962","norming","","","","","","",""
"3613.1850000001723","","","post_mooney1_questions","survey-likert","260","938174","0.0-6.0-2.36","2743260","co38962","norming","","","{""curiosity"":5,""confidence"":5}","[0,1]","../img/tt/1186tt.jpg","",""
"2307.5650000000605","","","recognition","survey-text","261","940490","0.0-6.0-3.36","2743260","co38962","norming","","","{""guess"":""dancer""}","","../img/tt/1186tt.jpg","",""
"null","../img/gs/1186gs.jpg","null","reveal","image-keyboard-response","262","942495","0.0-6.0-4.36","2743260","co38962","norming","","","","","","",""
"null","../img/tt/1186tt.jpg","null","mooney2","image-keyboard-response","263","944498","0.0-6.0-5.36","2743260","co38962","norming","","","","","","",""
"2954.680000000051","","","post_reveal_questions","survey-likert","264","947455","0.0-6.0-6.36","2743260","co38962","norming","","","{""aha"":5}","[0]","../img/tt/1186tt.jpg","",""
"null","<div style=""font-size:60px;""> </div>","null","fixation","html-keyboard-response","265","947663","0.0-6.0-0.37","2743260","co38962","norming","","","","","","",""
"null","../img/tt/020tt.jpg","null","mooney1","image-keyboard-response","266","950670","0.0-6.0-1.37","2743260","co38962","norming","","","","","","",""
"5794.084999999963","","","post_mooney1_questions","survey-likert","267","956466","0.0-6.0-2.37","2743260","co38962","norming","","","{""curiosity"":5,""confidence"":2}","[0,1]","../img/tt/020tt.jpg","",""
"5367.655000000028","","","recognition","survey-text","268","961843","0.0-6.0-3.37","2743260","co38962","norming","","","{""guess"":""geisha""}","","../img/tt/020tt.jpg","",""
"null","../img/gs/020gs.jpg","null","reveal","image-keyboard-response","269","963845","0.0-6.0-4.37","2743260","co38962","norming","","","","","","",""
"null","../img/tt/020tt.jpg","null","mooney2","image-keyboard-response","270","965849","0.0-6.0-5.37","2743260","co38962","norming","","","","","","",""
"3969.3349999999627","","","post_reveal_questions","survey-likert","271","969820","0.0-6.0-6.37","2743260","co38962","norming","","","{""aha"":6}","[0]","../img/tt/020tt.jpg","",""
"null","<div style=""font-size:60px;""> </div>","null","fixation","html-keyboard-response","272","970030","0.0-6.0-0.38","2743260","co38962","norming","","","","","","",""
"null","../img/tt/405tt.jpg","null","mooney1","image-keyboard-response","273","973033","0.0-6.0-1.38","2743260","co38962","norming","","","","","","",""
"4873.795000000275","","","post_mooney1_questions","survey-likert","274","977909","0.0-6.0-2.38","2743260","co38962","norming","","","{""curiosity"":3,""confidence"":6}","[0,1]","../img/tt/405tt.jpg","",""
"2836.5050000000047","","","recognition","survey-text","275","980754","0.0-6.0-3.38","2743260","co38962","norming","","","{""guess"":""koala""}","","../img/tt/405tt.jpg","",""
"null","../img/gs/405gs.jpg","null","reveal","image-keyboard-response","276","982759","0.0-6.0-4.38","2743260","co38962","norming","","","","","","",""
"null","../img/tt/405tt.jpg","null","mooney2","image-keyboard-response","277","984765","0.0-6.0-5.38","2743260","co38962","norming","","","","","","",""
"3300.074999999837","","","post_reveal_questions","survey-likert","278","988067","0.0-6.0-6.38","2743260","co38962","norming","","","{""aha"":0}","[0]","../img/tt/405tt.jpg","",""
"null","<div style=""font-size:60px;""> </div>","null","fixation","html-keyboard-response","279","988279","0.0-6.0-0.39","2743260","co38962","norming","","","","","","",""
"null","../img/tt/184tt.jpg","null","mooney1","image-keyboard-response","280","991286","0.0-6.0-1.39","2743260","co38962","norming","","","","","","",""
"3923.2549999998882","","","post_mooney1_questions","survey-likert","281","995211","0.0-6.0-2.39","2743260","co38962","norming","","","{""curiosity"":5,""confidence"":2}","[0,1]","../img/tt/184tt.jpg","",""
"2250.769999999902","","","recognition","survey-text","282","997471","0.0-6.0-3.39","2743260","co38962","norming","","","{""guess"":""owl""}","","../img/tt/184tt.jpg","",""
"null","../img/gs/184gs.jpg","null","reveal","image-keyboard-response","283","999475","0.0-6.0-4.39","2743260","co38962","norming","","","","","","",""
"null","../img/tt/184tt.jpg","null","mooney2","image-keyboard-response","284","1001481","0.0-6.0-5.39","2743260","co38962","norming","","","","","","",""
"2266.625","","","post_reveal_questions","survey-likert","285","1003750","0.0-6.0-6.39","2743260","co38962","norming","","","{""aha"":0}","[0]","../img/tt/184tt.jpg","",""
"null","<div style=""font-size:60px;""> </div>","null","fixation","html-keyboard-response","286","1003961","0.0-6.0-0.40","2743260","co38962","norming","","","","","","",""
"null","../img/tt/507tt.jpg","null","mooney1","image-keyboard-response","287","1006965","0.0-6.0-1.40","2743260","co38962","norming","","","","","","",""
"6447.039999999921","","","post_mooney1_questions","survey-likert","288","1013414","0.0-6.0-2.40","2743260","co38962","norming","","","{""curiosity"":5,""confidence"":5}","[0,1]","../img/tt/507tt.jpg","",""
"6009.130000000005","","","recognition","survey-text","289","1019432","0.0-6.0-3.40","2743260","co38962","norming","","","{""guess"":""performer""}","","../img/tt/507tt.jpg","",""
"null","../img/gs/507gs.jpg","null","reveal","image-keyboard-response","290","1021436","0.0-6.0-4.40","2743260","co38962","norming","","","","","","",""
"null","../img/tt/507tt.jpg","null","mooney2","image-keyboard-response","291","1023441","0.0-6.0-5.40","2743260","co38962","norming","","","","","","",""
"2098.1399999995483","","","post_reveal_questions","survey-likert","292","1025541","0.0-6.0-6.40","2743260","co38962","norming","","","{""aha"":4}","[0]","../img/tt/507tt.jpg","",""
"null","<div style=""font-size:60px;""> </div>","null","fixation","html-keyboard-response","293","1025751","0.0-6.0-0.41","2743260","co38962","norming","","","","","","",""
"null","../img/tt/1012tt.jpg","null","mooney1","image-keyboard-response","294","1028754","0.0-6.0-1.41","2743260","co38962","norming","","","","","","",""
"5920.009999999893","","","post_mooney1_questions","survey-likert","295","1034676","0.0-6.0-2.41","2743260","co38962","norming","","","{""curiosity"":5,""confidence"":2}","[0,1]","../img/tt/1012tt.jpg","",""
"2600.445000000065","","","recognition","survey-text","296","1037286","0.0-6.0-3.41","2743260","co38962","norming","","","{""guess"":""hugging""}","","../img/tt/1012tt.jpg","",""
"null","../img/gs/1012gs.jpg","null","reveal","image-keyboard-response","297","1039288","0.0-6.0-4.41","2743260","co38962","norming","","","","","","",""
"null","../img/tt/1012tt.jpg","null","mooney2","image-keyboard-response","298","1041293","0.0-6.0-5.41","2743260","co38962","norming","","","","","","",""
"2268.0399999998044","","","post_reveal_questions","survey-likert","299","1043563","0.0-6.0-6.41","2743260","co38962","norming","","","{""aha"":4}","[0]","../img/tt/1012tt.jpg","",""
"null","<div style=""font-size:60px;""> </div>","null","fixation","html-keyboard-response","300","1043775","0.0-6.0-0.42","2743260","co38962","norming","","","","","","",""
"null","../img/tt/049tt.jpg","null","mooney1","image-keyboard-response","301","1046777","0.0-6.0-1.42","2743260","co38962","norming","","","","","","",""
"6065.545000000391","","","post_mooney1_questions","survey-likert","302","1052845","0.0-6.0-2.42","2743260","co38962","norming","","","{""curiosity"":4,""confidence"":1}","[0,1]","../img/tt/049tt.jpg","",""
"6222.834999999963","","","recognition","survey-text","303","1059077","0.0-6.0-3.42","2743260","co38962","norming","","","{""guess"":""woman""}","","../img/tt/049tt.jpg","",""
"null","../img/gs/049gs.jpg","null","reveal","image-keyboard-response","304","1061083","0.0-6.0-4.42","2743260","co38962","norming","","","","","","",""
"null","../img/tt/049tt.jpg","null","mooney2","image-keyboard-response","305","1063084","0.0-6.0-5.42","2743260","co38962","norming","","","","","","",""
"2279.695000000065","","","post_reveal_questions","survey-likert","306","1065365","0.0-6.0-6.42","2743260","co38962","norming","","","{""aha"":0}","[0]","../img/tt/049tt.jpg","",""
"null","<div style=""font-size:60px;""> </div>","null","fixation","html-keyboard-response","307","1065577","0.0-6.0-0.43","2743260","co38962","norming","","","","","","",""
"null","../img/tt/406tt.jpg","null","mooney1","image-keyboard-response","308","1068583","0.0-6.0-1.43","2743260","co38962","norming","","","","","","",""
"5105.820000000065","","","post_mooney1_questions","survey-likert","309","1073691","0.0-6.0-2.43","2743260","co38962","norming","","","{""curiosity"":6,""confidence"":1}","[0,1]","../img/tt/406tt.jpg","",""
"5941.280000000028","","","recognition","survey-text","310","1079642","0.0-6.0-3.43","2743260","co38962","norming","","","{""guess"":""I don't know""}","","../img/tt/406tt.jpg","",""
"null","../img/gs/406gs.jpg","null","reveal","image-keyboard-response","311","1081649","0.0-6.0-4.43","2743260","co38962","norming","","","","","","",""
"null","../img/tt/406tt.jpg","null","mooney2","image-keyboard-response","312","1083653","0.0-6.0-5.43","2743260","co38962","norming","","","","","","",""
"2838.214999999851","","","post_reveal_questions","survey-likert","313","1086493","0.0-6.0-6.43","2743260","co38962","norming","","","{""aha"":5}","[0]","../img/tt/406tt.jpg","",""
"null","<div style=""font-size:60px;""> </div>","null","fixation","html-keyboard-response","314","1086703","0.0-6.0-0.44","2743260","co38962","norming","","","","","","",""
"null","../img/tt/1043tt.jpg","null","mooney1","image-keyboard-response","315","1089704","0.0-6.0-1.44","2743260","co38962","norming","","","","","","",""
"3762.1100000003353","","","post_mooney1_questions","survey-likert","316","1093469","0.0-6.0-2.44","2743260","co38962","norming","","","{""curiosity"":5,""confidence"":4}","[0,1]","../img/tt/1043tt.jpg","",""
"2859.005000000121","","","recognition","survey-text","317","1096337","0.0-6.0-3.44","2743260","co38962","norming","","","{""guess"":""car""}","","../img/tt/1043tt.jpg","",""
"null","../img/gs/1043gs.jpg","null","reveal","image-keyboard-response","318","1098344","0.0-6.0-4.44","2743260","co38962","norming","","","","","","",""
"null","../img/tt/1043tt.jpg","null","mooney2","image-keyboard-response","319","1100347","0.0-6.0-5.44","2743260","co38962","norming","","","","","","",""
"2535.2400000002235","","","post_reveal_questions","survey-likert","320","1102885","0.0-6.0-6.44","2743260","co38962","norming","","","{""aha"":5}","[0]","../img/tt/1043tt.jpg","",""
"null","<div style=""font-size:60px;""> </div>","null","fixation","html-keyboard-response","321","1103096","0.0-6.0-0.45","2743260","co38962","norming","","","","","","",""
"null","../img/tt/123tt.jpg","null","mooney1","image-keyboard-response","322","1106099","0.0-6.0-1.45","2743260","co38962","norming","","","","","","",""
"6694.695000000298","","","post_mooney1_questions","survey-likert","323","1112796","0.0-6.0-2.45","2743260","co38962","norming","","","{""curiosity"":5,""confidence"":4}","[0,1]","../img/tt/123tt.jpg","",""
"3804.059999999823","","","recognition","survey-text","324","1116609","0.0-6.0-3.45","2743260","co38962","norming","","","{""guess"":""dj set""}","","../img/tt/123tt.jpg","",""
"null","../img/gs/123gs.jpg","null","reveal","image-keyboard-response","325","1118612","0.0-6.0-4.45","2743260","co38962","norming","","","","","","",""
"null","../img/tt/123tt.jpg","null","mooney2","image-keyboard-response","326","1120616","0.0-6.0-5.45","2743260","co38962","norming","","","","","","",""
"2392.6099999998696","","","post_reveal_questions","survey-likert","327","1123011","0.0-6.0-6.45","2743260","co38962","norming","","","{""aha"":5}","[0]","../img/tt/123tt.jpg","",""
"null","<div style=""font-size:60px;""> </div>","null","fixation","html-keyboard-response","328","1123219","0.0-6.0-0.46","2743260","co38962","norming","","","","","","",""
"null","../img/tt/1236tt.jpg","null","mooney1","image-keyboard-response","329","1126224","0.0-6.0-1.46","2743260","co38962","norming","","","","","","",""
"5031.269999999786","","","post_mooney1_questions","survey-likert","330","1131257","0.0-6.0-2.46","2743260","co38962","norming","","","{""curiosity"":5,""confidence"":2}","[0,1]","../img/tt/1236tt.jpg","",""
"5266.324999999953","","","recognition","survey-text","331","1136533","0.0-6.0-3.46","2743260","co38962","norming","","","{""guess"":""batman""}","","../img/tt/1236tt.jpg","",""
"null","../img/gs/1236gs.jpg","null","reveal","image-keyboard-response","332","1138540","0.0-6.0-4.46","2743260","co38962","norming","","","","","","",""
"null","../img/tt/1236tt.jpg","null","mooney2","image-keyboard-response","333","1140546","0.0-6.0-5.46","2743260","co38962","norming","","","","","","",""
"3084.4599999999627","","","post_reveal_questions","survey-likert","334","1143632","0.0-6.0-6.46","2743260","co38962","norming","","","{""aha"":1}","[0]","../img/tt/1236tt.jpg","",""
"null","<div style=""font-size:60px;""> </div>","null","fixation","html-keyboard-response","335","1143844","0.0-6.0-0.47","2743260","co38962","norming","","","","","","",""
"null","../img/tt/1290tt.jpg","null","mooney1","image-keyboard-response","336","1146850","0.0-6.0-1.47","2743260","co38962","norming","","","","","","",""
"5374.979999999981","","","post_mooney1_questions","survey-likert","337","1152227","0.0-6.0-2.47","2743260","co38962","norming","","","{""curiosity"":2,""confidence"":5}","[0,1]","../img/tt/1290tt.jpg","",""
"5356.39000000013","","","recognition","survey-text","338","1157593","0.0-6.0-3.47","2743260","co38962","norming","","","{""guess"":""kabelbaan""}","","../img/tt/1290tt.jpg","",""
"null","../img/gs/1290gs.jpg","null","reveal","image-keyboard-response","339","1159598","0.0-6.0-4.47","2743260","co38962","norming","","","","","","",""
"null","../img/tt/1290tt.jpg","null","mooney2","image-keyboard-response","340","1161605","0.0-6.0-5.47","2743260","co38962","norming","","","","","","",""
"2882.755000000121","","","post_reveal_questions","survey-likert","341","1164489","0.0-6.0-6.47","2743260","co38962","norming","","","{""aha"":0}","[0]","../img/tt/1290tt.jpg","",""
"null","<div style=""font-size:60px;""> </div>","null","fixation","html-keyboard-response","342","1164701","0.0-6.0-0.48","2743260","co38962","norming","","","","","","",""
"null","../img/tt/1125tt.jpg","null","mooney1","image-keyboard-response","343","1167705","0.0-6.0-1.48","2743260","co38962","norming","","","","","","",""
"3791.274999999674","","","post_mooney1_questions","survey-likert","344","1171499","0.0-6.0-2.48","2743260","co38962","norming","","","{""curiosity"":1,""confidence"":6}","[0,1]","../img/tt/1125tt.jpg","",""
"4411.290000000037","","","recognition","survey-text","345","1175919","0.0-6.0-3.48","2743260","co38962","norming","","","{""guess"":""playing the violin""}","","../img/tt/1125tt.jpg","",""
"null","../img/gs/1125gs.jpg","null","reveal","image-keyboard-response","346","1177926","0.0-6.0-4.48","2743260","co38962","norming","","","","","","",""
"null","../img/tt/1125tt.jpg","null","mooney2","image-keyboard-response","347","1179931","0.0-6.0-5.48","2743260","co38962","norming","","","","","","",""
"5008.77500000014","","","post_reveal_questions","survey-likert","348","1184942","0.0-6.0-6.48","2743260","co38962","norming","","","{""aha"":1}","[0]","../img/tt/1125tt.jpg","",""
"null","<div style=""font-size:60px;""> </div>","null","fixation","html-keyboard-response","349","1185151","0.0-6.0-0.49","2743260","co38962","norming","","","","","","",""
"null","../img/tt/112tt.jpg","null","mooney1","image-keyboard-response","350","1188156","0.0-6.0-1.49","2743260","co38962","norming","","","","","","",""
"4231.1049999997485","","","post_mooney1_questions","survey-likert","351","1192390","0.0-6.0-2.49","2743260","co38962","norming","","","{""curiosity"":2,""confidence"":6}","[0,1]","../img/tt/112tt.jpg","",""
"3050.1999999997206","","","recognition","survey-text","352","1195449","0.0-6.0-3.49","2743260","co38962","norming","","","{""guess"":""fluit""}","","../img/tt/112tt.jpg","",""
"null","../img/gs/112gs.jpg","null","reveal","image-keyboard-response","353","1197454","0.0-6.0-4.49","2743260","co38962","norming","","","","","","",""
"null","../img/tt/112tt.jpg","null","mooney2","image-keyboard-response","354","1199459","0.0-6.0-5.49","2743260","co38962","norming","","","","","","",""
"2839.9549999998417","","","post_reveal_questions","survey-likert","355","1202301","0.0-6.0-6.49","2743260","co38962","norming","","","{""aha"":1}","[0]","../img/tt/112tt.jpg","",""
"null","<div style=""font-size:60px;""> </div>","null","fixation","html-keyboard-response","356","1202508","0.0-6.0-0.50","2743260","co38962","norming","","","","","","",""
"null","../img/tt/1242tt.jpg","null","mooney1","image-keyboard-response","357","1205514","0.0-6.0-1.50","2743260","co38962","norming","","","","","","",""
"4096.869999999879","","","post_mooney1_questions","survey-likert","358","1209613","0.0-6.0-2.50","2743260","co38962","norming","","","{""curiosity"":5,""confidence"":5}","[0,1]","../img/tt/1242tt.jpg","",""
"3072.7450000001118","","","recognition","survey-text","359","1212695","0.0-6.0-3.50","2743260","co38962","norming","","","{""guess"":""fox""}","","../img/tt/1242tt.jpg","",""
"null","../img/gs/1242gs.jpg","null","reveal","image-keyboard-response","360","1214698","0.0-6.0-4.50","2743260","co38962","norming","","","","","","",""
"null","../img/tt/1242tt.jpg","null","mooney2","image-keyboard-response","361","1216701","0.0-6.0-5.50","2743260","co38962","norming","","","","","","",""
"2956.4599999999627","","","post_reveal_questions","survey-likert","362","1219659","0.0-6.0-6.50","2743260","co38962","norming","","","{""aha"":1}","[0]","../img/tt/1242tt.jpg","",""
"null","<div style=""font-size:60px;""> </div>","null","fixation","html-keyboard-response","363","1219871","0.0-6.0-0.51","2743260","co38962","norming","","","","","","",""
"null","../img/tt/456tt.jpg","null","mooney1","image-keyboard-response","364","1222878","0.0-6.0-1.51","2743260","co38962","norming","","","","","","",""
"3732.534999999916","","","post_mooney1_questions","survey-likert","365","1226612","0.0-6.0-2.51","2743260","co38962","norming","","","{""curiosity"":4,""confidence"":4}","[0,1]","../img/tt/456tt.jpg","",""
"2172.5550000001676","","","recognition","survey-text","366","1228794","0.0-6.0-3.51","2743260","co38962","norming","","","{""guess"":""pig""}","","../img/tt/456tt.jpg","",""
"null","../img/gs/456gs.jpg","null","reveal","image-keyboard-response","367","1230801","0.0-6.0-4.51","2743260","co38962","norming","","","","","","",""
"null","../img/tt/456tt.jpg","null","mooney2","image-keyboard-response","368","1232807","0.0-6.0-5.51","2743260","co38962","norming","","","","","","",""
"2972.0500000002794","","","post_reveal_questions","survey-likert","369","1235781","0.0-6.0-6.51","2743260","co38962","norming","","","{""aha"":5}","[0]","../img/tt/456tt.jpg","",""
"null","<div style=""font-size:60px;""> </div>","null","fixation","html-keyboard-response","370","1235989","0.0-6.0-0.52","2743260","co38962","norming","","","","","","",""
"null","../img/tt/468tt.jpg","null","mooney1","image-keyboard-response","371","1238992","0.0-6.0-1.52","2743260","co38962","norming","","","","","","",""
"4965.519999999786","","","post_mooney1_questions","survey-likert","372","1243960","0.0-6.0-2.52","2743260","co38962","norming","","","{""curiosity"":4,""confidence"":5}","[0,1]","../img/tt/468tt.jpg","",""
"2397.3249999999534","","","recognition","survey-text","373","1246366","0.0-6.0-3.52","2743260","co38962","norming","","","{""guess"":""violin""}","","../img/tt/468tt.jpg","",""
"null","../img/gs/468gs.jpg","null","reveal","image-keyboard-response","374","1248370","0.0-6.0-4.52","2743260","co38962","norming","","","","","","",""
"null","../img/tt/468tt.jpg","null","mooney2","image-keyboard-response","375","1250371","0.0-6.0-5.52","2743260","co38962","norming","","","","","","",""
"3081.939999999944","","","post_reveal_questions","survey-likert","376","1253454","0.0-6.0-6.52","2743260","co38962","norming","","","{""aha"":2}","[0]","../img/tt/468tt.jpg","",""
"null","<div style=""font-size:60px;""> </div>","null","fixation","html-keyboard-response","377","1253665","0.0-6.0-0.53","2743260","co38962","norming","","","","","","",""
"null","../img/tt/1251tt.jpg","null","mooney1","image-keyboard-response","378","1256672","0.0-6.0-1.53","2743260","co38962","norming","","","","","","",""
"4115.719999999972","","","post_mooney1_questions","survey-likert","379","1260790","0.0-6.0-2.53","2743260","co38962","norming","","","{""curiosity"":5,""confidence"":5}","[0,1]","../img/tt/1251tt.jpg","",""
"2329.864999999758","","","recognition","survey-text","380","1263129","0.0-6.0-3.53","2743260","co38962","norming","","","{""guess"":""bear""}","","../img/tt/1251tt.jpg","",""
"null","../img/gs/1251gs.jpg","null","reveal","image-keyboard-response","381","1265136","0.0-6.0-4.53","2743260","co38962","norming","","","","","","",""
"null","../img/tt/1251tt.jpg","null","mooney2","image-keyboard-response","382","1267140","0.0-6.0-5.53","2743260","co38962","norming","","","","","","",""
"2377.3199999995995","","","post_reveal_questions","survey-likert","383","1269519","0.0-6.0-6.53","2743260","co38962","norming","","","{""aha"":4}","[0]","../img/tt/1251tt.jpg","",""
"null","<div style=""font-size:60px;""> </div>","null","fixation","html-keyboard-response","384","1269728","0.0-6.0-0.54","2743260","co38962","norming","","","","","","",""
"null","../img/tt/1130tt.jpg","null","mooney1","image-keyboard-response","385","1272734","0.0-6.0-1.54","2743260","co38962","norming","","","","","","",""
"4804.409999999683","","","post_mooney1_questions","survey-likert","386","1277541","0.0-6.0-2.54","2743260","co38962","norming","","","{""curiosity"":4,""confidence"":5}","[0,1]","../img/tt/1130tt.jpg","",""
"2937.5200000004843","","","recognition","survey-text","387","1280488","0.0-6.0-3.54","2743260","co38962","norming","","","{""guess"":""soccer""}","","../img/tt/1130tt.jpg","",""
"null","../img/gs/1130gs.jpg","null","reveal","image-keyboard-response","388","1282490","0.0-6.0-4.54","2743260","co38962","norming","","","","","","",""
"null","../img/tt/1130tt.jpg","null","mooney2","image-keyboard-response","389","1284491","0.0-6.0-5.54","2743260","co38962","norming","","","","","","",""
"2981.6949999998324","","","post_reveal_questions","survey-likert","390","1287474","0.0-6.0-6.54","2743260","co38962","norming","","","{""aha"":4}","[0]","../img/tt/1130tt.jpg","",""
"null","<div style=""font-size:60px;""> </div>","null","fixation","html-keyboard-response","391","1287684","0.0-6.0-0.55","2743260","co38962","norming","","","","","","",""
"null","../img/tt/300tt.jpg","null","mooney1","image-keyboard-response","392","1290687","0.0-6.0-1.55","2743260","co38962","norming","","","","","","",""
"5200.310000000289","","","post_mooney1_questions","survey-likert","393","1295890","0.0-6.0-2.55","2743260","co38962","norming","","","{""curiosity"":4,""confidence"":5}","[0,1]","../img/tt/300tt.jpg","",""
"3443.8849999997765","","","recognition","survey-text","394","1299343","0.0-6.0-3.55","2743260","co38962","norming","","","{""guess"":""monnik""}","","../img/tt/300tt.jpg","",""
"null","../img/gs/300gs.jpg","null","reveal","image-keyboard-response","395","1301347","0.0-6.0-4.55","2743260","co38962","norming","","","","","","",""
"null","../img/tt/300tt.jpg","null","mooney2","image-keyboard-response","396","1303352","0.0-6.0-5.55","2743260","co38962","norming","","","","","","",""
"2378.970000000205","","","post_reveal_questions","survey-likert","397","1305733","0.0-6.0-6.55","2743260","co38962","norming","","","{""aha"":4}","[0]","../img/tt/300tt.jpg","",""
"null","<div style=""font-size:60px;""> </div>","null","fixation","html-keyboard-response","398","1305945","0.0-6.0-0.56","2743260","co38962","norming","","","","","","",""
"null","../img/tt/1272tt.jpg","null","mooney1","image-keyboard-response","399","1308951","0.0-6.0-1.56","2743260","co38962","norming","","","","","","",""
"4778.294999999693","","","post_mooney1_questions","survey-likert","400","1313732","0.0-6.0-2.56","2743260","co38962","norming","","","{""curiosity"":5,""confidence"":4}","[0,1]","../img/tt/1272tt.jpg","",""
"2443.1350000000093","","","recognition","survey-text","401","1316184","0.0-6.0-3.56","2743260","co38962","norming","","","{""guess"":""wolf""}","","../img/tt/1272tt.jpg","",""
"null","../img/gs/1272gs.jpg","null","reveal","image-keyboard-response","402","1318187","0.0-6.0-4.56","2743260","co38962","norming","","","","","","",""
"null","../img/tt/1272tt.jpg","null","mooney2","image-keyboard-response","403","1320190","0.0-6.0-5.56","2743260","co38962","norming","","","","","","",""
"2304.08000000054","","","post_reveal_questions","survey-likert","404","1322495","0.0-6.0-6.56","2743260","co38962","norming","","","{""aha"":2}","[0]","../img/tt/1272tt.jpg","",""
"null","<div style=""font-size:60px;""> </div>","null","fixation","html-keyboard-response","405","1322705","0.0-6.0-0.57","2743260","co38962","norming","","","","","","",""
"null","../img/tt/1066tt.jpg","null","mooney1","image-keyboard-response","406","1325708","0.0-6.0-1.57","2743260","co38962","norming","","","","","","",""
"3490.0250000001397","","","post_mooney1_questions","survey-likert","407","1329201","0.0-6.0-2.57","2743260","co38962","norming","","","{""curiosity"":4,""confidence"":5}","[0,1]","../img/tt/1066tt.jpg","",""
"12927.780000000028","","","recognition","survey-text","408","1342138","0.0-6.0-3.57","2743260","co38962","norming","","","{""guess"":""traktor""}","","../img/tt/1066tt.jpg","",""
"null","../img/gs/1066gs.jpg","null","reveal","image-keyboard-response","409","1344141","0.0-6.0-4.57","2743260","co38962","norming","","","","","","",""
"null","../img/tt/1066tt.jpg","null","mooney2","image-keyboard-response","410","1346143","0.0-6.0-5.57","2743260","co38962","norming","","","","","","",""
"2393.6149999999907","","","post_reveal_questions","survey-likert","411","1348539","0.0-6.0-6.57","2743260","co38962","norming","","","{""aha"":1}","[0]","../img/tt/1066tt.jpg","",""
"null","<div style=""font-size:60px;""> </div>","null","fixation","html-keyboard-response","412","1348751","0.0-6.0-0.58","2743260","co38962","norming","","","","","","",""
"null","../img/tt/1107tt.jpg","null","mooney1","image-keyboard-response","413","1351757","0.0-6.0-1.58","2743260","co38962","norming","","","","","","",""
"4260.90000000014","","","post_mooney1_questions","survey-likert","414","1356021","0.0-6.0-2.58","2743260","co38962","norming","","","{""curiosity"":5,""confidence"":4}","[0,1]","../img/tt/1107tt.jpg","",""
"2678.8249999999534","","","recognition","survey-text","415","1358709","0.0-6.0-3.58","2743260","co38962","norming","","","{""guess"":""wolf""}","","../img/tt/1107tt.jpg","",""
"null","../img/gs/1107gs.jpg","null","reveal","image-keyboard-response","416","1360712","0.0-6.0-4.58","2743260","co38962","norming","","","","","","",""
"null","../img/tt/1107tt.jpg","null","mooney2","image-keyboard-response","417","1362713","0.0-6.0-5.58","2743260","co38962","norming","","","","","","",""
"2620.030000000028","","","post_reveal_questions","survey-likert","418","1365335","0.0-6.0-6.58","2743260","co38962","norming","","","{""aha"":0}","[0]","../img/tt/1107tt.jpg","",""
"null","<div style=""font-size:60px;""> </div>","null","fixation","html-keyboard-response","419","1365547","0.0-6.0-0.59","2743260","co38962","norming","","","","","","",""
"null","../img/tt/1191tt.jpg","null","mooney1","image-keyboard-response","420","1368551","0.0-6.0-1.59","2743260","co38962","norming","","","","","","",""
"5636.449999999953","","","post_mooney1_questions","survey-likert","421","1374189","0.0-6.0-2.59","2743260","co38962","norming","","","{""curiosity"":5,""confidence"":5}","[0,1]","../img/tt/1191tt.jpg","",""
"2701.125","","","recognition","survey-text","422","1376900","0.0-6.0-3.59","2743260","co38962","norming","","","{""guess"":""dancers""}","","../img/tt/1191tt.jpg","",""
"null","../img/gs/1191gs.jpg","null","reveal","image-keyboard-response","423","1378906","0.0-6.0-4.59","2743260","co38962","norming","","","","","","",""
"null","../img/tt/1191tt.jpg","null","mooney2","image-keyboard-response","424","1380909","0.0-6.0-5.59","2743260","co38962","norming","","","","","","",""
"2063.6749999998137","","","post_reveal_questions","survey-likert","425","1382975","0.0-6.0-6.59","2743260","co38962","norming","","","{""aha"":1}","[0]","../img/tt/1191tt.jpg","",""
"null","<div style=""font-size:60px;""> </div>","null","fixation","html-keyboard-response","426","1383187","0.0-6.0-0.60","2743260","co38962","norming","","","","","","",""
"null","../img/tt/416tt.jpg","null","mooney1","image-keyboard-response","427","1386193","0.0-6.0-1.60","2743260","co38962","norming","","","","","","",""
"4024.8649999999907","","","post_mooney1_questions","survey-likert","428","1390220","0.0-6.0-2.60","2743260","co38962","norming","","","{""curiosity"":1,""confidence"":6}","[0,1]","../img/tt/416tt.jpg","",""
"3781.820000000065","","","recognition","survey-text","429","1394011","0.0-6.0-3.60","2743260","co38962","norming","","","{""guess"":""struisvogel""}","","../img/tt/416tt.jpg","",""
"null","../img/gs/416gs.jpg","null","reveal","image-keyboard-response","430","1396018","0.0-6.0-4.60","2743260","co38962","norming","","","","","","",""
"null","../img/tt/416tt.jpg","null","mooney2","image-keyboard-response","431","1398020","0.0-6.0-5.60","2743260","co38962","norming","","","","","","",""
"1749.9550000003073","","","post_reveal_questions","survey-likert","432","1399772","0.0-6.0-6.60","2743260","co38962","norming","","","{""aha"":1}","[0]","../img/tt/416tt.jpg","",""
"null","<div style=""font-size:60px;""> </div>","null","fixation","html-keyboard-response","433","1399980","0.0-6.0-0.61","2743260","co38962","norming","","","","","","",""
"null","../img/tt/084tt.jpg","null","mooney1","image-keyboard-response","434","1402986","0.0-6.0-1.61","2743260","co38962","norming","","","","","","",""
"6604.719999999739","","","post_mooney1_questions","survey-likert","435","1409593","0.0-6.0-2.61","2743260","co38962","norming","","","{""curiosity"":4,""confidence"":5}","[0,1]","../img/tt/084tt.jpg","",""
"6942.635000000009","","","recognition","survey-text","436","1416545","0.0-6.0-3.61","2743260","co38962","norming","","","{""guess"":""pigeon""}","","../img/tt/084tt.jpg","",""
"null","../img/gs/084gs.jpg","null","reveal","image-keyboard-response","437","1418551","0.0-6.0-4.61","2743260","co38962","norming","","","","","","",""
"null","../img/tt/084tt.jpg","null","mooney2","image-keyboard-response","438","1420554","0.0-6.0-5.61","2743260","co38962","norming","","","","","","",""
"3020.855000000214","","","post_reveal_questions","survey-likert","439","1423577","0.0-6.0-6.61","2743260","co38962","norming","","","{""aha"":4}","[0]","../img/tt/084tt.jpg","",""
"null","<div style=""font-size:60px;""> </div>","null","fixation","html-keyboard-response","440","1423789","0.0-6.0-0.62","2743260","co38962","norming","","","","","","",""
"null","../img/tt/052tt.jpg","null","mooney1","image-keyboard-response","441","1426795","0.0-6.0-1.62","2743260","co38962","norming","","","","","","",""
"3327.0749999999534","","","post_mooney1_questions","survey-likert","442","1430124","0.0-6.0-2.62","2743260","co38962","norming","","","{""curiosity"":5,""confidence"":4}","[0,1]","../img/tt/052tt.jpg","",""
"2228.9449999998324","","","recognition","survey-text","443","1432362","0.0-6.0-3.62","2743260","co38962","norming","","","{""guess"":""kaas""}","","../img/tt/052tt.jpg","",""
"null","../img/gs/052gs.jpg","null","reveal","image-keyboard-response","444","1434369","0.0-6.0-4.62","2743260","co38962","norming","","","","","","",""
"null","../img/tt/052tt.jpg","null","mooney2","image-keyboard-response","445","1436370","0.0-6.0-5.62","2743260","co38962","norming","","","","","","",""
"1177.380000000121","","","post_reveal_questions","survey-likert","446","1437549","0.0-6.0-6.62","2743260","co38962","norming","","","{""aha"":4}","[0]","../img/tt/052tt.jpg","",""
"null","<div style=""font-size:60px;""> </div>","null","fixation","html-keyboard-response","447","1437759","0.0-6.0-0.63","2743260","co38962","norming","","","","","","",""
"null","../img/tt/1228tt.jpg","null","mooney1","image-keyboard-response","448","1440765","0.0-6.0-1.63","2743260","co38962","norming","","","","","","",""
"4792.104999999981","","","post_mooney1_questions","survey-likert","449","1445559","0.0-6.0-2.63","2743260","co38962","norming","","","{""curiosity"":4,""confidence"":6}","[0,1]","../img/tt/1228tt.jpg","",""
"3106.1350000000093","","","recognition","survey-text","450","1448675","0.0-6.0-3.63","2743260","co38962","norming","","","{""guess"":""bird""}","","../img/tt/1228tt.jpg","",""
"null","../img/gs/1228gs.jpg","null","reveal","image-keyboard-response","451","1450682","0.0-6.0-4.63","2743260","co38962","norming","","","","","","",""
"null","../img/tt/1228tt.jpg","null","mooney2","image-keyboard-response","452","1452685","0.0-6.0-5.63","2743260","co38962","norming","","","","","","",""
"3638.714999999851","","","post_reveal_questions","survey-likert","453","1456325","0.0-6.0-6.63","2743260","co38962","norming","","","{""aha"":4}","[0]","../img/tt/1228tt.jpg","",""
"null","<div style=""font-size:60px;""> </div>","null","fixation","html-keyboard-response","454","1456536","0.0-6.0-0.64","2743260","co38962","norming","","","","","","",""
"null","../img/tt/1353tt.jpg","null","mooney1","image-keyboard-response","455","1459539","0.0-6.0-1.64","2743260","co38962","norming","","","","","","",""
"3096.0500000000466","","","post_mooney1_questions","survey-likert","456","1462637","0.0-6.0-2.64","2743260","co38962","norming","","","{""curiosity"":5,""confidence"":4}","[0,1]","../img/tt/1353tt.jpg","",""
"2251.269999999553","","","recognition","survey-text","457","1464897","0.0-6.0-3.64","2743260","co38962","norming","","","{""guess"":""maria""}","","../img/tt/1353tt.jpg","",""
"null","../img/gs/1353gs.jpg","null","reveal","image-keyboard-response","458","1466904","0.0-6.0-4.64","2743260","co38962","norming","","","","","","",""
"null","../img/tt/1353tt.jpg","null","mooney2","image-keyboard-response","459","1468910","0.0-6.0-5.64","2743260","co38962","norming","","","","","","",""
"3141.184999999823","","","post_reveal_questions","survey-likert","460","1472053","0.0-6.0-6.64","2743260","co38962","norming","","","{""aha"":1}","[0]","../img/tt/1353tt.jpg","",""
"null","<div style=""font-size:60px;""> </div>","null","fixation","html-keyboard-response","461","1472264","0.0-6.0-0.65","2743260","co38962","norming","","","","","","",""
"null","../img/tt/055tt.jpg","null","mooney1","image-keyboard-response","462","1475269","0.0-6.0-1.65","2743260","co38962","norming","","","","","","",""
"6389.250000000233","","","post_mooney1_questions","survey-likert","463","1481661","0.0-6.0-2.65","2743260","co38962","norming","","","{""curiosity"":2,""confidence"":5}","[0,1]","../img/tt/055tt.jpg","",""
"3455.2050000003073","","","recognition","survey-text","464","1485125","0.0-6.0-3.65","2743260","co38962","norming","","","{""guess"":""zadel""}","","../img/tt/055tt.jpg","",""
"null","../img/gs/055gs.jpg","null","reveal","image-keyboard-response","465","1487132","0.0-6.0-4.65","2743260","co38962","norming","","","","","","",""
"null","../img/tt/055tt.jpg","null","mooney2","image-keyboard-response","466","1489138","0.0-6.0-5.65","2743260","co38962","norming","","","","","","",""
"3061.7350000003353","","","post_reveal_questions","survey-likert","467","1492202","0.0-6.0-6.65","2743260","co38962","norming","","","{""aha"":1}","[0]","../img/tt/055tt.jpg","",""
"null","<div style=""font-size:60px;""> </div>","null","fixation","html-keyboard-response","468","1492410","0.0-6.0-0.66","2743260","co38962","norming","","","","","","",""
"null","../img/tt/436tt.jpg","null","mooney1","image-keyboard-response","469","1495413","0.0-6.0-1.66","2743260","co38962","norming","","","","","","",""
"4143.814999999944","","","post_mooney1_questions","survey-likert","470","1499559","0.0-6.0-2.66","2743260","co38962","norming","","","{""curiosity"":5,""confidence"":4}","[0,1]","../img/tt/436tt.jpg","",""
"2094.2049999998417","","","recognition","survey-text","471","1501662","0.0-6.0-3.66","2743260","co38962","norming","","","{""guess"":""hand""}","","../img/tt/436tt.jpg","",""
"null","../img/gs/436gs.jpg","null","reveal","image-keyboard-response","472","1503664","0.0-6.0-4.66","2743260","co38962","norming","","","","","","",""
"null","../img/tt/436tt.jpg","null","mooney2","image-keyboard-response","473","1505670","0.0-6.0-5.66","2743260","co38962","norming","","","","","","",""
"3347.8349999999627","","","post_reveal_questions","survey-likert","474","1509020","0.0-6.0-6.66","2743260","co38962","norming","","","{""aha"":2}","[0]","../img/tt/436tt.jpg","",""
"null","<div style=""font-size:60px;""> </div>","null","fixation","html-keyboard-response","475","1509232","0.0-6.0-0.67","2743260","co38962","norming","","","","","","",""
"null","../img/tt/063tt.jpg","null","mooney1","image-keyboard-response","476","1512237","0.0-6.0-1.67","2743260","co38962","norming","","","","","","",""
"3767.630000000121","","","post_mooney1_questions","survey-likert","477","1516007","0.0-6.0-2.67","2743260","co38962","norming","","","{""curiosity"":4,""confidence"":5}","[0,1]","../img/tt/063tt.jpg","",""
"3994.880000000121","","","recognition","survey-text","478","1520011","0.0-6.0-3.67","2743260","co38962","norming","","","{""guess"":""typemachine""}","","../img/tt/063tt.jpg","",""
"null","../img/gs/063gs.jpg","null","reveal","image-keyboard-response","479","1522015","0.0-6.0-4.67","2743260","co38962","norming","","","","","","",""
"null","../img/tt/063tt.jpg","null","mooney2","image-keyboard-response","480","1524017","0.0-6.0-5.67","2743260","co38962","norming","","","","","","",""
"2202.554999999935","","","post_reveal_questions","survey-likert","481","1526221","0.0-6.0-6.67","2743260","co38962","norming","","","{""aha"":4}","[0]","../img/tt/063tt.jpg","",""
"null","<div style=""font-size:60px;""> </div>","null","fixation","html-keyboard-response","482","1526432","0.0-6.0-0.68","2743260","co38962","norming","","","","","","",""
"null","../img/tt/1033tt.jpg","null","mooney1","image-keyboard-response","483","1529438","0.0-6.0-1.68","2743260","co38962","norming","","","","","","",""
"4375.735000000102","","","post_mooney1_questions","survey-likert","484","1533815","0.0-6.0-2.68","2743260","co38962","norming","","","{""curiosity"":5,""confidence"":4}","[0,1]","../img/tt/1033tt.jpg","",""
"2420.844999999972","","","recognition","survey-text","485","1536245","0.0-6.0-3.68","2743260","co38962","norming","","","{""guess"":""zwaard""}","","../img/tt/1033tt.jpg","",""
"null","../img/gs/1033gs.jpg","null","reveal","image-keyboard-response","486","1538249","0.0-6.0-4.68","2743260","co38962","norming","","","","","","",""
"null","../img/tt/1033tt.jpg","null","mooney2","image-keyboard-response","487","1540255","0.0-6.0-5.68","2743260","co38962","norming","","","","","","",""
"3761.970000000205","","","post_reveal_questions","survey-likert","488","1544019","0.0-6.0-6.68","2743260","co38962","norming","","","{""aha"":5}","[0]","../img/tt/1033tt.jpg","",""
"null","<div style=""font-size:60px;""> </div>","null","fixation","html-keyboard-response","489","1544231","0.0-6.0-0.69","2743260","co38962","norming","","","","","","",""
"null","../img/tt/078tt.jpg","null","mooney1","image-keyboard-response","490","1547233","0.0-6.0-1.69","2743260","co38962","norming","","","","","","",""
"5581.060000000056","","","post_mooney1_questions","survey-likert","491","1552817","0.0-6.0-2.69","2743260","co38962","norming","","","{""curiosity"":1,""confidence"":6}","[0,1]","../img/tt/078tt.jpg","",""
"3331.140000000363","","","recognition","survey-text","492","1556157","0.0-6.0-3.69","2743260","co38962","norming","","","{""guess"":""druiven""}","","../img/tt/078tt.jpg","",""
"null","../img/gs/078gs.jpg","null","reveal","image-keyboard-response","493","1558163","0.0-6.0-4.69","2743260","co38962","norming","","","","","","",""
"null","../img/tt/078tt.jpg","null","mooney2","image-keyboard-response","494","1560166","0.0-6.0-5.69","2743260","co38962","norming","","","","","","",""
"2807.4499999999534","","","post_reveal_questions","survey-likert","495","1562975","0.0-6.0-6.69","2743260","co38962","norming","","","{""aha"":1}","[0]","../img/tt/078tt.jpg","",""
"null","<div style=""font-size:60px;""> </div>","null","fixation","html-keyboard-response","496","1563186","0.0-6.0-0.70","2743260","co38962","norming","","","","","","",""
"null","../img/tt/111tt.jpg","null","mooney1","image-keyboard-response","497","1566193","0.0-6.0-1.70","2743260","co38962","norming","","","","","","",""
"4306.639999999898","","","post_mooney1_questions","survey-likert","498","1570502","0.0-6.0-2.70","2743260","co38962","norming","","","{""curiosity"":5,""confidence"":2}","[0,1]","../img/tt/111tt.jpg","",""
"4288.020000000019","","","recognition","survey-text","499","1574799","0.0-6.0-3.70","2743260","co38962","norming","","","{""guess"":""telefoondraad""}","","../img/tt/111tt.jpg","",""
"null","../img/gs/111gs.jpg","null","reveal","image-keyboard-response","500","1576801","0.0-6.0-4.70","2743260","co38962","norming","","","","","","",""
"null","../img/tt/111tt.jpg","null","mooney2","image-keyboard-response","501","1578802","0.0-6.0-5.70","2743260","co38962","norming","","","","","","",""
"4454.970000000205","","","post_reveal_questions","survey-likert","502","1583259","0.0-6.0-6.70","2743260","co38962","norming","","","{""aha"":5}","[0]","../img/tt/111tt.jpg","",""
"null","<div style=""font-size:60px;""> </div>","null","fixation","html-keyboard-response","503","1583471","0.0-6.0-0.71","2743260","co38962","norming","","","","","","",""
"null","../img/tt/1024tt.jpg","null","mooney1","image-keyboard-response","504","1586474","0.0-6.0-1.71","2743260","co38962","norming","","","","","","",""
"4500.739999999991","","","post_mooney1_questions","survey-likert","505","1590977","0.0-6.0-2.71","2743260","co38962","norming","","","{""curiosity"":2,""confidence"":5}","[0,1]","../img/tt/1024tt.jpg","",""
"2780.155000000028","","","recognition","survey-text","506","1593766","0.0-6.0-3.71","2743260","co38962","norming","","","{""guess"":""terras""}","","../img/tt/1024tt.jpg","",""
"null","../img/gs/1024gs.jpg","null","reveal","image-keyboard-response","507","1595770","0.0-6.0-4.71","2743260","co38962","norming","","","","","","",""
"null","../img/tt/1024tt.jpg","null","mooney2","image-keyboard-response","508","1597772","0.0-6.0-5.71","2743260","co38962","norming","","","","","","",""
"4137.2949999999255","","","post_reveal_questions","survey-likert","509","1601911","0.0-6.0-6.71","2743260","co38962","norming","","","{""aha"":4}","[0]","../img/tt/1024tt.jpg","",""
"null","<div style=""font-size:60px;""> </div>","null","fixation","html-keyboard-response","510","1602123","0.0-6.0-0.72","2743260","co38962","norming","","","","","","",""
"null","../img/tt/1053tt.jpg","null","mooney1","image-keyboard-response","511","1605126","0.0-6.0-1.72","2743260","co38962","norming","","","","","","",""
"5467.625000000233","","","post_mooney1_questions","survey-likert","512","1610596","0.0-6.0-2.72","2743260","co38962","norming","","","{""curiosity"":4,""confidence"":2}","[0,1]","../img/tt/1053tt.jpg","",""
"2420.719999999972","","","recognition","survey-text","513","1613026","0.0-6.0-3.72","2743260","co38962","norming","","","{""guess"":""horses""}","","../img/tt/1053tt.jpg","",""
"null","../img/gs/1053gs.jpg","null","reveal","image-keyboard-response","514","1615031","0.0-6.0-4.72","2743260","co38962","norming","","","","","","",""
"null","../img/tt/1053tt.jpg","null","mooney2","image-keyboard-response","515","1617037","0.0-6.0-5.72","2743260","co38962","norming","","","","","","",""
"2163.964999999618","","","post_reveal_questions","survey-likert","516","1619202","0.0-6.0-6.72","2743260","co38962","norming","","","{""aha"":5}","[0]","../img/tt/1053tt.jpg","",""
"null","<div style=""font-size:60px;""> </div>","null","fixation","html-keyboard-response","517","1619414","0.0-6.0-0.73","2743260","co38962","norming","","","","","","",""
"null","../img/tt/306tt.jpg","null","mooney1","image-keyboard-response","518","1622418","0.0-6.0-1.73","2743260","co38962","norming","","","","","","",""
"4826.450000000186","","","post_mooney1_questions","survey-likert","519","1627246","0.0-6.0-2.73","2743260","co38962","norming","","","{""curiosity"":6,""confidence"":2}","[0,1]","../img/tt/306tt.jpg","",""
"3286.2899999998044","","","recognition","survey-text","520","1630542","0.0-6.0-3.73","2743260","co38962","norming","","","{""guess"":""runner""}","","../img/tt/306tt.jpg","",""
"null","../img/gs/306gs.jpg","null","reveal","image-keyboard-response","521","1632543","0.0-6.0-4.73","2743260","co38962","norming","","","","","","",""
"null","../img/tt/306tt.jpg","null","mooney2","image-keyboard-response","522","1634549","0.0-6.0-5.73","2743260","co38962","norming","","","","","","",""
"2595.5100000000093","","","post_reveal_questions","survey-likert","523","1637146","0.0-6.0-6.73","2743260","co38962","norming","","","{""aha"":4}","[0]","../img/tt/306tt.jpg","",""
"null","<div style=""font-size:60px;""> </div>","null","fixation","html-keyboard-response","524","1637354","0.0-6.0-0.74","2743260","co38962","norming","","","","","","",""
"null","../img/tt/1004tt.jpg","null","mooney1","image-keyboard-response","525","1640358","0.0-6.0-1.74","2743260","co38962","norming","","","","","","",""
"4098.680000000168","","","post_mooney1_questions","survey-likert","526","1644459","0.0-6.0-2.74","2743260","co38962","norming","","","{""curiosity"":5,""confidence"":2}","[0,1]","../img/tt/1004tt.jpg","",""
"5895.065000000177","","","recognition","survey-text","527","1650364","0.0-6.0-3.74","2743260","co38962","norming","","","{""guess"":""bos""}","","../img/tt/1004tt.jpg","",""
"null","../img/gs/1004gs.jpg","null","reveal","image-keyboard-response","528","1652367","0.0-6.0-4.74","2743260","co38962","norming","","","","","","",""
"null","../img/tt/1004tt.jpg","null","mooney2","image-keyboard-response","529","1654368","0.0-6.0-5.74","2743260","co38962","norming","","","","","","",""
"2362.1599999996834","","","post_reveal_questions","survey-likert","530","1656732","0.0-6.0-6.74","2743260","co38962","norming","","","{""aha"":5}","[0]","../img/tt/1004tt.jpg","",""
"null","<div style=""font-size:60px;""> </div>","null","fixation","html-keyboard-response","531","1656942","0.0-6.0-0.75","2743260","co38962","norming","","","","","","",""
"null","../img/tt/1048tt.jpg","null","mooney1","image-keyboard-response","532","1659944","0.0-6.0-1.75","2743260","co38962","norming","","","","","","",""
"4166.185000000056","","","post_mooney1_questions","survey-likert","533","1664113","0.0-6.0-2.75","2743260","co38962","norming","","","{""curiosity"":5,""confidence"":5}","[0,1]","../img/tt/1048tt.jpg","",""
"3488.464999999851","","","recognition","survey-text","534","1667611","0.0-6.0-3.75","2743260","co38962","norming","","","{""guess"":""palmboom""}","","../img/tt/1048tt.jpg","",""
"null","../img/gs/1048gs.jpg","null","reveal","image-keyboard-response","535","1669617","0.0-6.0-4.75","2743260","co38962","norming","","","","","","",""
"null","../img/tt/1048tt.jpg","null","mooney2","image-keyboard-response","536","1671621","0.0-6.0-5.75","2743260","co38962","norming","","","","","","",""
"2637.369999999879","","","post_reveal_questions","survey-likert","537","1674260","0.0-6.0-6.75","2743260","co38962","norming","","","{""aha"":5}","[0]","../img/tt/1048tt.jpg","",""
"null","<div style=""font-size:60px;""> </div>","null","fixation","html-keyboard-response","538","1674472","0.0-6.0-0.76","2743260","co38962","norming","","","","","","",""
"null","../img/tt/1116tt.jpg","null","mooney1","image-keyboard-response","539","1677478","0.0-6.0-1.76","2743260","co38962","norming","","","","","","",""
"4992.145000000019","","","post_mooney1_questions","survey-likert","540","1682473","0.0-6.0-2.76","2743260","co38962","norming","","","{""curiosity"":5,""confidence"":2}","[0,1]","../img/tt/1116tt.jpg","",""
"4996.385000000242","","","recognition","survey-text","541","1687478","0.0-6.0-3.76","2743260","co38962","norming","","","{""guess"":""dessert""}","","../img/tt/1116tt.jpg","",""
"null","../img/gs/1116gs.jpg","null","reveal","image-keyboard-response","542","1689485","0.0-6.0-4.76","2743260","co38962","norming","","","","","","",""
"null","../img/tt/1116tt.jpg","null","mooney2","image-keyboard-response","543","1691487","0.0-6.0-5.76","2743260","co38962","norming","","","","","","",""
"2660.904999999795","","","post_reveal_questions","survey-likert","544","1694149","0.0-6.0-6.76","2743260","co38962","norming","","","{""aha"":4}","[0]","../img/tt/1116tt.jpg","",""
"null","<div style=""font-size:60px;""> </div>","null","fixation","html-keyboard-response","545","1694356","0.0-6.0-0.77","2743260","co38962","norming","","","","","","",""
"null","../img/tt/013tt.jpg","null","mooney1","image-keyboard-response","546","1697363","0.0-6.0-1.77","2743260","co38962","norming","","","","","","",""
"4997.469999999739","","","post_mooney1_questions","survey-likert","547","1702363","0.0-6.0-2.77","2743260","co38962","norming","","","{""curiosity"":5,""confidence"":2}","[0,1]","../img/tt/013tt.jpg","",""
"1868.9000000003725","","","recognition","survey-text","548","1704241","0.0-6.0-3.77","2743260","co38962","norming","","","{""guess"":""face""}","","../img/tt/013tt.jpg","",""
"null","../img/gs/013gs.jpg","null","reveal","image-keyboard-response","549","1706246","0.0-6.0-4.77","2743260","co38962","norming","","","","","","",""
"null","../img/tt/013tt.jpg","null","mooney2","image-keyboard-response","550","1708252","0.0-6.0-5.77","2743260","co38962","norming","","","","","","",""
"2411.024999999907","","","post_reveal_questions","survey-likert","551","1710665","0.0-6.0-6.77","2743260","co38962","norming","","","{""aha"":1}","[0]","../img/tt/013tt.jpg","",""
