"rt","stimulus","key_press","test_part","trial_type","trial_index","time_elapsed","internal_node_id","totalTime","subject","experiment_name","button_pressed","success","responses","question_order","currentStim","old","correct"
"14077.504999993835","Welcome to the experiment. This is an online experiment so please don't close the tab/window until we say goodbye.  Press any key to begin.","13","instructions","html-keyboard-response","0","14125","0.0-0.0","2999330","co38278","norming","","","","","","",""
"53503.484999993816","<div style='word-wrap: break-word; width: 900px'><h3>Please consider this information carefully before deciding whether to participate in this research</h3><ul style='text-align: left; font-size: .8em;'><li><b>Purpose of the research</b>: To examine how people process images.</li><li><b>What you will do in this research</b>:  Stimuli (images) will be presented on the computer and you will be asked different questions about them.</li><li><b>Time required</b>: Participation will take between 45 and 60 minutes to complete.</li><li><b>Risks</b>:  There are no anticipated risks associated with participating in this study. The effects of participating should be comparable to those you would experience from viewing a computer monitor for 30 minutes and using a mouse or keyboard.</li><li><b>Benefits</b>:  This study provides no benefits to you individually except for the credit. The study provides important information about the nature of perception and learning.</li><li><b>Confidentiality</b>:  Your participation in this study will remain confidential. No personally identifiable information will be associated with your data. Your de-identified data may be shared with other researchers and used in future projects.</li><li><b>Participation and withdrawal</b>:  Your participation in this study is completely voluntary and you may refuse to participate or you may choose to withdraw at any time without penalty.</li><li><b>How to contact the researchers</b>: If you have questions or concerns about your participation or payment, or want to request a summary of research findings, please contact Sander Van de Cruys (KU Leuven), at sander.vandecruys@kuleuven.be.</li></ul><p>The nature and purpose of this research have been sufficiently explained and I agree to participate in this study.  I understand that I am free to withdraw at any time without incurring any penalty.</p><p>Please consent by clicking the button below to continue. Otherwise, please exit the study at this time.</p></div>","","instructions","html-button-response","1","67630","0.0-1.0","2999330","co38278","norming","0","","","","","",""
"","","","instructions","fullscreen","2","81605","0.0-2.0","2999330","co38278","norming","","true","","","","",""
"27485.310000003665","","","sona","survey-html-form","3","109094","0.0-3.0","2999330","co38278","norming","","","[{""name"":""sonaid"",""value"":""38278""},{""name"":""debrief"",""value"":""yes""},{""name"":""datajoin"",""value"":""yes""}]","","","",""
"84261.11999999557","<div style='word-wrap: break-word; width: 900px'><h3>Instructions</h3><p>This experiment will have 3 parts. In the first part you will see a series of distorted images like the one below on the left. As you can see in the righthand image, the distorted images are derived from actual photographs. In what follows, you will <strong>briefly</strong> be presented with <strong>only</strong> the distorted image.</p> <div style='float: left; margin-right: 20px;'><img src='../img/018tt.jpg' height='250' width='250'></img></div><div style='float: right; margin-left: 20px;'><img src='../img/018gs.jpg' height='250' width='250'></img></div><p>Subsequently you will be asked a few questions about the image: One question on how <strong>curious</strong> you are about the solution and one on how <strong>confident</strong> you are that you know the solution.</p>Next, we ask you to make a guess on what is in the image. Note that it is OK to name just the <strong>basic level category</strong>. For example when you see a parrot in the image, 'parrot' will obviously be a correct answer but also correct is 'bird'. However, 'animal' will <strong>not</strong> be counted as a correct response. For the example above, 'rose' would be correct or 'flower', but not 'plant'. When soccer players are depicted, 'soccer', 'football', 'soccer players' will be correct, but not 'humans', 'outdoors', or 'sports'. You do not need to describe the image in full, just name the main object in it <strong>in one or two words</strong>. All images depict objects from one of the following broad level categories: animals, inanimate objects, plants, sports, vehicles, and food. Recognizing means knowing <strong>more</strong> than these broad labels for a given image. But we always encourage you to <strong>make a guess</strong> if you can. Note that you are allowed to use <strong>Dutch and English</strong> in your answers, whatever comes easiest for you.</p><p>Press any key to continue.</p></div>","32","instructions","html-keyboard-response","4","193358","0.0-4.0","2999330","co38278","norming","","","","","","",""
"24398.50500000466","<div style='word-wrap: break-word; width: 900px'><h3>Instructions</h3> <p>Next, the solution image will be revealed to you and you'll be asked to indicate how strong your <strong>aha-experience</strong> was after seeing the solution. This describes the positive feeling of the 'click' you sometimes experience, when the pieces of the 'puzzle' fall together and you suddenly have 'insight' in the image.</p><img src='aha.jpg' height='188' width='250'></img><p>Note that there are no right or wrong answers. We are interested in what <strong>you</strong> see in the image and how <strong>you</strong> feel about it.</p><p>Press any key to start the experiment.</p></div>","32","instructions","html-keyboard-response","5","217759","0.0-5.0","2999330","co38278","norming","","","","","","",""
"null","<div style=""font-size:60px;""> </div>","null","fixation","html-keyboard-response","6","217961","0.0-6.0-0.0","2999330","co38278","norming","","","","","","",""
"null","../img/tt/1096tt.jpg","null","mooney1","image-keyboard-response","7","220966","0.0-6.0-1.0","2999330","co38278","norming","","","","","","",""
"8662.079999994603","","","post_mooney1_questions","survey-likert","8","229632","0.0-6.0-2.0","2999330","co38278","norming","","","{""curiosity"":5,""confidence"":0}","[0,1]","../img/tt/1096tt.jpg","",""
"3024.700000009034","","","recognition","survey-text","9","232661","0.0-6.0-3.0","2999330","co38278","norming","","","{""guess"":""""}","","../img/tt/1096tt.jpg","",""
"null","../img/gs/1096gs.jpg","null","reveal","image-keyboard-response","10","234662","0.0-6.0-4.0","2999330","co38278","norming","","","","","","",""
"null","../img/tt/1096tt.jpg","null","mooney2","image-keyboard-response","11","236664","0.0-6.0-5.0","2999330","co38278","norming","","","","","","",""
"5874.474999989616","","","post_reveal_questions","survey-likert","12","242541","0.0-6.0-6.0","2999330","co38278","norming","","","{""aha"":6}","[0]","../img/tt/1096tt.jpg","",""
"null","<div style=""font-size:60px;""> </div>","null","fixation","html-keyboard-response","13","242745","0.0-6.0-0.1","2999330","co38278","norming","","","","","","",""
"null","../img/tt/406tt.jpg","null","mooney1","image-keyboard-response","14","245747","0.0-6.0-1.1","2999330","co38278","norming","","","","","","",""
"5240.634999994654","","","post_mooney1_questions","survey-likert","15","250991","0.0-6.0-2.1","2999330","co38278","norming","","","{""curiosity"":5,""confidence"":0}","[0,1]","../img/tt/406tt.jpg","",""
"1014.4599999912316","","","recognition","survey-text","16","252008","0.0-6.0-3.1","2999330","co38278","norming","","","{""guess"":""""}","","../img/tt/406tt.jpg","",""
"null","../img/gs/406gs.jpg","null","reveal","image-keyboard-response","17","254010","0.0-6.0-4.1","2999330","co38278","norming","","","","","","",""
"null","../img/tt/406tt.jpg","null","mooney2","image-keyboard-response","18","256012","0.0-6.0-5.1","2999330","co38278","norming","","","","","","",""
"3774.1899999964517","","","post_reveal_questions","survey-likert","19","259789","0.0-6.0-6.1","2999330","co38278","norming","","","{""aha"":6}","[0]","../img/tt/406tt.jpg","",""
"null","<div style=""font-size:60px;""> </div>","null","fixation","html-keyboard-response","20","259991","0.0-6.0-0.2","2999330","co38278","norming","","","","","","",""
"null","../img/tt/567tt.jpg","null","mooney1","image-keyboard-response","21","262995","0.0-6.0-1.2","2999330","co38278","norming","","","","","","",""
"4904.810000007274","","","post_mooney1_questions","survey-likert","22","267903","0.0-6.0-2.2","2999330","co38278","norming","","","{""curiosity"":5,""confidence"":2}","[0,1]","../img/tt/567tt.jpg","",""
"5932.990000001155","","","recognition","survey-text","23","273838","0.0-6.0-3.2","2999330","co38278","norming","","","{""guess"":""autoraam""}","","../img/tt/567tt.jpg","",""
"null","../img/gs/567gs.jpg","null","reveal","image-keyboard-response","24","275841","0.0-6.0-4.2","2999330","co38278","norming","","","","","","",""
"null","../img/tt/567tt.jpg","null","mooney2","image-keyboard-response","25","277844","0.0-6.0-5.2","2999330","co38278","norming","","","","","","",""
"2094.2099999956554","","","post_reveal_questions","survey-likert","26","279940","0.0-6.0-6.2","2999330","co38278","norming","","","{""aha"":6}","[0]","../img/tt/567tt.jpg","",""
"null","<div style=""font-size:60px;""> </div>","null","fixation","html-keyboard-response","27","280143","0.0-6.0-0.3","2999330","co38278","norming","","","","","","",""
"null","../img/tt/1142tt.jpg","null","mooney1","image-keyboard-response","28","283145","0.0-6.0-1.3","2999330","co38278","norming","","","","","","",""
"4558.8149999966845","","","post_mooney1_questions","survey-likert","29","287707","0.0-6.0-2.3","2999330","co38278","norming","","","{""curiosity"":6,""confidence"":1}","[0,1]","../img/tt/1142tt.jpg","",""
"4155.724999989616","","","recognition","survey-text","30","291865","0.0-6.0-3.3","2999330","co38278","norming","","","{""guess"":""voetbalster""}","","../img/tt/1142tt.jpg","",""
"null","../img/gs/1142gs.jpg","null","reveal","image-keyboard-response","31","293867","0.0-6.0-4.3","2999330","co38278","norming","","","","","","",""
"null","../img/tt/1142tt.jpg","null","mooney2","image-keyboard-response","32","295870","0.0-6.0-5.3","2999330","co38278","norming","","","","","","",""
"3603.3800000004703","","","post_reveal_questions","survey-likert","33","299476","0.0-6.0-6.3","2999330","co38278","norming","","","{""aha"":4}","[0]","../img/tt/1142tt.jpg","",""
"null","<div style=""font-size:60px;""> </div>","null","fixation","html-keyboard-response","34","299679","0.0-6.0-0.4","2999330","co38278","norming","","","","","","",""
"null","../img/tt/1066tt.jpg","null","mooney1","image-keyboard-response","35","302682","0.0-6.0-1.4","2999330","co38278","norming","","","","","","",""
"4306.179999999586","","","post_mooney1_questions","survey-likert","36","306992","0.0-6.0-2.4","2999330","co38278","norming","","","{""curiosity"":5,""confidence"":1}","[0,1]","../img/tt/1066tt.jpg","",""
"6032.214999999269","","","recognition","survey-text","37","313026","0.0-6.0-3.4","2999330","co38278","norming","","","{""guess"":""auto""}","","../img/tt/1066tt.jpg","",""
"null","../img/gs/1066gs.jpg","null","reveal","image-keyboard-response","38","315028","0.0-6.0-4.4","2999330","co38278","norming","","","","","","",""
"null","../img/tt/1066tt.jpg","null","mooney2","image-keyboard-response","39","317033","0.0-6.0-5.4","2999330","co38278","norming","","","","","","",""
"6342.980000001262","","","post_reveal_questions","survey-likert","40","323379","0.0-6.0-6.4","2999330","co38278","norming","","","{""aha"":4}","[0]","../img/tt/1066tt.jpg","",""
"null","<div style=""font-size:60px;""> </div>","null","fixation","html-keyboard-response","41","323580","0.0-6.0-0.5","2999330","co38278","norming","","","","","","",""
"null","../img/tt/1063tt.jpg","null","mooney1","image-keyboard-response","42","326584","0.0-6.0-1.5","2999330","co38278","norming","","","","","","",""
"7576.789999991888","","","post_mooney1_questions","survey-likert","43","334163","0.0-6.0-2.5","2999330","co38278","norming","","","{""curiosity"":4,""confidence"":2}","[0,1]","../img/tt/1063tt.jpg","",""
"2272.014999995008","","","recognition","survey-text","44","336438","0.0-6.0-3.5","2999330","co38278","norming","","","{""guess"":""koe""}","","../img/tt/1063tt.jpg","",""
"null","../img/gs/1063gs.jpg","null","reveal","image-keyboard-response","45","338440","0.0-6.0-4.5","2999330","co38278","norming","","","","","","",""
"null","../img/tt/1063tt.jpg","null","mooney2","image-keyboard-response","46","340442","0.0-6.0-5.5","2999330","co38278","norming","","","","","","",""
"2135.985000000801","","","post_reveal_questions","survey-likert","47","342580","0.0-6.0-6.5","2999330","co38278","norming","","","{""aha"":2}","[0]","../img/tt/1063tt.jpg","",""
"null","<div style=""font-size:60px;""> </div>","null","fixation","html-keyboard-response","48","342782","0.0-6.0-0.6","2999330","co38278","norming","","","","","","",""
"null","../img/tt/590tt.jpg","null","mooney1","image-keyboard-response","49","345786","0.0-6.0-1.6","2999330","co38278","norming","","","","","","",""
"5172.279999998864","","","post_mooney1_questions","survey-likert","50","350961","0.0-6.0-2.6","2999330","co38278","norming","","","{""curiosity"":5,""confidence"":2}","[0,1]","../img/tt/590tt.jpg","",""
"4828.240000002552","","","recognition","survey-text","51","355792","0.0-6.0-3.6","2999330","co38278","norming","","","{""guess"":""watermolen""}","","../img/tt/590tt.jpg","",""
"null","../img/gs/590gs.jpg","null","reveal","image-keyboard-response","52","357794","0.0-6.0-4.6","2999330","co38278","norming","","","","","","",""
"null","../img/tt/590tt.jpg","null","mooney2","image-keyboard-response","53","359796","0.0-6.0-5.6","2999330","co38278","norming","","","","","","",""
"2700.765000001411","","","post_reveal_questions","survey-likert","54","362499","0.0-6.0-6.6","2999330","co38278","norming","","","{""aha"":5}","[0]","../img/tt/590tt.jpg","",""
"null","<div style=""font-size:60px;""> </div>","null","fixation","html-keyboard-response","55","362702","0.0-6.0-0.7","2999330","co38278","norming","","","","","","",""
"null","../img/tt/1279tt.jpg","null","mooney1","image-keyboard-response","56","365706","0.0-6.0-1.7","2999330","co38278","norming","","","","","","",""
"5095.860000001267","","","post_mooney1_questions","survey-likert","57","370805","0.0-6.0-2.7","2999330","co38278","norming","","","{""curiosity"":4,""confidence"":1}","[0,1]","../img/tt/1279tt.jpg","",""
"2505.8550000103423","","","recognition","survey-text","58","373313","0.0-6.0-3.7","2999330","co38278","norming","","","{""guess"":""wei""}","","../img/tt/1279tt.jpg","",""
"null","../img/gs/1279gs.jpg","null","reveal","image-keyboard-response","59","375315","0.0-6.0-4.7","2999330","co38278","norming","","","","","","",""
"null","../img/tt/1279tt.jpg","null","mooney2","image-keyboard-response","60","377319","0.0-6.0-5.7","2999330","co38278","norming","","","","","","",""
"3627.3999999975786","","","post_reveal_questions","survey-likert","61","380949","0.0-6.0-6.7","2999330","co38278","norming","","","{""aha"":4}","[0]","../img/tt/1279tt.jpg","",""
"null","<div style=""font-size:60px;""> </div>","null","fixation","html-keyboard-response","62","381151","0.0-6.0-0.8","2999330","co38278","norming","","","","","","",""
"null","../img/tt/1228tt.jpg","null","mooney1","image-keyboard-response","63","384155","0.0-6.0-1.8","2999330","co38278","norming","","","","","","",""
"6020.590000000084","","","post_mooney1_questions","survey-likert","64","390179","0.0-6.0-2.8","2999330","co38278","norming","","","{""curiosity"":4,""confidence"":2}","[0,1]","../img/tt/1228tt.jpg","",""
"2843.9199999993434","","","recognition","survey-text","65","393026","0.0-6.0-3.8","2999330","co38278","norming","","","{""guess"":""vogel""}","","../img/tt/1228tt.jpg","",""
"null","../img/gs/1228gs.jpg","null","reveal","image-keyboard-response","66","395028","0.0-6.0-4.8","2999330","co38278","norming","","","","","","",""
"null","../img/tt/1228tt.jpg","null","mooney2","image-keyboard-response","67","397030","0.0-6.0-5.8","2999330","co38278","norming","","","","","","",""
"2195.3599999978906","","","post_reveal_questions","survey-likert","68","399228","0.0-6.0-6.8","2999330","co38278","norming","","","{""aha"":4}","[0]","../img/tt/1228tt.jpg","",""
"null","<div style=""font-size:60px;""> </div>","null","fixation","html-keyboard-response","69","399429","0.0-6.0-0.9","2999330","co38278","norming","","","","","","",""
"null","../img/tt/1078tt.jpg","null","mooney1","image-keyboard-response","70","402433","0.0-6.0-1.9","2999330","co38278","norming","","","","","","",""
"5468.820000009146","","","post_mooney1_questions","survey-likert","71","407905","0.0-6.0-2.9","2999330","co38278","norming","","","{""curiosity"":4,""confidence"":2}","[0,1]","../img/tt/1078tt.jpg","",""
"3269.459999995888","","","recognition","survey-text","72","411177","0.0-6.0-3.9","2999330","co38278","norming","","","{""guess"":""café""}","","../img/tt/1078tt.jpg","",""
"null","../img/gs/1078gs.jpg","null","reveal","image-keyboard-response","73","413178","0.0-6.0-4.9","2999330","co38278","norming","","","","","","",""
"null","../img/tt/1078tt.jpg","null","mooney2","image-keyboard-response","74","415181","0.0-6.0-5.9","2999330","co38278","norming","","","","","","",""
"1819.324999989476","","","post_reveal_questions","survey-likert","75","417003","0.0-6.0-6.9","2999330","co38278","norming","","","{""aha"":3}","[0]","../img/tt/1078tt.jpg","",""
"null","<div style=""font-size:60px;""> </div>","null","fixation","html-keyboard-response","76","417204","0.0-6.0-0.10","2999330","co38278","norming","","","","","","",""
"null","../img/tt/1033tt.jpg","null","mooney1","image-keyboard-response","77","420208","0.0-6.0-1.10","2999330","co38278","norming","","","","","","",""
"6678.309999988414","","","post_mooney1_questions","survey-likert","78","426890","0.0-6.0-2.10","2999330","co38278","norming","","","{""curiosity"":6,""confidence"":1}","[0,1]","../img/tt/1033tt.jpg","",""
"6034.225000010338","","","recognition","survey-text","79","432927","0.0-6.0-3.10","2999330","co38278","norming","","","{""guess"":""muzikant""}","","../img/tt/1033tt.jpg","",""
"null","../img/gs/1033gs.jpg","null","reveal","image-keyboard-response","80","434928","0.0-6.0-4.10","2999330","co38278","norming","","","","","","",""
"null","../img/tt/1033tt.jpg","null","mooney2","image-keyboard-response","81","436931","0.0-6.0-5.10","2999330","co38278","norming","","","","","","",""
"2841.03499999037","","","post_reveal_questions","survey-likert","82","439775","0.0-6.0-6.10","2999330","co38278","norming","","","{""aha"":3}","[0]","../img/tt/1033tt.jpg","",""
"null","<div style=""font-size:60px;""> </div>","null","fixation","html-keyboard-response","83","439976","0.0-6.0-0.11","2999330","co38278","norming","","","","","","",""
"null","../img/tt/1181tt.jpg","null","mooney1","image-keyboard-response","84","442979","0.0-6.0-1.11","2999330","co38278","norming","","","","","","",""
"5692.589999991469","","","post_mooney1_questions","survey-likert","85","448675","0.0-6.0-2.11","2999330","co38278","norming","","","{""curiosity"":4,""confidence"":2}","[0,1]","../img/tt/1181tt.jpg","",""
"3075.9949999919627","","","recognition","survey-text","86","451754","0.0-6.0-3.11","2999330","co38278","norming","","","{""guess"":""rodeo""}","","../img/tt/1181tt.jpg","",""
"null","../img/gs/1181gs.jpg","null","reveal","image-keyboard-response","87","453756","0.0-6.0-4.11","2999330","co38278","norming","","","","","","",""
"null","../img/tt/1181tt.jpg","null","mooney2","image-keyboard-response","88","455763","0.0-6.0-5.11","2999330","co38278","norming","","","","","","",""
"2653.42000000237","","","post_reveal_questions","survey-likert","89","458419","0.0-6.0-6.11","2999330","co38278","norming","","","{""aha"":3}","[0]","../img/tt/1181tt.jpg","",""
"null","<div style=""font-size:60px;""> </div>","null","fixation","html-keyboard-response","90","458621","0.0-6.0-0.12","2999330","co38278","norming","","","","","","",""
"null","../img/tt/496tt.jpg","null","mooney1","image-keyboard-response","91","461626","0.0-6.0-1.12","2999330","co38278","norming","","","","","","",""
"5322.88000000699","","","post_mooney1_questions","survey-likert","92","466952","0.0-6.0-2.12","2999330","co38278","norming","","","{""curiosity"":4,""confidence"":1}","[0,1]","../img/tt/496tt.jpg","",""
"3736.465000009048","","","recognition","survey-text","93","470691","0.0-6.0-3.12","2999330","co38278","norming","","","{""guess"":""hondenkop""}","","../img/tt/496tt.jpg","",""
"null","../img/gs/496gs.jpg","null","reveal","image-keyboard-response","94","472692","0.0-6.0-4.12","2999330","co38278","norming","","","","","","",""
"null","../img/tt/496tt.jpg","null","mooney2","image-keyboard-response","95","474695","0.0-6.0-5.12","2999330","co38278","norming","","","","","","",""
"7524.410000012722","","","post_reveal_questions","survey-likert","96","482222","0.0-6.0-6.12","2999330","co38278","norming","","","{""aha"":3}","[0]","../img/tt/496tt.jpg","",""
"null","<div style=""font-size:60px;""> </div>","null","fixation","html-keyboard-response","97","482424","0.0-6.0-0.13","2999330","co38278","norming","","","","","","",""
"null","../img/tt/1006tt.jpg","null","mooney1","image-keyboard-response","98","485428","0.0-6.0-1.13","2999330","co38278","norming","","","","","","",""
"5307.685000007041","","","post_mooney1_questions","survey-likert","99","490739","0.0-6.0-2.13","2999330","co38278","norming","","","{""curiosity"":4,""confidence"":2}","[0,1]","../img/tt/1006tt.jpg","",""
"17515.57000000321","","","recognition","survey-text","100","508257","0.0-6.0-3.13","2999330","co38278","norming","","","{""guess"":""schapen met hoorns""}","","../img/tt/1006tt.jpg","",""
"null","../img/gs/1006gs.jpg","null","reveal","image-keyboard-response","101","510259","0.0-6.0-4.13","2999330","co38278","norming","","","","","","",""
"null","../img/tt/1006tt.jpg","null","mooney2","image-keyboard-response","102","512261","0.0-6.0-5.13","2999330","co38278","norming","","","","","","",""
"5912.635000000591","","","post_reveal_questions","survey-likert","103","518177","0.0-6.0-6.13","2999330","co38278","norming","","","{""aha"":0}","[0]","../img/tt/1006tt.jpg","",""
"null","<div style=""font-size:60px;""> </div>","null","fixation","html-keyboard-response","104","518379","0.0-6.0-0.14","2999330","co38278","norming","","","","","","",""
"null","../img/tt/598tt.jpg","null","mooney1","image-keyboard-response","105","521382","0.0-6.0-1.14","2999330","co38278","norming","","","","","","",""
"6671.294999992824","","","post_mooney1_questions","survey-likert","106","528057","0.0-6.0-2.14","2999330","co38278","norming","","","{""curiosity"":4,""confidence"":3}","[0,1]","../img/tt/598tt.jpg","",""
"3155.8099999965634","","","recognition","survey-text","107","531215","0.0-6.0-3.14","2999330","co38278","norming","","","{""guess"":""paard""}","","../img/tt/598tt.jpg","",""
"null","../img/gs/598gs.jpg","null","reveal","image-keyboard-response","108","533217","0.0-6.0-4.14","2999330","co38278","norming","","","","","","",""
"null","../img/tt/598tt.jpg","null","mooney2","image-keyboard-response","109","535220","0.0-6.0-5.14","2999330","co38278","norming","","","","","","",""
"4266.140000006999","","","post_reveal_questions","survey-likert","110","539489","0.0-6.0-6.14","2999330","co38278","norming","","","{""aha"":5}","[0]","../img/tt/598tt.jpg","",""
"null","<div style=""font-size:60px;""> </div>","null","fixation","html-keyboard-response","111","539691","0.0-6.0-0.15","2999330","co38278","norming","","","","","","",""
"null","../img/tt/1154tt.jpg","null","mooney1","image-keyboard-response","112","542694","0.0-6.0-1.15","2999330","co38278","norming","","","","","","",""
"4265.3600000048755","","","post_mooney1_questions","survey-likert","113","546963","0.0-6.0-2.15","2999330","co38278","norming","","","{""curiosity"":4,""confidence"":2}","[0,1]","../img/tt/1154tt.jpg","",""
"7179.275000002235","","","recognition","survey-text","114","554145","0.0-6.0-3.15","2999330","co38278","norming","","","{""guess"":""iemand die aan het lezen is""}","","../img/tt/1154tt.jpg","",""
"null","../img/gs/1154gs.jpg","null","reveal","image-keyboard-response","115","556147","0.0-6.0-4.15","2999330","co38278","norming","","","","","","",""
"null","../img/tt/1154tt.jpg","null","mooney2","image-keyboard-response","116","558150","0.0-6.0-5.15","2999330","co38278","norming","","","","","","",""
"2800.0800000008894","","","post_reveal_questions","survey-likert","117","560952","0.0-6.0-6.15","2999330","co38278","norming","","","{""aha"":6}","[0]","../img/tt/1154tt.jpg","",""
"null","<div style=""font-size:60px;""> </div>","null","fixation","html-keyboard-response","118","561155","0.0-6.0-0.16","2999330","co38278","norming","","","","","","",""
"null","../img/tt/1004tt.jpg","null","mooney1","image-keyboard-response","119","564158","0.0-6.0-1.16","2999330","co38278","norming","","","","","","",""
"3627.235000007204","","","post_mooney1_questions","survey-likert","120","567789","0.0-6.0-2.16","2999330","co38278","norming","","","{""curiosity"":6,""confidence"":0}","[0,1]","../img/tt/1004tt.jpg","",""
"1014.8849999968661","","","recognition","survey-text","121","568806","0.0-6.0-3.16","2999330","co38278","norming","","","{""guess"":""""}","","../img/tt/1004tt.jpg","",""
"null","../img/gs/1004gs.jpg","null","reveal","image-keyboard-response","122","570808","0.0-6.0-4.16","2999330","co38278","norming","","","","","","",""
"null","../img/tt/1004tt.jpg","null","mooney2","image-keyboard-response","123","572810","0.0-6.0-5.16","2999330","co38278","norming","","","","","","",""
"4058.5699999937788","","","post_reveal_questions","survey-likert","124","576871","0.0-6.0-6.16","2999330","co38278","norming","","","{""aha"":6}","[0]","../img/tt/1004tt.jpg","",""
"null","<div style=""font-size:60px;""> </div>","null","fixation","html-keyboard-response","125","577073","0.0-6.0-0.17","2999330","co38278","norming","","","","","","",""
"null","../img/tt/1241tt.jpg","null","mooney1","image-keyboard-response","126","580077","0.0-6.0-1.17","2999330","co38278","norming","","","","","","",""
"3259.9300000001676","","","post_mooney1_questions","survey-likert","127","583340","0.0-6.0-2.17","2999330","co38278","norming","","","{""curiosity"":4,""confidence"":1}","[0,1]","../img/tt/1241tt.jpg","",""
"4059.414999996079","","","recognition","survey-text","128","587402","0.0-6.0-3.17","2999330","co38278","norming","","","{""guess"":""biggetje""}","","../img/tt/1241tt.jpg","",""
"null","../img/gs/1241gs.jpg","null","reveal","image-keyboard-response","129","589404","0.0-6.0-4.17","2999330","co38278","norming","","","","","","",""
"null","../img/tt/1241tt.jpg","null","mooney2","image-keyboard-response","130","591406","0.0-6.0-5.17","2999330","co38278","norming","","","","","","",""
"3429.694999998901","","","post_reveal_questions","survey-likert","131","594839","0.0-6.0-6.17","2999330","co38278","norming","","","{""aha"":4}","[0]","../img/tt/1241tt.jpg","",""
"null","<div style=""font-size:60px;""> </div>","null","fixation","html-keyboard-response","132","595041","0.0-6.0-0.18","2999330","co38278","norming","","","","","","",""
"null","../img/tt/1130tt.jpg","null","mooney1","image-keyboard-response","133","598044","0.0-6.0-1.18","2999330","co38278","norming","","","","","","",""
"4939.934999987599","","","post_mooney1_questions","survey-likert","134","602988","0.0-6.0-2.18","2999330","co38278","norming","","","{""curiosity"":5,""confidence"":3}","[0,1]","../img/tt/1130tt.jpg","",""
"4088.270000007469","","","recognition","survey-text","135","607078","0.0-6.0-3.18","2999330","co38278","norming","","","{""guess"":""wielrenner""}","","../img/tt/1130tt.jpg","",""
"null","../img/gs/1130gs.jpg","null","reveal","image-keyboard-response","136","609080","0.0-6.0-4.18","2999330","co38278","norming","","","","","","",""
"null","../img/tt/1130tt.jpg","null","mooney2","image-keyboard-response","137","611083","0.0-6.0-5.18","2999330","co38278","norming","","","","","","",""
"3335.0749999954132","","","post_reveal_questions","survey-likert","138","614421","0.0-6.0-6.18","2999330","co38278","norming","","","{""aha"":0}","[0]","../img/tt/1130tt.jpg","",""
"null","<div style=""font-size:60px;""> </div>","null","fixation","html-keyboard-response","139","614623","0.0-6.0-0.19","2999330","co38278","norming","","","","","","",""
"null","../img/tt/301tt.jpg","null","mooney1","image-keyboard-response","140","617626","0.0-6.0-1.19","2999330","co38278","norming","","","","","","",""
"4219.899999996414","","","post_mooney1_questions","survey-likert","141","621849","0.0-6.0-2.19","2999330","co38278","norming","","","{""curiosity"":4,""confidence"":1}","[0,1]","../img/tt/301tt.jpg","",""
"3322.7099999930942","","","recognition","survey-text","142","625175","0.0-6.0-3.19","2999330","co38278","norming","","","{""guess"":""messen""}","","../img/tt/301tt.jpg","",""
"null","../img/gs/301gs.jpg","null","reveal","image-keyboard-response","143","627176","0.0-6.0-4.19","2999330","co38278","norming","","","","","","",""
"null","../img/tt/301tt.jpg","null","mooney2","image-keyboard-response","144","629179","0.0-6.0-5.19","2999330","co38278","norming","","","","","","",""
"5110.3949999960605","","","post_reveal_questions","survey-likert","145","634292","0.0-6.0-6.19","2999330","co38278","norming","","","{""aha"":5}","[0]","../img/tt/301tt.jpg","",""
"null","<div style=""font-size:60px;""> </div>","null","fixation","html-keyboard-response","146","634494","0.0-6.0-0.20","2999330","co38278","norming","","","","","","",""
"null","../img/tt/124tt.jpg","null","mooney1","image-keyboard-response","147","637497","0.0-6.0-1.20","2999330","co38278","norming","","","","","","",""
"5386.6500000003725","","","post_mooney1_questions","survey-likert","148","642886","0.0-6.0-2.20","2999330","co38278","norming","","","{""curiosity"":4,""confidence"":1}","[0,1]","../img/tt/124tt.jpg","",""
"5665.404999992461","","","recognition","survey-text","149","648554","0.0-6.0-3.20","2999330","co38278","norming","","","{""guess"":""betogende mensen""}","","../img/tt/124tt.jpg","",""
"null","../img/gs/124gs.jpg","null","reveal","image-keyboard-response","150","650556","0.0-6.0-4.20","2999330","co38278","norming","","","","","","",""
"null","../img/tt/124tt.jpg","null","mooney2","image-keyboard-response","151","652558","0.0-6.0-5.20","2999330","co38278","norming","","","","","","",""
"2024.3250000057742","","","post_reveal_questions","survey-likert","152","654585","0.0-6.0-6.20","2999330","co38278","norming","","","{""aha"":6}","[0]","../img/tt/124tt.jpg","",""
"null","<div style=""font-size:60px;""> </div>","null","fixation","html-keyboard-response","153","654788","0.0-6.0-0.21","2999330","co38278","norming","","","","","","",""
"null","../img/tt/1053tt.jpg","null","mooney1","image-keyboard-response","154","657791","0.0-6.0-1.21","2999330","co38278","norming","","","","","","",""
"4271.150000000489","","","post_mooney1_questions","survey-likert","155","662066","0.0-6.0-2.21","2999330","co38278","norming","","","{""curiosity"":5,""confidence"":1}","[0,1]","../img/tt/1053tt.jpg","",""
"2042.5299999915296","","","recognition","survey-text","156","664111","0.0-6.0-3.21","2999330","co38278","norming","","","{""guess"":""koe""}","","../img/tt/1053tt.jpg","",""
"null","../img/gs/1053gs.jpg","null","reveal","image-keyboard-response","157","666113","0.0-6.0-4.21","2999330","co38278","norming","","","","","","",""
"null","../img/tt/1053tt.jpg","null","mooney2","image-keyboard-response","158","668115","0.0-6.0-5.21","2999330","co38278","norming","","","","","","",""
"4479.440000010072","","","post_reveal_questions","survey-likert","159","672598","0.0-6.0-6.21","2999330","co38278","norming","","","{""aha"":0}","[0]","../img/tt/1053tt.jpg","",""
"null","<div style=""font-size:60px;""> </div>","null","fixation","html-keyboard-response","160","672800","0.0-6.0-0.22","2999330","co38278","norming","","","","","","",""
"null","../img/tt/1226tt.jpg","null","mooney1","image-keyboard-response","161","675803","0.0-6.0-1.22","2999330","co38278","norming","","","","","","",""
"7944.324999989476","","","post_mooney1_questions","survey-likert","162","683751","0.0-6.0-2.22","2999330","co38278","norming","","","{""curiosity"":2,""confidence"":4}","[0,1]","../img/tt/1226tt.jpg","",""
"3524.505000008503","","","recognition","survey-text","163","687278","0.0-6.0-3.22","2999330","co38278","norming","","","{""guess"":""zwanen""}","","../img/tt/1226tt.jpg","",""
"null","../img/gs/1226gs.jpg","null","reveal","image-keyboard-response","164","689280","0.0-6.0-4.22","2999330","co38278","norming","","","","","","",""
"null","../img/tt/1226tt.jpg","null","mooney2","image-keyboard-response","165","691283","0.0-6.0-5.22","2999330","co38278","norming","","","","","","",""
"2610.5200000019977","","","post_reveal_questions","survey-likert","166","693896","0.0-6.0-6.22","2999330","co38278","norming","","","{""aha"":5}","[0]","../img/tt/1226tt.jpg","",""
"null","<div style=""font-size:60px;""> </div>","null","fixation","html-keyboard-response","167","694098","0.0-6.0-0.23","2999330","co38278","norming","","","","","","",""
"null","../img/tt/357tt.jpg","null","mooney1","image-keyboard-response","168","697102","0.0-6.0-1.23","2999330","co38278","norming","","","","","","",""
"4339.399999997113","","","post_mooney1_questions","survey-likert","169","701445","0.0-6.0-2.23","2999330","co38278","norming","","","{""curiosity"":5,""confidence"":1}","[0,1]","../img/tt/357tt.jpg","",""
"2574.4200000044657","","","recognition","survey-text","170","704021","0.0-6.0-3.23","2999330","co38278","norming","","","{""guess"":""egel""}","","../img/tt/357tt.jpg","",""
"null","../img/gs/357gs.jpg","null","reveal","image-keyboard-response","171","706024","0.0-6.0-4.23","2999330","co38278","norming","","","","","","",""
"null","../img/tt/357tt.jpg","null","mooney2","image-keyboard-response","172","708026","0.0-6.0-5.23","2999330","co38278","norming","","","","","","",""
"3554.8150000104215","","","post_reveal_questions","survey-likert","173","711583","0.0-6.0-6.23","2999330","co38278","norming","","","{""aha"":1}","[0]","../img/tt/357tt.jpg","",""
"null","<div style=""font-size:60px;""> </div>","null","fixation","html-keyboard-response","174","711785","0.0-6.0-0.24","2999330","co38278","norming","","","","","","",""
"null","../img/tt/091tt.jpg","null","mooney1","image-keyboard-response","175","714789","0.0-6.0-1.24","2999330","co38278","norming","","","","","","",""
"5054.009999992559","","","post_mooney1_questions","survey-likert","176","719846","0.0-6.0-2.24","2999330","co38278","norming","","","{""curiosity"":6,""confidence"":0}","[0,1]","../img/tt/091tt.jpg","",""
"2068.8950000039767","","","recognition","survey-text","177","721917","0.0-6.0-3.24","2999330","co38278","norming","","","{""guess"":"" ""}","","../img/tt/091tt.jpg","",""
"null","../img/gs/091gs.jpg","null","reveal","image-keyboard-response","178","723919","0.0-6.0-4.24","2999330","co38278","norming","","","","","","",""
"null","../img/tt/091tt.jpg","null","mooney2","image-keyboard-response","179","725922","0.0-6.0-5.24","2999330","co38278","norming","","","","","","",""
"3231.0549999965588","","","post_reveal_questions","survey-likert","180","729156","0.0-6.0-6.24","2999330","co38278","norming","","","{""aha"":6}","[0]","../img/tt/091tt.jpg","",""
"null","<div style=""font-size:60px;""> </div>","null","fixation","html-keyboard-response","181","729358","0.0-6.0-0.25","2999330","co38278","norming","","","","","","",""
"null","../img/tt/036tt.jpg","null","mooney1","image-keyboard-response","182","732361","0.0-6.0-1.25","2999330","co38278","norming","","","","","","",""
"5215.360000001965","","","post_mooney1_questions","survey-likert","183","737579","0.0-6.0-2.25","2999330","co38278","norming","","","{""curiosity"":4,""confidence"":0}","[0,1]","../img/tt/036tt.jpg","",""
"1618.2949999929406","","","recognition","survey-text","184","739200","0.0-6.0-3.25","2999330","co38278","norming","","","{""guess"":""""}","","../img/tt/036tt.jpg","",""
"null","../img/gs/036gs.jpg","null","reveal","image-keyboard-response","185","741202","0.0-6.0-4.25","2999330","co38278","norming","","","","","","",""
"null","../img/tt/036tt.jpg","null","mooney2","image-keyboard-response","186","743205","0.0-6.0-5.25","2999330","co38278","norming","","","","","","",""
"3248.1599999882746","","","post_reveal_questions","survey-likert","187","746456","0.0-6.0-6.25","2999330","co38278","norming","","","{""aha"":3}","[0]","../img/tt/036tt.jpg","",""
"null","<div style=""font-size:60px;""> </div>","null","fixation","html-keyboard-response","188","746658","0.0-6.0-0.26","2999330","co38278","norming","","","","","","",""
"null","../img/tt/358tt.jpg","null","mooney1","image-keyboard-response","189","749661","0.0-6.0-1.26","2999330","co38278","norming","","","","","","",""
"4675.44999999518","","","post_mooney1_questions","survey-likert","190","754340","0.0-6.0-2.26","2999330","co38278","norming","","","{""curiosity"":5,""confidence"":1}","[0,1]","../img/tt/358tt.jpg","",""
"2550.554999994347","","","recognition","survey-text","191","756893","0.0-6.0-3.26","2999330","co38278","norming","","","{""guess"":""aap""}","","../img/tt/358tt.jpg","",""
"null","../img/gs/358gs.jpg","null","reveal","image-keyboard-response","192","758895","0.0-6.0-4.26","2999330","co38278","norming","","","","","","",""
"null","../img/tt/358tt.jpg","null","mooney2","image-keyboard-response","193","760897","0.0-6.0-5.26","2999330","co38278","norming","","","","","","",""
"10327.230000009877","","","post_reveal_questions","survey-likert","194","771227","0.0-6.0-6.26","2999330","co38278","norming","","","{""aha"":6}","[0]","../img/tt/358tt.jpg","",""
"null","<div style=""font-size:60px;""> </div>","null","fixation","html-keyboard-response","195","771429","0.0-6.0-0.27","2999330","co38278","norming","","","","","","",""
"null","../img/tt/534tt.jpg","null","mooney1","image-keyboard-response","196","774434","0.0-6.0-1.27","2999330","co38278","norming","","","","","","",""
"7657.8000000008615","","","post_mooney1_questions","survey-likert","197","782095","0.0-6.0-2.27","2999330","co38278","norming","","","{""curiosity"":5,""confidence"":1}","[0,1]","../img/tt/534tt.jpg","",""
"2417.1250000072177","","","recognition","survey-text","198","784514","0.0-6.0-3.27","2999330","co38278","norming","","","{""guess"":""aap""}","","../img/tt/534tt.jpg","",""
"null","../img/gs/534gs.jpg","null","reveal","image-keyboard-response","199","786517","0.0-6.0-4.27","2999330","co38278","norming","","","","","","",""
"null","../img/tt/534tt.jpg","null","mooney2","image-keyboard-response","200","788519","0.0-6.0-5.27","2999330","co38278","norming","","","","","","",""
"21888.984999997774","","","post_reveal_questions","survey-likert","201","810411","0.0-6.0-6.27","2999330","co38278","norming","","","{""aha"":5}","[0]","../img/tt/534tt.jpg","",""
"null","<div style=""font-size:60px;""> </div>","null","fixation","html-keyboard-response","202","810613","0.0-6.0-0.28","2999330","co38278","norming","","","","","","",""
"null","../img/tt/094tt.jpg","null","mooney1","image-keyboard-response","203","813616","0.0-6.0-1.28","2999330","co38278","norming","","","","","","",""
"6112.1450000064215","","","post_mooney1_questions","survey-likert","204","819731","0.0-6.0-2.28","2999330","co38278","norming","","","{""curiosity"":5,""confidence"":1}","[0,1]","../img/tt/094tt.jpg","",""
"2387.025000003632","","","recognition","survey-text","205","822121","0.0-6.0-3.28","2999330","co38278","norming","","","{""guess"":""koe""}","","../img/tt/094tt.jpg","",""
"null","../img/gs/094gs.jpg","null","reveal","image-keyboard-response","206","824123","0.0-6.0-4.28","2999330","co38278","norming","","","","","","",""
"null","../img/tt/094tt.jpg","null","mooney2","image-keyboard-response","207","826126","0.0-6.0-5.28","2999330","co38278","norming","","","","","","",""
"2959.9449999950593","","","post_reveal_questions","survey-likert","208","829088","0.0-6.0-6.28","2999330","co38278","norming","","","{""aha"":6}","[0]","../img/tt/094tt.jpg","",""
"null","<div style=""font-size:60px;""> </div>","null","fixation","html-keyboard-response","209","829291","0.0-6.0-0.29","2999330","co38278","norming","","","","","","",""
"null","../img/tt/1126tt.jpg","null","mooney1","image-keyboard-response","210","832295","0.0-6.0-1.29","2999330","co38278","norming","","","","","","",""
"10954.975000000559","","","post_mooney1_questions","survey-likert","211","843254","0.0-6.0-2.29","2999330","co38278","norming","","","{""curiosity"":6,""confidence"":0}","[0,1]","../img/tt/1126tt.jpg","",""
"3057.925000000978","","","recognition","survey-text","212","846314","0.0-6.0-3.29","2999330","co38278","norming","","","{""guess"":""""}","","../img/tt/1126tt.jpg","",""
"null","../img/gs/1126gs.jpg","null","reveal","image-keyboard-response","213","848316","0.0-6.0-4.29","2999330","co38278","norming","","","","","","",""
"null","../img/tt/1126tt.jpg","null","mooney2","image-keyboard-response","214","850319","0.0-6.0-5.29","2999330","co38278","norming","","","","","","",""
"5992.389999999432","","","post_reveal_questions","survey-likert","215","856314","0.0-6.0-6.29","2999330","co38278","norming","","","{""aha"":5}","[0]","../img/tt/1126tt.jpg","",""
"null","<div style=""font-size:60px;""> </div>","null","fixation","html-keyboard-response","216","856516","0.0-6.0-0.30","2999330","co38278","norming","","","","","","",""
"null","../img/tt/1002tt.jpg","null","mooney1","image-keyboard-response","217","859521","0.0-6.0-1.30","2999330","co38278","norming","","","","","","",""
"5725.2299999963725","","","post_mooney1_questions","survey-likert","218","865250","0.0-6.0-2.30","2999330","co38278","norming","","","{""curiosity"":6,""confidence"":0}","[0,1]","../img/tt/1002tt.jpg","",""
"747.5300000078278","","","recognition","survey-text","219","866000","0.0-6.0-3.30","2999330","co38278","norming","","","{""guess"":""""}","","../img/tt/1002tt.jpg","",""
"null","../img/gs/1002gs.jpg","null","reveal","image-keyboard-response","220","868002","0.0-6.0-4.30","2999330","co38278","norming","","","","","","",""
"null","../img/tt/1002tt.jpg","null","mooney2","image-keyboard-response","221","870004","0.0-6.0-5.30","2999330","co38278","norming","","","","","","",""
"2067.895000000135","","","post_reveal_questions","survey-likert","222","872075","0.0-6.0-6.30","2999330","co38278","norming","","","{""aha"":6}","[0]","../img/tt/1002tt.jpg","",""
"null","<div style=""font-size:60px;""> </div>","null","fixation","html-keyboard-response","223","872277","0.0-6.0-0.31","2999330","co38278","norming","","","","","","",""
"null","../img/tt/1205tt.jpg","null","mooney1","image-keyboard-response","224","875281","0.0-6.0-1.31","2999330","co38278","norming","","","","","","",""
"5842.45500000543","","","post_mooney1_questions","survey-likert","225","881127","0.0-6.0-2.31","2999330","co38278","norming","","","{""curiosity"":5,""confidence"":1}","[0,1]","../img/tt/1205tt.jpg","",""
"4957.150000002002","","","recognition","survey-text","226","886086","0.0-6.0-3.31","2999330","co38278","norming","","","{""guess"":""groep mensen""}","","../img/tt/1205tt.jpg","",""
"null","../img/gs/1205gs.jpg","null","reveal","image-keyboard-response","227","888090","0.0-6.0-4.31","2999330","co38278","norming","","","","","","",""
"null","../img/tt/1205tt.jpg","null","mooney2","image-keyboard-response","228","890092","0.0-6.0-5.31","2999330","co38278","norming","","","","","","",""
"2493.4700000012526","","","post_reveal_questions","survey-likert","229","892589","0.0-6.0-6.31","2999330","co38278","norming","","","{""aha"":5}","[0]","../img/tt/1205tt.jpg","",""
"null","<div style=""font-size:60px;""> </div>","null","fixation","html-keyboard-response","230","892790","0.0-6.0-0.32","2999330","co38278","norming","","","","","","",""
"null","../img/tt/076tt.jpg","null","mooney1","image-keyboard-response","231","895793","0.0-6.0-1.32","2999330","co38278","norming","","","","","","",""
"4406.295000007958","","","post_mooney1_questions","survey-likert","232","900203","0.0-6.0-2.32","2999330","co38278","norming","","","{""curiosity"":5,""confidence"":2}","[0,1]","../img/tt/076tt.jpg","",""
"6255.88000001153","","","recognition","survey-text","233","906461","0.0-6.0-3.32","2999330","co38278","norming","","","{""guess"":""rollerskates""}","","../img/tt/076tt.jpg","",""
"null","../img/gs/076gs.jpg","null","reveal","image-keyboard-response","234","908464","0.0-6.0-4.32","2999330","co38278","norming","","","","","","",""
"null","../img/tt/076tt.jpg","null","mooney2","image-keyboard-response","235","910467","0.0-6.0-5.32","2999330","co38278","norming","","","","","","",""
"9919.84999999113","","","post_reveal_questions","survey-likert","236","920389","0.0-6.0-6.32","2999330","co38278","norming","","","{""aha"":5}","[0]","../img/tt/076tt.jpg","",""
"null","<div style=""font-size:60px;""> </div>","null","fixation","html-keyboard-response","237","920592","0.0-6.0-0.33","2999330","co38278","norming","","","","","","",""
"null","../img/tt/135tt.jpg","null","mooney1","image-keyboard-response","238","923595","0.0-6.0-1.33","2999330","co38278","norming","","","","","","",""
"5248.189999998431","","","post_mooney1_questions","survey-likert","239","928847","0.0-6.0-2.33","2999330","co38278","norming","","","{""curiosity"":5,""confidence"":0}","[0,1]","../img/tt/135tt.jpg","",""
"1327.545000007376","","","recognition","survey-text","240","930177","0.0-6.0-3.33","2999330","co38278","norming","","","{""guess"":""""}","","../img/tt/135tt.jpg","",""
"null","../img/gs/135gs.jpg","null","reveal","image-keyboard-response","241","932179","0.0-6.0-4.33","2999330","co38278","norming","","","","","","",""
"null","../img/tt/135tt.jpg","null","mooney2","image-keyboard-response","242","934181","0.0-6.0-5.33","2999330","co38278","norming","","","","","","",""
"2063.3900000102585","","","post_reveal_questions","survey-likert","243","936247","0.0-6.0-6.33","2999330","co38278","norming","","","{""aha"":6}","[0]","../img/tt/135tt.jpg","",""
"null","<div style=""font-size:60px;""> </div>","null","fixation","html-keyboard-response","244","936449","0.0-6.0-0.34","2999330","co38278","norming","","","","","","",""
"null","../img/tt/1309tt.jpg","null","mooney1","image-keyboard-response","245","939452","0.0-6.0-1.34","2999330","co38278","norming","","","","","","",""
"4898.07500000461","","","post_mooney1_questions","survey-likert","246","944353","0.0-6.0-2.34","2999330","co38278","norming","","","{""curiosity"":5,""confidence"":1}","[0,1]","../img/tt/1309tt.jpg","",""
"6673.979999992298","","","recognition","survey-text","247","951030","0.0-6.0-3.34","2999330","co38278","norming","","","{""guess"":""auto in het bos""}","","../img/tt/1309tt.jpg","",""
"null","../img/gs/1309gs.jpg","null","reveal","image-keyboard-response","248","953032","0.0-6.0-4.34","2999330","co38278","norming","","","","","","",""
"null","../img/tt/1309tt.jpg","null","mooney2","image-keyboard-response","249","955035","0.0-6.0-5.34","2999330","co38278","norming","","","","","","",""
"3171.889999997802","","","post_reveal_questions","survey-likert","250","958209","0.0-6.0-6.34","2999330","co38278","norming","","","{""aha"":0}","[0]","../img/tt/1309tt.jpg","",""
"null","<div style=""font-size:60px;""> </div>","null","fixation","html-keyboard-response","251","958411","0.0-6.0-0.35","2999330","co38278","norming","","","","","","",""
"null","../img/tt/163tt.jpg","null","mooney1","image-keyboard-response","252","961415","0.0-6.0-1.35","2999330","co38278","norming","","","","","","",""
"5795.844999986002","","","post_mooney1_questions","survey-likert","253","967214","0.0-6.0-2.35","2999330","co38278","norming","","","{""curiosity"":5,""confidence"":1}","[0,1]","../img/tt/163tt.jpg","",""
"9930.580000000191","","","recognition","survey-text","254","977147","0.0-6.0-3.35","2999330","co38278","norming","","","{""guess"":""klein knaagdier""}","","../img/tt/163tt.jpg","",""
"null","../img/gs/163gs.jpg","null","reveal","image-keyboard-response","255","979149","0.0-6.0-4.35","2999330","co38278","norming","","","","","","",""
"null","../img/tt/163tt.jpg","null","mooney2","image-keyboard-response","256","981152","0.0-6.0-5.35","2999330","co38278","norming","","","","","","",""
"2850.7450000033714","","","post_reveal_questions","survey-likert","257","984006","0.0-6.0-6.35","2999330","co38278","norming","","","{""aha"":3}","[0]","../img/tt/163tt.jpg","",""
"null","<div style=""font-size:60px;""> </div>","null","fixation","html-keyboard-response","258","984208","0.0-6.0-0.36","2999330","co38278","norming","","","","","","",""
"null","../img/tt/1040tt.jpg","null","mooney1","image-keyboard-response","259","987212","0.0-6.0-1.36","2999330","co38278","norming","","","","","","",""
"5898.105000000214","","","post_mooney1_questions","survey-likert","260","993114","0.0-6.0-2.36","2999330","co38278","norming","","","{""curiosity"":6,""confidence"":0}","[0,1]","../img/tt/1040tt.jpg","",""
"1265.559999999823","","","recognition","survey-text","261","994382","0.0-6.0-3.36","2999330","co38278","norming","","","{""guess"":""""}","","../img/tt/1040tt.jpg","",""
"null","../img/gs/1040gs.jpg","null","reveal","image-keyboard-response","262","996383","0.0-6.0-4.36","2999330","co38278","norming","","","","","","",""
"null","../img/tt/1040tt.jpg","null","mooney2","image-keyboard-response","263","998386","0.0-6.0-5.36","2999330","co38278","norming","","","","","","",""
"3210.129999992205","","","post_reveal_questions","survey-likert","264","1001599","0.0-6.0-6.36","2999330","co38278","norming","","","{""aha"":5}","[0]","../img/tt/1040tt.jpg","",""
"null","<div style=""font-size:60px;""> </div>","null","fixation","html-keyboard-response","265","1001801","0.0-6.0-0.37","2999330","co38278","norming","","","","","","",""
"null","../img/tt/1276tt.jpg","null","mooney1","image-keyboard-response","266","1004804","0.0-6.0-1.37","2999330","co38278","norming","","","","","","",""
"4228.680000000168","","","post_mooney1_questions","survey-likert","267","1009036","0.0-6.0-2.37","2999330","co38278","norming","","","{""curiosity"":6,""confidence"":0}","[0,1]","../img/tt/1276tt.jpg","",""
"1180.7649999973364","","","recognition","survey-text","268","1010220","0.0-6.0-3.37","2999330","co38278","norming","","","{""guess"":""""}","","../img/tt/1276tt.jpg","",""
"null","../img/gs/1276gs.jpg","null","reveal","image-keyboard-response","269","1012223","0.0-6.0-4.37","2999330","co38278","norming","","","","","","",""
"null","../img/tt/1276tt.jpg","null","mooney2","image-keyboard-response","270","1014224","0.0-6.0-5.37","2999330","co38278","norming","","","","","","",""
"1611.4249999955064","","","post_reveal_questions","survey-likert","271","1015838","0.0-6.0-6.37","2999330","co38278","norming","","","{""aha"":6}","[0]","../img/tt/1276tt.jpg","",""
"null","<div style=""font-size:60px;""> </div>","null","fixation","html-keyboard-response","272","1016040","0.0-6.0-0.38","2999330","co38278","norming","","","","","","",""
"null","../img/tt/584tt.jpg","null","mooney1","image-keyboard-response","273","1019043","0.0-6.0-1.38","2999330","co38278","norming","","","","","","",""
"5248.589999988326","","","post_mooney1_questions","survey-likert","274","1024295","0.0-6.0-2.38","2999330","co38278","norming","","","{""curiosity"":5,""confidence"":1}","[0,1]","../img/tt/584tt.jpg","",""
"7402.409999995143","","","recognition","survey-text","275","1031700","0.0-6.0-3.38","2999330","co38278","norming","","","{""guess"":""verschillende handen in een cirkel""}","","../img/tt/584tt.jpg","",""
"null","../img/gs/584gs.jpg","null","reveal","image-keyboard-response","276","1033702","0.0-6.0-4.38","2999330","co38278","norming","","","","","","",""
"null","../img/tt/584tt.jpg","null","mooney2","image-keyboard-response","277","1035704","0.0-6.0-5.38","2999330","co38278","norming","","","","","","",""
"3720.224999997299","","","post_reveal_questions","survey-likert","278","1039428","0.0-6.0-6.38","2999330","co38278","norming","","","{""aha"":4}","[0]","../img/tt/584tt.jpg","",""
"null","<div style=""font-size:60px;""> </div>","null","fixation","html-keyboard-response","279","1039631","0.0-6.0-0.39","2999330","co38278","norming","","","","","","",""
"null","../img/tt/599tt.jpg","null","mooney1","image-keyboard-response","280","1042634","0.0-6.0-1.39","2999330","co38278","norming","","","","","","",""
"3209.524999998277","","","post_mooney1_questions","survey-likert","281","1045846","0.0-6.0-2.39","2999330","co38278","norming","","","{""curiosity"":5,""confidence"":1}","[0,1]","../img/tt/599tt.jpg","",""
"3027.5899999977555","","","recognition","survey-text","282","1048877","0.0-6.0-3.39","2999330","co38278","norming","","","{""guess"":""crocs""}","","../img/tt/599tt.jpg","",""
"null","../img/gs/599gs.jpg","null","reveal","image-keyboard-response","283","1050878","0.0-6.0-4.39","2999330","co38278","norming","","","","","","",""
"null","../img/tt/599tt.jpg","null","mooney2","image-keyboard-response","284","1052881","0.0-6.0-5.39","2999330","co38278","norming","","","","","","",""
"3199.270000011893","","","post_reveal_questions","survey-likert","285","1056083","0.0-6.0-6.39","2999330","co38278","norming","","","{""aha"":6}","[0]","../img/tt/599tt.jpg","",""
"null","<div style=""font-size:60px;""> </div>","null","fixation","html-keyboard-response","286","1056285","0.0-6.0-0.40","2999330","co38278","norming","","","","","","",""
"null","../img/tt/296tt.jpg","null","mooney1","image-keyboard-response","287","1059289","0.0-6.0-1.40","2999330","co38278","norming","","","","","","",""
"4698.630000013625","","","post_mooney1_questions","survey-likert","288","1063991","0.0-6.0-2.40","2999330","co38278","norming","","","{""curiosity"":6,""confidence"":1}","[0,1]","../img/tt/296tt.jpg","",""
"10115.344999998342","","","recognition","survey-text","289","1074109","0.0-6.0-3.40","2999330","co38278","norming","","","{""guess"":""binnenkant van een ambulance""}","","../img/tt/296tt.jpg","",""
"null","../img/gs/296gs.jpg","null","reveal","image-keyboard-response","290","1076112","0.0-6.0-4.40","2999330","co38278","norming","","","","","","",""
"null","../img/tt/296tt.jpg","null","mooney2","image-keyboard-response","291","1078115","0.0-6.0-5.40","2999330","co38278","norming","","","","","","",""
"1889.3400000086986","","","post_reveal_questions","survey-likert","292","1080007","0.0-6.0-6.40","2999330","co38278","norming","","","{""aha"":4}","[0]","../img/tt/296tt.jpg","",""
"null","<div style=""font-size:60px;""> </div>","null","fixation","html-keyboard-response","293","1080208","0.0-6.0-0.41","2999330","co38278","norming","","","","","","",""
"null","../img/tt/1044tt.jpg","null","mooney1","image-keyboard-response","294","1083212","0.0-6.0-1.41","2999330","co38278","norming","","","","","","",""
"4194.699999992736","","","post_mooney1_questions","survey-likert","295","1087410","0.0-6.0-2.41","2999330","co38278","norming","","","{""curiosity"":5,""confidence"":1}","[0,1]","../img/tt/1044tt.jpg","",""
"2803.7550000008196","","","recognition","survey-text","296","1090217","0.0-6.0-3.41","2999330","co38278","norming","","","{""guess"":""cowboy""}","","../img/tt/1044tt.jpg","",""
"null","../img/gs/1044gs.jpg","null","reveal","image-keyboard-response","297","1092218","0.0-6.0-4.41","2999330","co38278","norming","","","","","","",""
"null","../img/tt/1044tt.jpg","null","mooney2","image-keyboard-response","298","1094220","0.0-6.0-5.41","2999330","co38278","norming","","","","","","",""
"2103.6250000032596","","","post_reveal_questions","survey-likert","299","1096327","0.0-6.0-6.41","2999330","co38278","norming","","","{""aha"":5}","[0]","../img/tt/1044tt.jpg","",""
"null","<div style=""font-size:60px;""> </div>","null","fixation","html-keyboard-response","300","1096528","0.0-6.0-0.42","2999330","co38278","norming","","","","","","",""
"null","../img/tt/082tt.jpg","null","mooney1","image-keyboard-response","301","1099531","0.0-6.0-1.42","2999330","co38278","norming","","","","","","",""
"4780.715000000782","","","post_mooney1_questions","survey-likert","302","1104315","0.0-6.0-2.42","2999330","co38278","norming","","","{""curiosity"":4,""confidence"":4}","[0,1]","../img/tt/082tt.jpg","",""
"3535.309999991907","","","recognition","survey-text","303","1107853","0.0-6.0-3.42","2999330","co38278","norming","","","{""guess"":""papegaai""}","","../img/tt/082tt.jpg","",""
"null","../img/gs/082gs.jpg","null","reveal","image-keyboard-response","304","1109855","0.0-6.0-4.42","2999330","co38278","norming","","","","","","",""
"null","../img/tt/082tt.jpg","null","mooney2","image-keyboard-response","305","1111858","0.0-6.0-5.42","2999330","co38278","norming","","","","","","",""
"4733.905000000959","","","post_reveal_questions","survey-likert","306","1116594","0.0-6.0-6.42","2999330","co38278","norming","","","{""aha"":0}","[0]","../img/tt/082tt.jpg","",""
"null","<div style=""font-size:60px;""> </div>","null","fixation","html-keyboard-response","307","1116796","0.0-6.0-0.43","2999330","co38278","norming","","","","","","",""
"null","../img/tt/517tt.jpg","null","mooney1","image-keyboard-response","308","1119803","0.0-6.0-1.43","2999330","co38278","norming","","","","","","",""
"4168.505000008736","","","post_mooney1_questions","survey-likert","309","1123975","0.0-6.0-2.43","2999330","co38278","norming","","","{""curiosity"":5,""confidence"":1}","[0,1]","../img/tt/517tt.jpg","",""
"2844.2199999992736","","","recognition","survey-text","310","1126822","0.0-6.0-3.43","2999330","co38278","norming","","","{""guess"":""panda""}","","../img/tt/517tt.jpg","",""
"null","../img/gs/517gs.jpg","null","reveal","image-keyboard-response","311","1128825","0.0-6.0-4.43","2999330","co38278","norming","","","","","","",""
"null","../img/tt/517tt.jpg","null","mooney2","image-keyboard-response","312","1130828","0.0-6.0-5.43","2999330","co38278","norming","","","","","","",""
"4093.569999997271","","","post_reveal_questions","survey-likert","313","1134924","0.0-6.0-6.43","2999330","co38278","norming","","","{""aha"":4}","[0]","../img/tt/517tt.jpg","",""
"null","<div style=""font-size:60px;""> </div>","null","fixation","html-keyboard-response","314","1135126","0.0-6.0-0.44","2999330","co38278","norming","","","","","","",""
"null","../img/tt/1261tt.jpg","null","mooney1","image-keyboard-response","315","1138130","0.0-6.0-1.44","2999330","co38278","norming","","","","","","",""
"4812.22500000149","","","post_mooney1_questions","survey-likert","316","1142946","0.0-6.0-2.44","2999330","co38278","norming","","","{""curiosity"":5,""confidence"":1}","[0,1]","../img/tt/1261tt.jpg","",""
"3943.305000007851","","","recognition","survey-text","317","1146892","0.0-6.0-3.44","2999330","co38278","norming","","","{""guess"":""dierenkooi""}","","../img/tt/1261tt.jpg","",""
"null","../img/gs/1261gs.jpg","null","reveal","image-keyboard-response","318","1148894","0.0-6.0-4.44","2999330","co38278","norming","","","","","","",""
"null","../img/tt/1261tt.jpg","null","mooney2","image-keyboard-response","319","1150896","0.0-6.0-5.44","2999330","co38278","norming","","","","","","",""
"3985.424999991432","","","post_reveal_questions","survey-likert","320","1154884","0.0-6.0-6.44","2999330","co38278","norming","","","{""aha"":5}","[0]","../img/tt/1261tt.jpg","",""
"null","<div style=""font-size:60px;""> </div>","null","fixation","html-keyboard-response","321","1155085","0.0-6.0-0.45","2999330","co38278","norming","","","","","","",""
"null","../img/tt/098tt.jpg","null","mooney1","image-keyboard-response","322","1158089","0.0-6.0-1.45","2999330","co38278","norming","","","","","","",""
"8527.26499999687","","","post_mooney1_questions","survey-likert","323","1166620","0.0-6.0-2.45","2999330","co38278","norming","","","{""curiosity"":6,""confidence"":0}","[0,1]","../img/tt/098tt.jpg","",""
"1109.78999998793","","","recognition","survey-text","324","1167732","0.0-6.0-3.45","2999330","co38278","norming","","","{""guess"":""""}","","../img/tt/098tt.jpg","",""
"null","../img/gs/098gs.jpg","null","reveal","image-keyboard-response","325","1169735","0.0-6.0-4.45","2999330","co38278","norming","","","","","","",""
"null","../img/tt/098tt.jpg","null","mooney2","image-keyboard-response","326","1171739","0.0-6.0-5.45","2999330","co38278","norming","","","","","","",""
"4446.400000000605","","","post_reveal_questions","survey-likert","327","1176188","0.0-6.0-6.45","2999330","co38278","norming","","","{""aha"":5}","[0]","../img/tt/098tt.jpg","",""
"null","<div style=""font-size:60px;""> </div>","null","fixation","html-keyboard-response","328","1176390","0.0-6.0-0.46","2999330","co38278","norming","","","","","","",""
"null","../img/tt/1048tt.jpg","null","mooney1","image-keyboard-response","329","1179394","0.0-6.0-1.46","2999330","co38278","norming","","","","","","",""
"4265.354999996023","","","post_mooney1_questions","survey-likert","330","1183663","0.0-6.0-2.46","2999330","co38278","norming","","","{""curiosity"":5,""confidence"":1}","[0,1]","../img/tt/1048tt.jpg","",""
"2473.58499999973","","","recognition","survey-text","331","1186139","0.0-6.0-3.46","2999330","co38278","norming","","","{""guess"":""vrouw""}","","../img/tt/1048tt.jpg","",""
"null","../img/gs/1048gs.jpg","null","reveal","image-keyboard-response","332","1188141","0.0-6.0-4.46","2999330","co38278","norming","","","","","","",""
"null","../img/tt/1048tt.jpg","null","mooney2","image-keyboard-response","333","1190143","0.0-6.0-5.46","2999330","co38278","norming","","","","","","",""
"2585.7400000095367","","","post_reveal_questions","survey-likert","334","1192731","0.0-6.0-6.46","2999330","co38278","norming","","","{""aha"":5}","[0]","../img/tt/1048tt.jpg","",""
"null","<div style=""font-size:60px;""> </div>","null","fixation","html-keyboard-response","335","1192933","0.0-6.0-0.47","2999330","co38278","norming","","","","","","",""
"null","../img/tt/1290tt.jpg","null","mooney1","image-keyboard-response","336","1195936","0.0-6.0-1.47","2999330","co38278","norming","","","","","","",""
"4610.209999999031","","","post_mooney1_questions","survey-likert","337","1200550","0.0-6.0-2.47","2999330","co38278","norming","","","{""curiosity"":4,""confidence"":1}","[0,1]","../img/tt/1290tt.jpg","",""
"3047.614999988582","","","recognition","survey-text","338","1203600","0.0-6.0-3.47","2999330","co38278","norming","","","{""guess"":""granaat""}","","../img/tt/1290tt.jpg","",""
"null","../img/gs/1290gs.jpg","null","reveal","image-keyboard-response","339","1205602","0.0-6.0-4.47","2999330","co38278","norming","","","","","","",""
"null","../img/tt/1290tt.jpg","null","mooney2","image-keyboard-response","340","1207605","0.0-6.0-5.47","2999330","co38278","norming","","","","","","",""
"5394.734999994282","","","post_reveal_questions","survey-likert","341","1213005","0.0-6.0-6.47","2999330","co38278","norming","","","{""aha"":5}","[0]","../img/tt/1290tt.jpg","",""
"null","<div style=""font-size:60px;""> </div>","null","fixation","html-keyboard-response","342","1213207","0.0-6.0-0.48","2999330","co38278","norming","","","","","","",""
"null","../img/tt/1097tt.jpg","null","mooney1","image-keyboard-response","343","1216210","0.0-6.0-1.48","2999330","co38278","norming","","","","","","",""
"7460.48999999743","","","post_mooney1_questions","survey-likert","344","1223674","0.0-6.0-2.48","2999330","co38278","norming","","","{""curiosity"":6,""confidence"":3}","[0,1]","../img/tt/1097tt.jpg","",""
"7801.279999999562","","","recognition","survey-text","345","1231478","0.0-6.0-3.48","2999330","co38278","norming","","","{""guess"":""stand up peddeling""}","","../img/tt/1097tt.jpg","",""
"null","../img/gs/1097gs.jpg","null","reveal","image-keyboard-response","346","1233479","0.0-6.0-4.48","2999330","co38278","norming","","","","","","",""
"null","../img/tt/1097tt.jpg","null","mooney2","image-keyboard-response","347","1235481","0.0-6.0-5.48","2999330","co38278","norming","","","","","","",""
"3980.290000007022","","","post_reveal_questions","survey-likert","348","1239464","0.0-6.0-6.48","2999330","co38278","norming","","","{""aha"":0}","[0]","../img/tt/1097tt.jpg","",""
"null","<div style=""font-size:60px;""> </div>","null","fixation","html-keyboard-response","349","1239666","0.0-6.0-0.49","2999330","co38278","norming","","","","","","",""
"null","../img/tt/1275tt.jpg","null","mooney1","image-keyboard-response","350","1242669","0.0-6.0-1.49","2999330","co38278","norming","","","","","","",""
"4681.225000007544","","","post_mooney1_questions","survey-likert","351","1247354","0.0-6.0-2.49","2999330","co38278","norming","","","{""curiosity"":1,""confidence"":5}","[0,1]","../img/tt/1275tt.jpg","",""
"4660.619999995222","","","recognition","survey-text","352","1252017","0.0-6.0-3.49","2999330","co38278","norming","","","{""guess"":""everzwijn""}","","../img/tt/1275tt.jpg","",""
"null","../img/gs/1275gs.jpg","null","reveal","image-keyboard-response","353","1254018","0.0-6.0-4.49","2999330","co38278","norming","","","","","","",""
"null","../img/tt/1275tt.jpg","null","mooney2","image-keyboard-response","354","1256020","0.0-6.0-5.49","2999330","co38278","norming","","","","","","",""
"5929.210000002058","","","post_reveal_questions","survey-likert","355","1261953","0.0-6.0-6.49","2999330","co38278","norming","","","{""aha"":0}","[0]","../img/tt/1275tt.jpg","",""
"null","<div style=""font-size:60px;""> </div>","null","fixation","html-keyboard-response","356","1262154","0.0-6.0-0.50","2999330","co38278","norming","","","","","","",""
"null","../img/tt/056tt.jpg","null","mooney1","image-keyboard-response","357","1265158","0.0-6.0-1.50","2999330","co38278","norming","","","","","","",""
"6951.140000004787","","","post_mooney1_questions","survey-likert","358","1272112","0.0-6.0-2.50","2999330","co38278","norming","","","{""curiosity"":6,""confidence"":0}","[0,1]","../img/tt/056tt.jpg","",""
"942.015000007581","","","recognition","survey-text","359","1273057","0.0-6.0-3.50","2999330","co38278","norming","","","{""guess"":""""}","","../img/tt/056tt.jpg","",""
"null","../img/gs/056gs.jpg","null","reveal","image-keyboard-response","360","1275059","0.0-6.0-4.50","2999330","co38278","norming","","","","","","",""
"null","../img/tt/056tt.jpg","null","mooney2","image-keyboard-response","361","1277062","0.0-6.0-5.50","2999330","co38278","norming","","","","","","",""
"3632.720000008587","","","post_reveal_questions","survey-likert","362","1280697","0.0-6.0-6.50","2999330","co38278","norming","","","{""aha"":4}","[0]","../img/tt/056tt.jpg","",""
"null","<div style=""font-size:60px;""> </div>","null","fixation","html-keyboard-response","363","1280899","0.0-6.0-0.51","2999330","co38278","norming","","","","","","",""
"null","../img/tt/1151tt.jpg","null","mooney1","image-keyboard-response","364","1283903","0.0-6.0-1.51","2999330","co38278","norming","","","","","","",""
"5337.844999987166","","","post_mooney1_questions","survey-likert","365","1289244","0.0-6.0-2.51","2999330","co38278","norming","","","{""curiosity"":4,""confidence"":0}","[0,1]","../img/tt/1151tt.jpg","",""
"911.954999988433","","","recognition","survey-text","366","1290158","0.0-6.0-3.51","2999330","co38278","norming","","","{""guess"":""""}","","../img/tt/1151tt.jpg","",""
"null","../img/gs/1151gs.jpg","null","reveal","image-keyboard-response","367","1292160","0.0-6.0-4.51","2999330","co38278","norming","","","","","","",""
"null","../img/tt/1151tt.jpg","null","mooney2","image-keyboard-response","368","1294163","0.0-6.0-5.51","2999330","co38278","norming","","","","","","",""
"3966.224999996368","","","post_reveal_questions","survey-likert","369","1298132","0.0-6.0-6.51","2999330","co38278","norming","","","{""aha"":4}","[0]","../img/tt/1151tt.jpg","",""
"null","<div style=""font-size:60px;""> </div>","null","fixation","html-keyboard-response","370","1298334","0.0-6.0-0.52","2999330","co38278","norming","","","","","","",""
"null","../img/tt/273tt.jpg","null","mooney1","image-keyboard-response","371","1301337","0.0-6.0-1.52","2999330","co38278","norming","","","","","","",""
"3797.095000001602","","","post_mooney1_questions","survey-likert","372","1305138","0.0-6.0-2.52","2999330","co38278","norming","","","{""curiosity"":5,""confidence"":1}","[0,1]","../img/tt/273tt.jpg","",""
"5986.204999993555","","","recognition","survey-text","373","1311126","0.0-6.0-3.52","2999330","co38278","norming","","","{""guess"":""iemand die boeken leest""}","","../img/tt/273tt.jpg","",""
"null","../img/gs/273gs.jpg","null","reveal","image-keyboard-response","374","1313129","0.0-6.0-4.52","2999330","co38278","norming","","","","","","",""
"null","../img/tt/273tt.jpg","null","mooney2","image-keyboard-response","375","1315132","0.0-6.0-5.52","2999330","co38278","norming","","","","","","",""
"2087.0299999951385","","","post_reveal_questions","survey-likert","376","1317222","0.0-6.0-6.52","2999330","co38278","norming","","","{""aha"":6}","[0]","../img/tt/273tt.jpg","",""
"null","<div style=""font-size:60px;""> </div>","null","fixation","html-keyboard-response","377","1317425","0.0-6.0-0.53","2999330","co38278","norming","","","","","","",""
"null","../img/tt/085tt.jpg","null","mooney1","image-keyboard-response","378","1320428","0.0-6.0-1.53","2999330","co38278","norming","","","","","","",""
"3956.8450000078883","","","post_mooney1_questions","survey-likert","379","1324388","0.0-6.0-2.53","2999330","co38278","norming","","","{""curiosity"":5,""confidence"":1}","[0,1]","../img/tt/085tt.jpg","",""
"6276.704999996582","","","recognition","survey-text","380","1330668","0.0-6.0-3.53","2999330","co38278","norming","","","{""guess"":""jazz optreden""}","","../img/tt/085tt.jpg","",""
"null","../img/gs/085gs.jpg","null","reveal","image-keyboard-response","381","1332670","0.0-6.0-4.53","2999330","co38278","norming","","","","","","",""
"null","../img/tt/085tt.jpg","null","mooney2","image-keyboard-response","382","1334672","0.0-6.0-5.53","2999330","co38278","norming","","","","","","",""
"2010.0899999961257","","","post_reveal_questions","survey-likert","383","1336685","0.0-6.0-6.53","2999330","co38278","norming","","","{""aha"":6}","[0]","../img/tt/085tt.jpg","",""
"null","<div style=""font-size:60px;""> </div>","null","fixation","html-keyboard-response","384","1336886","0.0-6.0-0.54","2999330","co38278","norming","","","","","","",""
"null","../img/tt/580tt.jpg","null","mooney1","image-keyboard-response","385","1339890","0.0-6.0-1.54","2999330","co38278","norming","","","","","","",""
"4270.684999995865","","","post_mooney1_questions","survey-likert","386","1344164","0.0-6.0-2.54","2999330","co38278","norming","","","{""curiosity"":6,""confidence"":0}","[0,1]","../img/tt/580tt.jpg","",""
"1130.6099999928847","","","recognition","survey-text","387","1345298","0.0-6.0-3.54","2999330","co38278","norming","","","{""guess"":""""}","","../img/tt/580tt.jpg","",""
"null","../img/gs/580gs.jpg","null","reveal","image-keyboard-response","388","1347300","0.0-6.0-4.54","2999330","co38278","norming","","","","","","",""
"null","../img/tt/580tt.jpg","null","mooney2","image-keyboard-response","389","1349303","0.0-6.0-5.54","2999330","co38278","norming","","","","","","",""
"2060.6849999895785","","","post_reveal_questions","survey-likert","390","1351366","0.0-6.0-6.54","2999330","co38278","norming","","","{""aha"":5}","[0]","../img/tt/580tt.jpg","",""
"null","<div style=""font-size:60px;""> </div>","null","fixation","html-keyboard-response","391","1351569","0.0-6.0-0.55","2999330","co38278","norming","","","","","","",""
"null","../img/tt/1199tt.jpg","null","mooney1","image-keyboard-response","392","1354572","0.0-6.0-1.55","2999330","co38278","norming","","","","","","",""
"5122.564999997849","","","post_mooney1_questions","survey-likert","393","1359697","0.0-6.0-2.55","2999330","co38278","norming","","","{""curiosity"":5,""confidence"":1}","[0,1]","../img/tt/1199tt.jpg","",""
"4586.334999999963","","","recognition","survey-text","394","1364286","0.0-6.0-3.55","2999330","co38278","norming","","","{""guess"":""spelletje honkbal""}","","../img/tt/1199tt.jpg","",""
"null","../img/gs/1199gs.jpg","null","reveal","image-keyboard-response","395","1366288","0.0-6.0-4.55","2999330","co38278","norming","","","","","","",""
"null","../img/tt/1199tt.jpg","null","mooney2","image-keyboard-response","396","1368291","0.0-6.0-5.55","2999330","co38278","norming","","","","","","",""
"1858.1099999863654","","","post_reveal_questions","survey-likert","397","1370152","0.0-6.0-6.55","2999330","co38278","norming","","","{""aha"":5}","[0]","../img/tt/1199tt.jpg","",""
"null","<div style=""font-size:60px;""> </div>","null","fixation","html-keyboard-response","398","1370354","0.0-6.0-0.56","2999330","co38278","norming","","","","","","",""
"null","../img/tt/1080tt.jpg","null","mooney1","image-keyboard-response","399","1373357","0.0-6.0-1.56","2999330","co38278","norming","","","","","","",""
"4443.070000008214","","","post_mooney1_questions","survey-likert","400","1377803","0.0-6.0-2.56","2999330","co38278","norming","","","{""curiosity"":5,""confidence"":1}","[0,1]","../img/tt/1080tt.jpg","",""
"6996.224999995204","","","recognition","survey-text","401","1384802","0.0-6.0-3.56","2999330","co38278","norming","","","{""guess"":""twee mensen in een auto""}","","../img/tt/1080tt.jpg","",""
"null","../img/gs/1080gs.jpg","null","reveal","image-keyboard-response","402","1386804","0.0-6.0-4.56","2999330","co38278","norming","","","","","","",""
"null","../img/tt/1080tt.jpg","null","mooney2","image-keyboard-response","403","1388806","0.0-6.0-5.56","2999330","co38278","norming","","","","","","",""
"2570.744999989867","","","post_reveal_questions","survey-likert","404","1391379","0.0-6.0-6.56","2999330","co38278","norming","","","{""aha"":6}","[0]","../img/tt/1080tt.jpg","",""
"null","<div style=""font-size:60px;""> </div>","null","fixation","html-keyboard-response","405","1391582","0.0-6.0-0.57","2999330","co38278","norming","","","","","","",""
"null","../img/tt/440tt.jpg","null","mooney1","image-keyboard-response","406","1394585","0.0-6.0-1.57","2999330","co38278","norming","","","","","","",""
"3397.9849999886937","","","post_mooney1_questions","survey-likert","407","1397987","0.0-6.0-2.57","2999330","co38278","norming","","","{""curiosity"":5,""confidence"":1}","[0,1]","../img/tt/440tt.jpg","",""
"2586.5650000050664","","","recognition","survey-text","408","1400576","0.0-6.0-3.57","2999330","co38278","norming","","","{""guess"":""koe""}","","../img/tt/440tt.jpg","",""
"null","../img/gs/440gs.jpg","null","reveal","image-keyboard-response","409","1402577","0.0-6.0-4.57","2999330","co38278","norming","","","","","","",""
"null","../img/tt/440tt.jpg","null","mooney2","image-keyboard-response","410","1404580","0.0-6.0-5.57","2999330","co38278","norming","","","","","","",""
"2267.6250000076834","","","post_reveal_questions","survey-likert","411","1406850","0.0-6.0-6.57","2999330","co38278","norming","","","{""aha"":5}","[0]","../img/tt/440tt.jpg","",""
"null","<div style=""font-size:60px;""> </div>","null","fixation","html-keyboard-response","412","1407052","0.0-6.0-0.58","2999330","co38278","norming","","","","","","",""
"null","../img/tt/1211tt.jpg","null","mooney1","image-keyboard-response","413","1410056","0.0-6.0-1.58","2999330","co38278","norming","","","","","","",""
"6060.36499999743","","","post_mooney1_questions","survey-likert","414","1416120","0.0-6.0-2.58","2999330","co38278","norming","","","{""curiosity"":6,""confidence"":0}","[0,1]","../img/tt/1211tt.jpg","",""
"1301.7049999907613","","","recognition","survey-text","415","1417425","0.0-6.0-3.58","2999330","co38278","norming","","","{""guess"":""""}","","../img/tt/1211tt.jpg","",""
"null","../img/gs/1211gs.jpg","null","reveal","image-keyboard-response","416","1419427","0.0-6.0-4.58","2999330","co38278","norming","","","","","","",""
"null","../img/tt/1211tt.jpg","null","mooney2","image-keyboard-response","417","1421430","0.0-6.0-5.58","2999330","co38278","norming","","","","","","",""
"4032.749999998603","","","post_reveal_questions","survey-likert","418","1425465","0.0-6.0-6.58","2999330","co38278","norming","","","{""aha"":6}","[0]","../img/tt/1211tt.jpg","",""
"null","<div style=""font-size:60px;""> </div>","null","fixation","html-keyboard-response","419","1425668","0.0-6.0-0.59","2999330","co38278","norming","","","","","","",""
"null","../img/tt/442tt.jpg","null","mooney1","image-keyboard-response","420","1428672","0.0-6.0-1.59","2999330","co38278","norming","","","","","","",""
"6339.485000004061","","","post_mooney1_questions","survey-likert","421","1435015","0.0-6.0-2.59","2999330","co38278","norming","","","{""curiosity"":5,""confidence"":1}","[0,1]","../img/tt/442tt.jpg","",""
"4060.895000002347","","","recognition","survey-text","422","1439078","0.0-6.0-3.59","2999330","co38278","norming","","","{""guess"":""wafelijzer""}","","../img/tt/442tt.jpg","",""
"null","../img/gs/442gs.jpg","null","reveal","image-keyboard-response","423","1441081","0.0-6.0-4.59","2999330","co38278","norming","","","","","","",""
"null","../img/tt/442tt.jpg","null","mooney2","image-keyboard-response","424","1443083","0.0-6.0-5.59","2999330","co38278","norming","","","","","","",""
"3494.59999999078","","","post_reveal_questions","survey-likert","425","1446580","0.0-6.0-6.59","2999330","co38278","norming","","","{""aha"":5}","[0]","../img/tt/442tt.jpg","",""
"null","<div style=""font-size:60px;""> </div>","null","fixation","html-keyboard-response","426","1446782","0.0-6.0-0.60","2999330","co38278","norming","","","","","","",""
"null","../img/tt/084tt.jpg","null","mooney1","image-keyboard-response","427","1449786","0.0-6.0-1.60","2999330","co38278","norming","","","","","","",""
"6124.909999998752","","","post_mooney1_questions","survey-likert","428","1455914","0.0-6.0-2.60","2999330","co38278","norming","","","{""curiosity"":5,""confidence"":1}","[0,1]","../img/tt/084tt.jpg","",""
"4061.9449999940116","","","recognition","survey-text","429","1459978","0.0-6.0-3.60","2999330","co38278","norming","","","{""guess"":""zwarte eend""}","","../img/tt/084tt.jpg","",""
"null","../img/gs/084gs.jpg","null","reveal","image-keyboard-response","430","1461980","0.0-6.0-4.60","2999330","co38278","norming","","","","","","",""
"null","../img/tt/084tt.jpg","null","mooney2","image-keyboard-response","431","1463983","0.0-6.0-5.60","2999330","co38278","norming","","","","","","",""
"2297.179999994114","","","post_reveal_questions","survey-likert","432","1466283","0.0-6.0-6.60","2999330","co38278","norming","","","{""aha"":5}","[0]","../img/tt/084tt.jpg","",""
"null","<div style=""font-size:60px;""> </div>","null","fixation","html-keyboard-response","433","1466484","0.0-6.0-0.61","2999330","co38278","norming","","","","","","",""
"null","../img/tt/549tt.jpg","null","mooney1","image-keyboard-response","434","1469488","0.0-6.0-1.61","2999330","co38278","norming","","","","","","",""
"3883.124999993015","","","post_mooney1_questions","survey-likert","435","1473374","0.0-6.0-2.61","2999330","co38278","norming","","","{""curiosity"":5,""confidence"":1}","[0,1]","../img/tt/549tt.jpg","",""
"3746.820000000298","","","recognition","survey-text","436","1477124","0.0-6.0-3.61","2999330","co38278","norming","","","{""guess"":""libelle""}","","../img/tt/549tt.jpg","",""
"null","../img/gs/549gs.jpg","null","reveal","image-keyboard-response","437","1479125","0.0-6.0-4.61","2999330","co38278","norming","","","","","","",""
"null","../img/tt/549tt.jpg","null","mooney2","image-keyboard-response","438","1481128","0.0-6.0-5.61","2999330","co38278","norming","","","","","","",""
"3698.0849999962375","","","post_reveal_questions","survey-likert","439","1484829","0.0-6.0-6.61","2999330","co38278","norming","","","{""aha"":4}","[0]","../img/tt/549tt.jpg","",""
"null","<div style=""font-size:60px;""> </div>","null","fixation","html-keyboard-response","440","1485031","0.0-6.0-0.62","2999330","co38278","norming","","","","","","",""
"null","../img/tt/123tt.jpg","null","mooney1","image-keyboard-response","441","1488035","0.0-6.0-1.62","2999330","co38278","norming","","","","","","",""
"3880.084999997169","","","post_mooney1_questions","survey-likert","442","1491918","0.0-6.0-2.62","2999330","co38278","norming","","","{""curiosity"":5,""confidence"":1}","[0,1]","../img/tt/123tt.jpg","",""
"2824.515000000363","","","recognition","survey-text","443","1494745","0.0-6.0-3.62","2999330","co38278","norming","","","{""guess"":""aktetas""}","","../img/tt/123tt.jpg","",""
"null","../img/gs/123gs.jpg","null","reveal","image-keyboard-response","444","1496747","0.0-6.0-4.62","2999330","co38278","norming","","","","","","",""
"null","../img/tt/123tt.jpg","null","mooney2","image-keyboard-response","445","1498750","0.0-6.0-5.62","2999330","co38278","norming","","","","","","",""
"2496.3350000032224","","","post_reveal_questions","survey-likert","446","1501249","0.0-6.0-6.62","2999330","co38278","norming","","","{""aha"":0}","[0]","../img/tt/123tt.jpg","",""
"null","<div style=""font-size:60px;""> </div>","null","fixation","html-keyboard-response","447","1501451","0.0-6.0-0.63","2999330","co38278","norming","","","","","","",""
"null","../img/tt/1283tt.jpg","null","mooney1","image-keyboard-response","448","1504455","0.0-6.0-1.63","2999330","co38278","norming","","","","","","",""
"4295.949999999721","","","post_mooney1_questions","survey-likert","449","1508755","0.0-6.0-2.63","2999330","co38278","norming","","","{""curiosity"":5,""confidence"":1}","[0,1]","../img/tt/1283tt.jpg","",""
"2023.125000006985","","","recognition","survey-text","450","1510780","0.0-6.0-3.63","2999330","co38278","norming","","","{""guess"":""bos""}","","../img/tt/1283tt.jpg","",""
"null","../img/gs/1283gs.jpg","null","reveal","image-keyboard-response","451","1512783","0.0-6.0-4.63","2999330","co38278","norming","","","","","","",""
"null","../img/tt/1283tt.jpg","null","mooney2","image-keyboard-response","452","1514785","0.0-6.0-5.63","2999330","co38278","norming","","","","","","",""
"2817.2600000109524","","","post_reveal_questions","survey-likert","453","1517606","0.0-6.0-6.63","2999330","co38278","norming","","","{""aha"":1}","[0]","../img/tt/1283tt.jpg","",""
"null","<div style=""font-size:60px;""> </div>","null","fixation","html-keyboard-response","454","1517807","0.0-6.0-0.64","2999330","co38278","norming","","","","","","",""
"null","../img/tt/418tt.jpg","null","mooney1","image-keyboard-response","455","1520811","0.0-6.0-1.64","2999330","co38278","norming","","","","","","",""
"3781.759999997914","","","post_mooney1_questions","survey-likert","456","1524596","0.0-6.0-2.64","2999330","co38278","norming","","","{""curiosity"":5,""confidence"":1}","[0,1]","../img/tt/418tt.jpg","",""
"4238.5449999999255","","","recognition","survey-text","457","1528837","0.0-6.0-3.64","2999330","co38278","norming","","","{""guess"":""groenten""}","","../img/tt/418tt.jpg","",""
"null","../img/gs/418gs.jpg","null","reveal","image-keyboard-response","458","1530840","0.0-6.0-4.64","2999330","co38278","norming","","","","","","",""
"null","../img/tt/418tt.jpg","null","mooney2","image-keyboard-response","459","1532843","0.0-6.0-5.64","2999330","co38278","norming","","","","","","",""
"2655.6100000017323","","","post_reveal_questions","survey-likert","460","1535501","0.0-6.0-6.64","2999330","co38278","norming","","","{""aha"":1}","[0]","../img/tt/418tt.jpg","",""
"null","<div style=""font-size:60px;""> </div>","null","fixation","html-keyboard-response","461","1535703","0.0-6.0-0.65","2999330","co38278","norming","","","","","","",""
"null","../img/tt/1084tt.jpg","null","mooney1","image-keyboard-response","462","1538707","0.0-6.0-1.65","2999330","co38278","norming","","","","","","",""
"3760.934999998426","","","post_mooney1_questions","survey-likert","463","1542470","0.0-6.0-2.65","2999330","co38278","norming","","","{""curiosity"":5,""confidence"":1}","[0,1]","../img/tt/1084tt.jpg","",""
"5042.184999998659","","","recognition","survey-text","464","1547514","0.0-6.0-3.65","2999330","co38278","norming","","","{""guess"":""glas wiskey""}","","../img/tt/1084tt.jpg","",""
"null","../img/gs/1084gs.jpg","null","reveal","image-keyboard-response","465","1549516","0.0-6.0-4.65","2999330","co38278","norming","","","","","","",""
"null","../img/tt/1084tt.jpg","null","mooney2","image-keyboard-response","466","1551519","0.0-6.0-5.65","2999330","co38278","norming","","","","","","",""
"2324.905000001192","","","post_reveal_questions","survey-likert","467","1553846","0.0-6.0-6.65","2999330","co38278","norming","","","{""aha"":3}","[0]","../img/tt/1084tt.jpg","",""
"null","<div style=""font-size:60px;""> </div>","null","fixation","html-keyboard-response","468","1554048","0.0-6.0-0.66","2999330","co38278","norming","","","","","","",""
"null","../img/tt/1190tt.jpg","null","mooney1","image-keyboard-response","469","1557052","0.0-6.0-1.66","2999330","co38278","norming","","","","","","",""
"3913.435000009369","","","post_mooney1_questions","survey-likert","470","1560969","0.0-6.0-2.66","2999330","co38278","norming","","","{""curiosity"":5,""confidence"":1}","[0,1]","../img/tt/1190tt.jpg","",""
"3122.5649999978486","","","recognition","survey-text","471","1564094","0.0-6.0-3.66","2999330","co38278","norming","","","{""guess"":""bijeenkomst""}","","../img/tt/1190tt.jpg","",""
"null","../img/gs/1190gs.jpg","null","reveal","image-keyboard-response","472","1566096","0.0-6.0-4.66","2999330","co38278","norming","","","","","","",""
"null","../img/tt/1190tt.jpg","null","mooney2","image-keyboard-response","473","1568099","0.0-6.0-5.66","2999330","co38278","norming","","","","","","",""
"3948.5599999898113","","","post_reveal_questions","survey-likert","474","1572050","0.0-6.0-6.66","2999330","co38278","norming","","","{""aha"":5}","[0]","../img/tt/1190tt.jpg","",""
"null","<div style=""font-size:60px;""> </div>","null","fixation","html-keyboard-response","475","1572252","0.0-6.0-0.67","2999330","co38278","norming","","","","","","",""
"null","../img/tt/1242tt.jpg","null","mooney1","image-keyboard-response","476","1575255","0.0-6.0-1.67","2999330","co38278","norming","","","","","","",""
"4311.4800000039395","","","post_mooney1_questions","survey-likert","477","1579570","0.0-6.0-2.67","2999330","co38278","norming","","","{""curiosity"":5,""confidence"":1}","[0,1]","../img/tt/1242tt.jpg","",""
"5372.610000005923","","","recognition","survey-text","478","1584946","0.0-6.0-3.67","2999330","co38278","norming","","","{""guess"":""omgekeerde papegaai""}","","../img/tt/1242tt.jpg","",""
"null","../img/gs/1242gs.jpg","null","reveal","image-keyboard-response","479","1586947","0.0-6.0-4.67","2999330","co38278","norming","","","","","","",""
"null","../img/tt/1242tt.jpg","null","mooney2","image-keyboard-response","480","1588950","0.0-6.0-5.67","2999330","co38278","norming","","","","","","",""
"2152.6849999937695","","","post_reveal_questions","survey-likert","481","1591106","0.0-6.0-6.67","2999330","co38278","norming","","","{""aha"":6}","[0]","../img/tt/1242tt.jpg","",""
"null","<div style=""font-size:60px;""> </div>","null","fixation","html-keyboard-response","482","1591309","0.0-6.0-0.68","2999330","co38278","norming","","","","","","",""
"null","../img/tt/040tt.jpg","null","mooney1","image-keyboard-response","483","1594313","0.0-6.0-1.68","2999330","co38278","norming","","","","","","",""
"3857.694999998668","","","post_mooney1_questions","survey-likert","484","1598174","0.0-6.0-2.68","2999330","co38278","norming","","","{""curiosity"":5,""confidence"":1}","[0,1]","../img/tt/040tt.jpg","",""
"3495.8599999956787","","","recognition","survey-text","485","1601672","0.0-6.0-3.68","2999330","co38278","norming","","","{""guess"":""vogel""}","","../img/tt/040tt.jpg","",""
"null","../img/gs/040gs.jpg","null","reveal","image-keyboard-response","486","1603675","0.0-6.0-4.68","2999330","co38278","norming","","","","","","",""
"null","../img/tt/040tt.jpg","null","mooney2","image-keyboard-response","487","1605677","0.0-6.0-5.68","2999330","co38278","norming","","","","","","",""
"1921.0949999978766","","","post_reveal_questions","survey-likert","488","1607601","0.0-6.0-6.68","2999330","co38278","norming","","","{""aha"":6}","[0]","../img/tt/040tt.jpg","",""
"null","<div style=""font-size:60px;""> </div>","null","fixation","html-keyboard-response","489","1607803","0.0-6.0-0.69","2999330","co38278","norming","","","","","","",""
"null","../img/tt/1037tt.jpg","null","mooney1","image-keyboard-response","490","1610809","0.0-6.0-1.69","2999330","co38278","norming","","","","","","",""
"3896.1600000038743","","","post_mooney1_questions","survey-likert","491","1614708","0.0-6.0-2.69","2999330","co38278","norming","","","{""curiosity"":5,""confidence"":1}","[0,1]","../img/tt/1037tt.jpg","",""
"4065.959999992745","","","recognition","survey-text","492","1618777","0.0-6.0-3.69","2999330","co38278","norming","","","{""guess"":""huskey""}","","../img/tt/1037tt.jpg","",""
"null","../img/gs/1037gs.jpg","null","reveal","image-keyboard-response","493","1620779","0.0-6.0-4.69","2999330","co38278","norming","","","","","","",""
"null","../img/tt/1037tt.jpg","null","mooney2","image-keyboard-response","494","1622782","0.0-6.0-5.69","2999330","co38278","norming","","","","","","",""
"4371.719999995548","","","post_reveal_questions","survey-likert","495","1627157","0.0-6.0-6.69","2999330","co38278","norming","","","{""aha"":2}","[0]","../img/tt/1037tt.jpg","",""
"null","<div style=""font-size:60px;""> </div>","null","fixation","html-keyboard-response","496","1627360","0.0-6.0-0.70","2999330","co38278","norming","","","","","","",""
"null","../img/tt/111tt.jpg","null","mooney1","image-keyboard-response","497","1630364","0.0-6.0-1.70","2999330","co38278","norming","","","","","","",""
"5151.764999988023","","","post_mooney1_questions","survey-likert","498","1635520","0.0-6.0-2.70","2999330","co38278","norming","","","{""curiosity"":0,""confidence"":6}","[0,1]","../img/tt/111tt.jpg","",""
"9053.285000001779","","","recognition","survey-text","499","1644575","0.0-6.0-3.70","2999330","co38278","norming","","","{""guess"":""douchekop waar water uit komt""}","","../img/tt/111tt.jpg","",""
"null","../img/gs/111gs.jpg","null","reveal","image-keyboard-response","500","1646577","0.0-6.0-4.70","2999330","co38278","norming","","","","","","",""
"null","../img/tt/111tt.jpg","null","mooney2","image-keyboard-response","501","1648580","0.0-6.0-5.70","2999330","co38278","norming","","","","","","",""
"1953.219999995781","","","post_reveal_questions","survey-likert","502","1650536","0.0-6.0-6.70","2999330","co38278","norming","","","{""aha"":0}","[0]","../img/tt/111tt.jpg","",""
"null","<div style=""font-size:60px;""> </div>","null","fixation","html-keyboard-response","503","1650739","0.0-6.0-0.71","2999330","co38278","norming","","","","","","",""
"null","../img/tt/315tt.jpg","null","mooney1","image-keyboard-response","504","1653743","0.0-6.0-1.71","2999330","co38278","norming","","","","","","",""
"4989.03500000597","","","post_mooney1_questions","survey-likert","505","1658736","0.0-6.0-2.71","2999330","co38278","norming","","","{""curiosity"":6,""confidence"":0}","[0,1]","../img/tt/315tt.jpg","",""
"870.7949999952689","","","recognition","survey-text","506","1659609","0.0-6.0-3.71","2999330","co38278","norming","","","{""guess"":""""}","","../img/tt/315tt.jpg","",""
"null","../img/gs/315gs.jpg","null","reveal","image-keyboard-response","507","1661611","0.0-6.0-4.71","2999330","co38278","norming","","","","","","",""
"null","../img/tt/315tt.jpg","null","mooney2","image-keyboard-response","508","1663613","0.0-6.0-5.71","2999330","co38278","norming","","","","","","",""
"5126.374999992549","","","post_reveal_questions","survey-likert","509","1668742","0.0-6.0-6.71","2999330","co38278","norming","","","{""aha"":4}","[0]","../img/tt/315tt.jpg","",""
"null","<div style=""font-size:60px;""> </div>","null","fixation","html-keyboard-response","510","1668944","0.0-6.0-0.72","2999330","co38278","norming","","","","","","",""
"null","../img/tt/013tt.jpg","null","mooney1","image-keyboard-response","511","1671948","0.0-6.0-1.72","2999330","co38278","norming","","","","","","",""
"6105.554999987595","","","post_mooney1_questions","survey-likert","512","1678057","0.0-6.0-2.72","2999330","co38278","norming","","","{""curiosity"":5,""confidence"":1}","[0,1]","../img/tt/013tt.jpg","",""
"2294.15499999607","","","recognition","survey-text","513","1680354","0.0-6.0-3.72","2999330","co38278","norming","","","{""guess"":""kat""}","","../img/tt/013tt.jpg","",""
"null","../img/gs/013gs.jpg","null","reveal","image-keyboard-response","514","1682356","0.0-6.0-4.72","2999330","co38278","norming","","","","","","",""
"null","../img/tt/013tt.jpg","null","mooney2","image-keyboard-response","515","1684358","0.0-6.0-5.72","2999330","co38278","norming","","","","","","",""
"2542.279999994207","","","post_reveal_questions","survey-likert","516","1686904","0.0-6.0-6.72","2999330","co38278","norming","","","{""aha"":5}","[0]","../img/tt/013tt.jpg","",""
"null","<div style=""font-size:60px;""> </div>","null","fixation","html-keyboard-response","517","1687106","0.0-6.0-0.73","2999330","co38278","norming","","","","","","",""
"null","../img/tt/435tt.jpg","null","mooney1","image-keyboard-response","518","1690109","0.0-6.0-1.73","2999330","co38278","norming","","","","","","",""
"4033.0450000038836","","","post_mooney1_questions","survey-likert","519","1694146","0.0-6.0-2.73","2999330","co38278","norming","","","{""curiosity"":6,""confidence"":0}","[0,1]","../img/tt/435tt.jpg","",""
"1858.6400000057183","","","recognition","survey-text","520","1696007","0.0-6.0-3.73","2999330","co38278","norming","","","{""guess"":""""}","","../img/tt/435tt.jpg","",""
"null","../img/gs/435gs.jpg","null","reveal","image-keyboard-response","521","1698009","0.0-6.0-4.73","2999330","co38278","norming","","","","","","",""
"null","../img/tt/435tt.jpg","null","mooney2","image-keyboard-response","522","1700011","0.0-6.0-5.73","2999330","co38278","norming","","","","","","",""
"4194.635000007227","","","post_reveal_questions","survey-likert","523","1704209","0.0-6.0-6.73","2999330","co38278","norming","","","{""aha"":5}","[0]","../img/tt/435tt.jpg","",""
"null","<div style=""font-size:60px;""> </div>","null","fixation","html-keyboard-response","524","1704410","0.0-6.0-0.74","2999330","co38278","norming","","","","","","",""
"null","../img/tt/1046tt.jpg","null","mooney1","image-keyboard-response","525","1707414","0.0-6.0-1.74","2999330","co38278","norming","","","","","","",""
"8245.595000000205","","","post_mooney1_questions","survey-likert","526","1715663","0.0-6.0-2.74","2999330","co38278","norming","","","{""curiosity"":5,""confidence"":0}","[0,1]","../img/tt/1046tt.jpg","",""
"1497.4150000051595","","","recognition","survey-text","527","1717163","0.0-6.0-3.74","2999330","co38278","norming","","","{""guess"":""""}","","../img/tt/1046tt.jpg","",""
"null","../img/gs/1046gs.jpg","null","reveal","image-keyboard-response","528","1719166","0.0-6.0-4.74","2999330","co38278","norming","","","","","","",""
"null","../img/tt/1046tt.jpg","null","mooney2","image-keyboard-response","529","1721168","0.0-6.0-5.74","2999330","co38278","norming","","","","","","",""
"3840.530000001192","","","post_reveal_questions","survey-likert","530","1725012","0.0-6.0-6.74","2999330","co38278","norming","","","{""aha"":4}","[0]","../img/tt/1046tt.jpg","",""
"null","<div style=""font-size:60px;""> </div>","null","fixation","html-keyboard-response","531","1725213","0.0-6.0-0.75","2999330","co38278","norming","","","","","","",""
"null","../img/tt/319tt.jpg","null","mooney1","image-keyboard-response","532","1728218","0.0-6.0-1.75","2999330","co38278","norming","","","","","","",""
"3750.459999995772","","","post_mooney1_questions","survey-likert","533","1731972","0.0-6.0-2.75","2999330","co38278","norming","","","{""curiosity"":5,""confidence"":1}","[0,1]","../img/tt/319tt.jpg","",""
"5059.175000002142","","","recognition","survey-text","534","1737034","0.0-6.0-3.75","2999330","co38278","norming","","","{""guess"":""twee ezels""}","","../img/tt/319tt.jpg","",""
"null","../img/gs/319gs.jpg","null","reveal","image-keyboard-response","535","1739036","0.0-6.0-4.75","2999330","co38278","norming","","","","","","",""
"null","../img/tt/319tt.jpg","null","mooney2","image-keyboard-response","536","1741039","0.0-6.0-5.75","2999330","co38278","norming","","","","","","",""
"3887.1999999973923","","","post_reveal_questions","survey-likert","537","1744929","0.0-6.0-6.75","2999330","co38278","norming","","","{""aha"":0}","[0]","../img/tt/319tt.jpg","",""
"null","<div style=""font-size:60px;""> </div>","null","fixation","html-keyboard-response","538","1745132","0.0-6.0-0.76","2999330","co38278","norming","","","","","","",""
"null","../img/tt/008tt.jpg","null","mooney1","image-keyboard-response","539","1748137","0.0-6.0-1.76","2999330","co38278","norming","","","","","","",""
"5063.529999999329","","","post_mooney1_questions","survey-likert","540","1753204","0.0-6.0-2.76","2999330","co38278","norming","","","{""curiosity"":5,""confidence"":1}","[0,1]","../img/tt/008tt.jpg","",""
"3233.37500001071","","","recognition","survey-text","541","1756440","0.0-6.0-3.76","2999330","co38278","norming","","","{""guess"":""geweer""}","","../img/tt/008tt.jpg","",""
"null","../img/gs/008gs.jpg","null","reveal","image-keyboard-response","542","1758443","0.0-6.0-4.76","2999330","co38278","norming","","","","","","",""
"null","../img/tt/008tt.jpg","null","mooney2","image-keyboard-response","543","1760445","0.0-6.0-5.76","2999330","co38278","norming","","","","","","",""
"4860.864999995101","","","post_reveal_questions","survey-likert","544","1765309","0.0-6.0-6.76","2999330","co38278","norming","","","{""aha"":2}","[0]","../img/tt/008tt.jpg","",""
"null","<div style=""font-size:60px;""> </div>","null","fixation","html-keyboard-response","545","1765511","0.0-6.0-0.77","2999330","co38278","norming","","","","","","",""
"null","../img/tt/010tt.jpg","null","mooney1","image-keyboard-response","546","1768515","0.0-6.0-1.77","2999330","co38278","norming","","","","","","",""
"7033.300000010058","","","post_mooney1_questions","survey-likert","547","1775552","0.0-6.0-2.77","2999330","co38278","norming","","","{""curiosity"":4,""confidence"":0}","[0,1]","../img/tt/010tt.jpg","",""
"2429.2399999976624","","","recognition","survey-text","548","1777984","0.0-6.0-3.77","2999330","co38278","norming","","","{""guess"":""""}","","../img/tt/010tt.jpg","",""
"null","../img/gs/010gs.jpg","null","reveal","image-keyboard-response","549","1779986","0.0-6.0-4.77","2999330","co38278","norming","","","","","","",""
"null","../img/tt/010tt.jpg","null","mooney2","image-keyboard-response","550","1781989","0.0-6.0-5.77","2999330","co38278","norming","","","","","","",""
