"rt","stimulus","key_press","test_part","trial_type","trial_index","time_elapsed","internal_node_id","totalTime","subject","experiment_name","button_pressed","success","responses","question_order","currentStim","old","correct"
"22352.000000000004","Welcome to the experiment. This is an online experiment so please don't close the tab/window until we say goodbye.  Press any key to begin.","32","instructions","html-keyboard-response","0","22375","0.0-0.0","3146596","co38305","norming","","","","","","",""
"54934","<div style='word-wrap: break-word; width: 900px'><h3>Please consider this information carefully before deciding whether to participate in this research</h3><ul style='text-align: left; font-size: .8em;'><li><b>Purpose of the research</b>: To examine how people process images.</li><li><b>What you will do in this research</b>:  Stimuli (images) will be presented on the computer and you will be asked different questions about them.</li><li><b>Time required</b>: Participation will take between 45 and 60 minutes to complete.</li><li><b>Risks</b>:  There are no anticipated risks associated with participating in this study. The effects of participating should be comparable to those you would experience from viewing a computer monitor for 30 minutes and using a mouse or keyboard.</li><li><b>Benefits</b>:  This study provides no benefits to you individually except for the credit. The study provides important information about the nature of perception and learning.</li><li><b>Confidentiality</b>:  Your participation in this study will remain confidential. No personally identifiable information will be associated with your data. Your de-identified data may be shared with other researchers and used in future projects.</li><li><b>Participation and withdrawal</b>:  Your participation in this study is completely voluntary and you may refuse to participate or you may choose to withdraw at any time without penalty.</li><li><b>How to contact the researchers</b>: If you have questions or concerns about your participation or payment, or want to request a summary of research findings, please contact Sander Van de Cruys (KU Leuven), at sander.vandecruys@kuleuven.be.</li></ul><p>The nature and purpose of this research have been sufficiently explained and I agree to participate in this study.  I understand that I am free to withdraw at any time without incurring any penalty.</p><p>Please consent by clicking the button below to continue. Otherwise, please exit the study at this time.</p></div>","","instructions","html-button-response","1","77313","0.0-1.0","3146596","co38305","norming","0","","","","","",""
"","","","instructions","fullscreen","2","84073","0.0-2.0","3146596","co38305","norming","","true","","","","",""
"29456.999999999985","","","sona","survey-html-form","3","113534","0.0-3.0","3146596","co38305","norming","","","[{""name"":""sonaid"",""value"":""38305""},{""name"":""debrief"",""value"":""no""},{""name"":""datajoin"",""value"":""yes""}]","","","",""
"87901","<div style='word-wrap: break-word; width: 900px'><h3>Instructions</h3><p>This experiment will have 3 parts. In the first part you will see a series of distorted images like the one below on the left. As you can see in the righthand image, the distorted images are derived from actual photographs. In what follows, you will <strong>briefly</strong> be presented with <strong>only</strong> the distorted image.</p> <div style='float: left; margin-right: 20px;'><img src='../img/018tt.jpg' height='250' width='250'></img></div><div style='float: right; margin-left: 20px;'><img src='../img/018gs.jpg' height='250' width='250'></img></div><p>Subsequently you will be asked a few questions about the image: One question on how <strong>curious</strong> you are about the solution and one on how <strong>confident</strong> you are that you know the solution.</p>Next, we ask you to make a guess on what is in the image. Note that it is OK to name just the <strong>basic level category</strong>. For example when you see a parrot in the image, 'parrot' will obviously be a correct answer but also correct is 'bird'. However, 'animal' will <strong>not</strong> be counted as a correct response. For the example above, 'rose' would be correct or 'flower', but not 'plant'. When soccer players are depicted, 'soccer', 'football', 'soccer players' will be correct, but not 'humans', 'outdoors', or 'sports'. You do not need to describe the image in full, just name the main object in it <strong>in one or two words</strong>. All images depict objects from one of the following broad level categories: animals, inanimate objects, plants, sports, vehicles, and food. Recognizing means knowing <strong>more</strong> than these broad labels for a given image. But we always encourage you to <strong>make a guess</strong> if you can. Note that you are allowed to use <strong>Dutch and English</strong> in your answers, whatever comes easiest for you.</p><p>Press any key to continue.</p></div>","32","instructions","html-keyboard-response","4","201439","0.0-4.0","3146596","co38305","norming","","","","","","",""
"3254","<div style='word-wrap: break-word; width: 900px'><h3>Instructions</h3> <p>Next, the solution image will be revealed to you and you'll be asked to indicate how strong your <strong>aha-experience</strong> was after seeing the solution. This describes the positive feeling of the 'click' you sometimes experience, when the pieces of the 'puzzle' fall together and you suddenly have 'insight' in the image.</p><img src='aha.jpg' height='188' width='250'></img><p>Note that there are no right or wrong answers. We are interested in what <strong>you</strong> see in the image and how <strong>you</strong> feel about it.</p><p>Press any key to start the experiment.</p></div>","32","instructions","html-keyboard-response","5","204695","0.0-5.0","3146596","co38305","norming","","","","","","",""
"null","<div style=""font-size:60px;""> </div>","null","fixation","html-keyboard-response","6","204896","0.0-6.0-0.0","3146596","co38305","norming","","","","","","",""
"null","../img/tt/1118tt.jpg","null","mooney1","image-keyboard-response","7","207899","0.0-6.0-1.0","3146596","co38305","norming","","","","","","",""
"22873","","","post_mooney1_questions","survey-likert","8","230775","0.0-6.0-2.0","3146596","co38305","norming","","","{""curiosity"":6,""confidence"":0}","[0,1]","../img/tt/1118tt.jpg","",""
"7197","","","recognition","survey-text","9","237981","0.0-6.0-3.0","3146596","co38305","norming","","","{""guess"":""""}","","../img/tt/1118tt.jpg","",""
"null","../img/gs/1118gs.jpg","null","reveal","image-keyboard-response","10","239984","0.0-6.0-4.0","3146596","co38305","norming","","","","","","",""
"null","../img/tt/1118tt.jpg","null","mooney2","image-keyboard-response","11","241985","0.0-6.0-5.0","3146596","co38305","norming","","","","","","",""
"6308","","","post_reveal_questions","survey-likert","12","248295","0.0-6.0-6.0","3146596","co38305","norming","","","{""aha"":4}","[0]","../img/tt/1118tt.jpg","",""
"null","<div style=""font-size:60px;""> </div>","null","fixation","html-keyboard-response","13","248499","0.0-6.0-0.1","3146596","co38305","norming","","","","","","",""
"null","../img/tt/1262tt.jpg","null","mooney1","image-keyboard-response","14","251501","0.0-6.0-1.1","3146596","co38305","norming","","","","","","",""
"15841","","","post_mooney1_questions","survey-likert","15","267344","0.0-6.0-2.1","3146596","co38305","norming","","","{""curiosity"":5,""confidence"":0}","[0,1]","../img/tt/1262tt.jpg","",""
"2552","","","recognition","survey-text","16","269907","0.0-6.0-3.1","3146596","co38305","norming","","","{""guess"":""lizard""}","","../img/tt/1262tt.jpg","",""
"null","../img/gs/1262gs.jpg","null","reveal","image-keyboard-response","17","271908","0.0-6.0-4.1","3146596","co38305","norming","","","","","","",""
"null","../img/tt/1262tt.jpg","null","mooney2","image-keyboard-response","18","273910","0.0-6.0-5.1","3146596","co38305","norming","","","","","","",""
"3230","","","post_reveal_questions","survey-likert","19","277142","0.0-6.0-6.1","3146596","co38305","norming","","","{""aha"":5}","[0]","../img/tt/1262tt.jpg","",""
"null","<div style=""font-size:60px;""> </div>","null","fixation","html-keyboard-response","20","277345","0.0-6.0-0.2","3146596","co38305","norming","","","","","","",""
"null","../img/tt/378tt.jpg","null","mooney1","image-keyboard-response","21","280348","0.0-6.0-1.2","3146596","co38305","norming","","","","","","",""
"7623","","","post_mooney1_questions","survey-likert","22","287973","0.0-6.0-2.2","3146596","co38305","norming","","","{""curiosity"":5,""confidence"":1}","[0,1]","../img/tt/378tt.jpg","",""
"2341.000000000058","","","recognition","survey-text","23","290324","0.0-6.0-3.2","3146596","co38305","norming","","","{""guess"":""woman""}","","../img/tt/378tt.jpg","",""
"null","../img/gs/378gs.jpg","null","reveal","image-keyboard-response","24","292326","0.0-6.0-4.2","3146596","co38305","norming","","","","","","",""
"null","../img/tt/378tt.jpg","null","mooney2","image-keyboard-response","25","294329","0.0-6.0-5.2","3146596","co38305","norming","","","","","","",""
"4007","","","post_reveal_questions","survey-likert","26","298337","0.0-6.0-6.2","3146596","co38305","norming","","","{""aha"":3}","[0]","../img/tt/378tt.jpg","",""
"null","<div style=""font-size:60px;""> </div>","null","fixation","html-keyboard-response","27","298540","0.0-6.0-0.3","3146596","co38305","norming","","","","","","",""
"null","../img/tt/184tt.jpg","null","mooney1","image-keyboard-response","28","301542","0.0-6.0-1.3","3146596","co38305","norming","","","","","","",""
"3886","","","post_mooney1_questions","survey-likert","29","305428","0.0-6.0-2.3","3146596","co38305","norming","","","{""curiosity"":5,""confidence"":1}","[0,1]","../img/tt/184tt.jpg","",""
"9864.000000000058","","","recognition","survey-text","30","315301","0.0-6.0-3.3","3146596","co38305","norming","","","{""guess"":""beer""}","","../img/tt/184tt.jpg","",""
"null","../img/gs/184gs.jpg","null","reveal","image-keyboard-response","31","317304","0.0-6.0-4.3","3146596","co38305","norming","","","","","","",""
"null","../img/tt/184tt.jpg","null","mooney2","image-keyboard-response","32","319306","0.0-6.0-5.3","3146596","co38305","norming","","","","","","",""
"4545","","","post_reveal_questions","survey-likert","33","323854","0.0-6.0-6.3","3146596","co38305","norming","","","{""aha"":2}","[0]","../img/tt/184tt.jpg","",""
"null","<div style=""font-size:60px;""> </div>","null","fixation","html-keyboard-response","34","324057","0.0-6.0-0.4","3146596","co38305","norming","","","","","","",""
"null","../img/tt/001tt.jpg","null","mooney1","image-keyboard-response","35","327059","0.0-6.0-1.4","3146596","co38305","norming","","","","","","",""
"20383","","","post_mooney1_questions","survey-likert","36","347445","0.0-6.0-2.4","3146596","co38305","norming","","","{""curiosity"":3,""confidence"":1}","[0,1]","../img/tt/001tt.jpg","",""
"5661","","","recognition","survey-text","37","353116","0.0-6.0-3.4","3146596","co38305","norming","","","{""guess"":""cat""}","","../img/tt/001tt.jpg","",""
"null","../img/gs/001gs.jpg","null","reveal","image-keyboard-response","38","355118","0.0-6.0-4.4","3146596","co38305","norming","","","","","","",""
"null","../img/tt/001tt.jpg","null","mooney2","image-keyboard-response","39","357120","0.0-6.0-5.4","3146596","co38305","norming","","","","","","",""
"3678","","","post_reveal_questions","survey-likert","40","360799","0.0-6.0-6.4","3146596","co38305","norming","","","{""aha"":0}","[0]","../img/tt/001tt.jpg","",""
"null","<div style=""font-size:60px;""> </div>","null","fixation","html-keyboard-response","41","361003","0.0-6.0-0.5","3146596","co38305","norming","","","","","","",""
"null","../img/tt/1171tt.jpg","null","mooney1","image-keyboard-response","42","364005","0.0-6.0-1.5","3146596","co38305","norming","","","","","","",""
"5350","","","post_mooney1_questions","survey-likert","43","369357","0.0-6.0-2.5","3146596","co38305","norming","","","{""curiosity"":6,""confidence"":1}","[0,1]","../img/tt/1171tt.jpg","",""
"2512","","","recognition","survey-text","44","371877","0.0-6.0-3.5","3146596","co38305","norming","","","{""guess"":""ghost""}","","../img/tt/1171tt.jpg","",""
"null","../img/gs/1171gs.jpg","null","reveal","image-keyboard-response","45","373880","0.0-6.0-4.5","3146596","co38305","norming","","","","","","",""
"null","../img/tt/1171tt.jpg","null","mooney2","image-keyboard-response","46","375882","0.0-6.0-5.5","3146596","co38305","norming","","","","","","",""
"2994","","","post_reveal_questions","survey-likert","47","378878","0.0-6.0-6.5","3146596","co38305","norming","","","{""aha"":1}","[0]","../img/tt/1171tt.jpg","",""
"null","<div style=""font-size:60px;""> </div>","null","fixation","html-keyboard-response","48","379081","0.0-6.0-0.6","3146596","co38305","norming","","","","","","",""
"null","../img/tt/085tt.jpg","null","mooney1","image-keyboard-response","49","382083","0.0-6.0-1.6","3146596","co38305","norming","","","","","","",""
"6072","","","post_mooney1_questions","survey-likert","50","388158","0.0-6.0-2.6","3146596","co38305","norming","","","{""curiosity"":5,""confidence"":1}","[0,1]","../img/tt/085tt.jpg","",""
"4790","","","recognition","survey-text","51","392957","0.0-6.0-3.6","3146596","co38305","norming","","","{""guess"":""butterfly""}","","../img/tt/085tt.jpg","",""
"null","../img/gs/085gs.jpg","null","reveal","image-keyboard-response","52","394960","0.0-6.0-4.6","3146596","co38305","norming","","","","","","",""
"null","../img/tt/085tt.jpg","null","mooney2","image-keyboard-response","53","396962","0.0-6.0-5.6","3146596","co38305","norming","","","","","","",""
"4697","","","post_reveal_questions","survey-likert","54","401660","0.0-6.0-6.6","3146596","co38305","norming","","","{""aha"":2}","[0]","../img/tt/085tt.jpg","",""
"null","<div style=""font-size:60px;""> </div>","null","fixation","html-keyboard-response","55","401863","0.0-6.0-0.7","3146596","co38305","norming","","","","","","",""
"null","../img/tt/044tt.jpg","null","mooney1","image-keyboard-response","56","404865","0.0-6.0-1.7","3146596","co38305","norming","","","","","","",""
"9687.000000000058","","","post_mooney1_questions","survey-likert","57","414554","0.0-6.0-2.7","3146596","co38305","norming","","","{""curiosity"":4,""confidence"":1}","[0,1]","../img/tt/044tt.jpg","",""
"10370","","","recognition","survey-text","58","424933","0.0-6.0-3.7","3146596","co38305","norming","","","{""guess"":""man""}","","../img/tt/044tt.jpg","",""
"null","../img/gs/044gs.jpg","null","reveal","image-keyboard-response","59","426936","0.0-6.0-4.7","3146596","co38305","norming","","","","","","",""
"null","../img/tt/044tt.jpg","null","mooney2","image-keyboard-response","60","428938","0.0-6.0-5.7","3146596","co38305","norming","","","","","","",""
"4104","","","post_reveal_questions","survey-likert","61","433044","0.0-6.0-6.7","3146596","co38305","norming","","","{""aha"":1}","[0]","../img/tt/044tt.jpg","",""
"null","<div style=""font-size:60px;""> </div>","null","fixation","html-keyboard-response","62","433247","0.0-6.0-0.8","3146596","co38305","norming","","","","","","",""
"null","../img/tt/1309tt.jpg","null","mooney1","image-keyboard-response","63","436250","0.0-6.0-1.8","3146596","co38305","norming","","","","","","",""
"5960.000000000058","","","post_mooney1_questions","survey-likert","64","442211","0.0-6.0-2.8","3146596","co38305","norming","","","{""curiosity"":3,""confidence"":2}","[0,1]","../img/tt/1309tt.jpg","",""
"1904","","","recognition","survey-text","65","444124","0.0-6.0-3.8","3146596","co38305","norming","","","{""guess"":""car""}","","../img/tt/1309tt.jpg","",""
"null","../img/gs/1309gs.jpg","null","reveal","image-keyboard-response","66","446125","0.0-6.0-4.8","3146596","co38305","norming","","","","","","",""
"null","../img/tt/1309tt.jpg","null","mooney2","image-keyboard-response","67","448127","0.0-6.0-5.8","3146596","co38305","norming","","","","","","",""
"2025","","","post_reveal_questions","survey-likert","68","450154","0.0-6.0-6.8","3146596","co38305","norming","","","{""aha"":2}","[0]","../img/tt/1309tt.jpg","",""
"null","<div style=""font-size:60px;""> </div>","null","fixation","html-keyboard-response","69","450358","0.0-6.0-0.9","3146596","co38305","norming","","","","","","",""
"null","../img/tt/584tt.jpg","null","mooney1","image-keyboard-response","70","453360","0.0-6.0-1.9","3146596","co38305","norming","","","","","","",""
"10655","","","post_mooney1_questions","survey-likert","71","464017","0.0-6.0-2.9","3146596","co38305","norming","","","{""curiosity"":6,""confidence"":1}","[0,1]","../img/tt/584tt.jpg","",""
"7966.999999999942","","","recognition","survey-text","72","471994","0.0-6.0-3.9","3146596","co38305","norming","","","{""guess"":""hands ""}","","../img/tt/584tt.jpg","",""
"null","../img/gs/584gs.jpg","null","reveal","image-keyboard-response","73","473996","0.0-6.0-4.9","3146596","co38305","norming","","","","","","",""
"null","../img/tt/584tt.jpg","null","mooney2","image-keyboard-response","74","475999","0.0-6.0-5.9","3146596","co38305","norming","","","","","","",""
"5055.000000000058","","","post_reveal_questions","survey-likert","75","481057","0.0-6.0-6.9","3146596","co38305","norming","","","{""aha"":4}","[0]","../img/tt/584tt.jpg","",""
"null","<div style=""font-size:60px;""> </div>","null","fixation","html-keyboard-response","76","481260","0.0-6.0-0.10","3146596","co38305","norming","","","","","","",""
"null","../img/tt/1255tt.jpg","null","mooney1","image-keyboard-response","77","484261","0.0-6.0-1.10","3146596","co38305","norming","","","","","","",""
"4065","","","post_mooney1_questions","survey-likert","78","488328","0.0-6.0-2.10","3146596","co38305","norming","","","{""curiosity"":6,""confidence"":0}","[0,1]","../img/tt/1255tt.jpg","",""
"3252","","","recognition","survey-text","79","491589","0.0-6.0-3.10","3146596","co38305","norming","","","{""guess"":""woods""}","","../img/tt/1255tt.jpg","",""
"null","../img/gs/1255gs.jpg","null","reveal","image-keyboard-response","80","493591","0.0-6.0-4.10","3146596","co38305","norming","","","","","","",""
"null","../img/tt/1255tt.jpg","null","mooney2","image-keyboard-response","81","495594","0.0-6.0-5.10","3146596","co38305","norming","","","","","","",""
"2054","","","post_reveal_questions","survey-likert","82","497648","0.0-6.0-6.10","3146596","co38305","norming","","","{""aha"":0}","[0]","../img/tt/1255tt.jpg","",""
"null","<div style=""font-size:60px;""> </div>","null","fixation","html-keyboard-response","83","497851","0.0-6.0-0.11","3146596","co38305","norming","","","","","","",""
"null","../img/tt/1283tt.jpg","null","mooney1","image-keyboard-response","84","500854","0.0-6.0-1.11","3146596","co38305","norming","","","","","","",""
"4363","","","post_mooney1_questions","survey-likert","85","505219","0.0-6.0-2.11","3146596","co38305","norming","","","{""curiosity"":5,""confidence"":0}","[0,1]","../img/tt/1283tt.jpg","",""
"1431.0000000000582","","","recognition","survey-text","86","506659","0.0-6.0-3.11","3146596","co38305","norming","","","{""guess"":""""}","","../img/tt/1283tt.jpg","",""
"null","../img/gs/1283gs.jpg","null","reveal","image-keyboard-response","87","508661","0.0-6.0-4.11","3146596","co38305","norming","","","","","","",""
"null","../img/tt/1283tt.jpg","null","mooney2","image-keyboard-response","88","510664","0.0-6.0-5.11","3146596","co38305","norming","","","","","","",""
"2073.999999999942","","","post_reveal_questions","survey-likert","89","512740","0.0-6.0-6.11","3146596","co38305","norming","","","{""aha"":1}","[0]","../img/tt/1283tt.jpg","",""
"null","<div style=""font-size:60px;""> </div>","null","fixation","html-keyboard-response","90","512943","0.0-6.0-0.12","3146596","co38305","norming","","","","","","",""
"null","../img/tt/1053tt.jpg","null","mooney1","image-keyboard-response","91","515945","0.0-6.0-1.12","3146596","co38305","norming","","","","","","",""
"4763","","","post_mooney1_questions","survey-likert","92","520711","0.0-6.0-2.12","3146596","co38305","norming","","","{""curiosity"":4,""confidence"":2}","[0,1]","../img/tt/1053tt.jpg","",""
"7528","","","recognition","survey-text","93","528247","0.0-6.0-3.12","3146596","co38305","norming","","","{""guess"":""olifant""}","","../img/tt/1053tt.jpg","",""
"null","../img/gs/1053gs.jpg","null","reveal","image-keyboard-response","94","530249","0.0-6.0-4.12","3146596","co38305","norming","","","","","","",""
"null","../img/tt/1053tt.jpg","null","mooney2","image-keyboard-response","95","532251","0.0-6.0-5.12","3146596","co38305","norming","","","","","","",""
"3366","","","post_reveal_questions","survey-likert","96","535618","0.0-6.0-6.12","3146596","co38305","norming","","","{""aha"":3}","[0]","../img/tt/1053tt.jpg","",""
"null","<div style=""font-size:60px;""> </div>","null","fixation","html-keyboard-response","97","535822","0.0-6.0-0.13","3146596","co38305","norming","","","","","","",""
"null","../img/tt/008tt.jpg","null","mooney1","image-keyboard-response","98","538824","0.0-6.0-1.13","3146596","co38305","norming","","","","","","",""
"8000","","","post_mooney1_questions","survey-likert","99","546826","0.0-6.0-2.13","3146596","co38305","norming","","","{""curiosity"":5,""confidence"":1}","[0,1]","../img/tt/008tt.jpg","",""
"2278","","","recognition","survey-text","100","549113","0.0-6.0-3.13","3146596","co38305","norming","","","{""guess"":""gun""}","","../img/tt/008tt.jpg","",""
"null","../img/gs/008gs.jpg","null","reveal","image-keyboard-response","101","551116","0.0-6.0-4.13","3146596","co38305","norming","","","","","","",""
"null","../img/tt/008tt.jpg","null","mooney2","image-keyboard-response","102","553118","0.0-6.0-5.13","3146596","co38305","norming","","","","","","",""
"3311","","","post_reveal_questions","survey-likert","103","556430","0.0-6.0-6.13","3146596","co38305","norming","","","{""aha"":2}","[0]","../img/tt/008tt.jpg","",""
"null","<div style=""font-size:60px;""> </div>","null","fixation","html-keyboard-response","104","556634","0.0-6.0-0.14","3146596","co38305","norming","","","","","","",""
"null","../img/tt/296tt.jpg","null","mooney1","image-keyboard-response","105","559636","0.0-6.0-1.14","3146596","co38305","norming","","","","","","",""
"9640","","","post_mooney1_questions","survey-likert","106","569278","0.0-6.0-2.14","3146596","co38305","norming","","","{""curiosity"":5,""confidence"":1}","[0,1]","../img/tt/296tt.jpg","",""
"4213","","","recognition","survey-text","107","573500","0.0-6.0-3.14","3146596","co38305","norming","","","{""guess"":""watching tv""}","","../img/tt/296tt.jpg","",""
"null","../img/gs/296gs.jpg","null","reveal","image-keyboard-response","108","575502","0.0-6.0-4.14","3146596","co38305","norming","","","","","","",""
"null","../img/tt/296tt.jpg","null","mooney2","image-keyboard-response","109","577504","0.0-6.0-5.14","3146596","co38305","norming","","","","","","",""
"3430.0000000001164","","","post_reveal_questions","survey-likert","110","580935","0.0-6.0-6.14","3146596","co38305","norming","","","{""aha"":4}","[0]","../img/tt/296tt.jpg","",""
"null","<div style=""font-size:60px;""> </div>","null","fixation","html-keyboard-response","111","581139","0.0-6.0-0.15","3146596","co38305","norming","","","","","","",""
"null","../img/tt/1142tt.jpg","null","mooney1","image-keyboard-response","112","584141","0.0-6.0-1.15","3146596","co38305","norming","","","","","","",""
"5799","","","post_mooney1_questions","survey-likert","113","589942","0.0-6.0-2.15","3146596","co38305","norming","","","{""curiosity"":4,""confidence"":2}","[0,1]","../img/tt/1142tt.jpg","",""
"1969","","","recognition","survey-text","114","591920","0.0-6.0-3.15","3146596","co38305","norming","","","{""guess"":""tennis""}","","../img/tt/1142tt.jpg","",""
"null","../img/gs/1142gs.jpg","null","reveal","image-keyboard-response","115","593923","0.0-6.0-4.15","3146596","co38305","norming","","","","","","",""
"null","../img/tt/1142tt.jpg","null","mooney2","image-keyboard-response","116","595925","0.0-6.0-5.15","3146596","co38305","norming","","","","","","",""
"4256","","","post_reveal_questions","survey-likert","117","600183","0.0-6.0-6.15","3146596","co38305","norming","","","{""aha"":3}","[0]","../img/tt/1142tt.jpg","",""
"null","<div style=""font-size:60px;""> </div>","null","fixation","html-keyboard-response","118","600386","0.0-6.0-0.16","3146596","co38305","norming","","","","","","",""
"null","../img/tt/599tt.jpg","null","mooney1","image-keyboard-response","119","603387","0.0-6.0-1.16","3146596","co38305","norming","","","","","","",""
"3834","","","post_mooney1_questions","survey-likert","120","607223","0.0-6.0-2.16","3146596","co38305","norming","","","{""curiosity"":5,""confidence"":1}","[0,1]","../img/tt/599tt.jpg","",""
"4119","","","recognition","survey-text","121","611349","0.0-6.0-3.16","3146596","co38305","norming","","","{""guess"":""butterfly""}","","../img/tt/599tt.jpg","",""
"null","../img/gs/599gs.jpg","null","reveal","image-keyboard-response","122","613351","0.0-6.0-4.16","3146596","co38305","norming","","","","","","",""
"null","../img/tt/599tt.jpg","null","mooney2","image-keyboard-response","123","615352","0.0-6.0-5.16","3146596","co38305","norming","","","","","","",""
"5912","","","post_reveal_questions","survey-likert","124","621266","0.0-6.0-6.16","3146596","co38305","norming","","","{""aha"":1}","[0]","../img/tt/599tt.jpg","",""
"null","<div style=""font-size:60px;""> </div>","null","fixation","html-keyboard-response","125","621468","0.0-6.0-0.17","3146596","co38305","norming","","","","","","",""
"null","../img/tt/1006tt.jpg","null","mooney1","image-keyboard-response","126","624470","0.0-6.0-1.17","3146596","co38305","norming","","","","","","",""
"4596","","","post_mooney1_questions","survey-likert","127","629068","0.0-6.0-2.17","3146596","co38305","norming","","","{""curiosity"":3,""confidence"":2}","[0,1]","../img/tt/1006tt.jpg","",""
"1971","","","recognition","survey-text","128","631047","0.0-6.0-3.17","3146596","co38305","norming","","","{""guess"":""koe""}","","../img/tt/1006tt.jpg","",""
"null","../img/gs/1006gs.jpg","null","reveal","image-keyboard-response","129","633050","0.0-6.0-4.17","3146596","co38305","norming","","","","","","",""
"null","../img/tt/1006tt.jpg","null","mooney2","image-keyboard-response","130","635052","0.0-6.0-5.17","3146596","co38305","norming","","","","","","",""
"4296","","","post_reveal_questions","survey-likert","131","639350","0.0-6.0-6.17","3146596","co38305","norming","","","{""aha"":4}","[0]","../img/tt/1006tt.jpg","",""
"null","<div style=""font-size:60px;""> </div>","null","fixation","html-keyboard-response","132","639553","0.0-6.0-0.18","3146596","co38305","norming","","","","","","",""
"null","../img/tt/1101tt.jpg","null","mooney1","image-keyboard-response","133","642554","0.0-6.0-1.18","3146596","co38305","norming","","","","","","",""
"13723","","","post_mooney1_questions","survey-likert","134","656279","0.0-6.0-2.18","3146596","co38305","norming","","","{""curiosity"":6,""confidence"":1}","[0,1]","../img/tt/1101tt.jpg","",""
"3189","","","recognition","survey-text","135","659474","0.0-6.0-3.18","3146596","co38305","norming","","","{""guess"":""two men""}","","../img/tt/1101tt.jpg","",""
"null","../img/gs/1101gs.jpg","null","reveal","image-keyboard-response","136","661476","0.0-6.0-4.18","3146596","co38305","norming","","","","","","",""
"null","../img/tt/1101tt.jpg","null","mooney2","image-keyboard-response","137","663477","0.0-6.0-5.18","3146596","co38305","norming","","","","","","",""
"3524","","","post_reveal_questions","survey-likert","138","667003","0.0-6.0-6.18","3146596","co38305","norming","","","{""aha"":1}","[0]","../img/tt/1101tt.jpg","",""
"null","<div style=""font-size:60px;""> </div>","null","fixation","html-keyboard-response","139","667206","0.0-6.0-0.19","3146596","co38305","norming","","","","","","",""
"null","../img/tt/580tt.jpg","null","mooney1","image-keyboard-response","140","670209","0.0-6.0-1.19","3146596","co38305","norming","","","","","","",""
"10213","","","post_mooney1_questions","survey-likert","141","680424","0.0-6.0-2.19","3146596","co38305","norming","","","{""curiosity"":5,""confidence"":1}","[0,1]","../img/tt/580tt.jpg","",""
"1698.9999999998836","","","recognition","survey-text","142","682132","0.0-6.0-3.19","3146596","co38305","norming","","","{""guess"":""owl""}","","../img/tt/580tt.jpg","",""
"null","../img/gs/580gs.jpg","null","reveal","image-keyboard-response","143","684134","0.0-6.0-4.19","3146596","co38305","norming","","","","","","",""
"null","../img/tt/580tt.jpg","null","mooney2","image-keyboard-response","144","686137","0.0-6.0-5.19","3146596","co38305","norming","","","","","","",""
"6212","","","post_reveal_questions","survey-likert","145","692351","0.0-6.0-6.19","3146596","co38305","norming","","","{""aha"":0}","[0]","../img/tt/580tt.jpg","",""
"null","<div style=""font-size:60px;""> </div>","null","fixation","html-keyboard-response","146","692554","0.0-6.0-0.20","3146596","co38305","norming","","","","","","",""
"null","../img/tt/112tt.jpg","null","mooney1","image-keyboard-response","147","695556","0.0-6.0-1.20","3146596","co38305","norming","","","","","","",""
"11864","","","post_mooney1_questions","survey-likert","148","707422","0.0-6.0-2.20","3146596","co38305","norming","","","{""curiosity"":6,""confidence"":1}","[0,1]","../img/tt/112tt.jpg","",""
"1759","","","recognition","survey-text","149","709187","0.0-6.0-3.20","3146596","co38305","norming","","","{""guess"":""gun""}","","../img/tt/112tt.jpg","",""
"null","../img/gs/112gs.jpg","null","reveal","image-keyboard-response","150","711189","0.0-6.0-4.20","3146596","co38305","norming","","","","","","",""
"null","../img/tt/112tt.jpg","null","mooney2","image-keyboard-response","151","713190","0.0-6.0-5.20","3146596","co38305","norming","","","","","","",""
"4222","","","post_reveal_questions","survey-likert","152","717413","0.0-6.0-6.20","3146596","co38305","norming","","","{""aha"":4}","[0]","../img/tt/112tt.jpg","",""
"null","<div style=""font-size:60px;""> </div>","null","fixation","html-keyboard-response","153","717616","0.0-6.0-0.21","3146596","co38305","norming","","","","","","",""
"null","../img/tt/1087tt.jpg","null","mooney1","image-keyboard-response","154","720617","0.0-6.0-1.21","3146596","co38305","norming","","","","","","",""
"2980","","","post_mooney1_questions","survey-likert","155","723599","0.0-6.0-2.21","3146596","co38305","norming","","","{""curiosity"":6,""confidence"":0}","[0,1]","../img/tt/1087tt.jpg","",""
"926","","","recognition","survey-text","156","724532","0.0-6.0-3.21","3146596","co38305","norming","","","{""guess"":""""}","","../img/tt/1087tt.jpg","",""
"null","../img/gs/1087gs.jpg","null","reveal","image-keyboard-response","157","726535","0.0-6.0-4.21","3146596","co38305","norming","","","","","","",""
"null","../img/tt/1087tt.jpg","null","mooney2","image-keyboard-response","158","728537","0.0-6.0-5.21","3146596","co38305","norming","","","","","","",""
"4104","","","post_reveal_questions","survey-likert","159","732643","0.0-6.0-6.21","3146596","co38305","norming","","","{""aha"":3}","[0]","../img/tt/1087tt.jpg","",""
"null","<div style=""font-size:60px;""> </div>","null","fixation","html-keyboard-response","160","732844","0.0-6.0-0.22","3146596","co38305","norming","","","","","","",""
"null","../img/tt/064tt.jpg","null","mooney1","image-keyboard-response","161","735846","0.0-6.0-1.22","3146596","co38305","norming","","","","","","",""
"6263","","","post_mooney1_questions","survey-likert","162","742111","0.0-6.0-2.22","3146596","co38305","norming","","","{""curiosity"":5,""confidence"":1}","[0,1]","../img/tt/064tt.jpg","",""
"2260","","","recognition","survey-text","163","744380","0.0-6.0-3.22","3146596","co38305","norming","","","{""guess"":""schildpad""}","","../img/tt/064tt.jpg","",""
"null","../img/gs/064gs.jpg","null","reveal","image-keyboard-response","164","746383","0.0-6.0-4.22","3146596","co38305","norming","","","","","","",""
"null","../img/tt/064tt.jpg","null","mooney2","image-keyboard-response","165","748385","0.0-6.0-5.22","3146596","co38305","norming","","","","","","",""
"2739","","","post_reveal_questions","survey-likert","166","751125","0.0-6.0-6.22","3146596","co38305","norming","","","{""aha"":2}","[0]","../img/tt/064tt.jpg","",""
"null","<div style=""font-size:60px;""> </div>","null","fixation","html-keyboard-response","167","751328","0.0-6.0-0.23","3146596","co38305","norming","","","","","","",""
"null","../img/tt/1234tt.jpg","null","mooney1","image-keyboard-response","168","754331","0.0-6.0-1.23","3146596","co38305","norming","","","","","","",""
"3750","","","post_mooney1_questions","survey-likert","169","758082","0.0-6.0-2.23","3146596","co38305","norming","","","{""curiosity"":4,""confidence"":1}","[0,1]","../img/tt/1234tt.jpg","",""
"1638","","","recognition","survey-text","170","759729","0.0-6.0-3.23","3146596","co38305","norming","","","{""guess"":""lake""}","","../img/tt/1234tt.jpg","",""
"null","../img/gs/1234gs.jpg","null","reveal","image-keyboard-response","171","761731","0.0-6.0-4.23","3146596","co38305","norming","","","","","","",""
"null","../img/tt/1234tt.jpg","null","mooney2","image-keyboard-response","172","763733","0.0-6.0-5.23","3146596","co38305","norming","","","","","","",""
"5270.999999999884","","","post_reveal_questions","survey-likert","173","769005","0.0-6.0-6.23","3146596","co38305","norming","","","{""aha"":0}","[0]","../img/tt/1234tt.jpg","",""
"null","<div style=""font-size:60px;""> </div>","null","fixation","html-keyboard-response","174","769209","0.0-6.0-0.24","3146596","co38305","norming","","","","","","",""
"null","../img/tt/1232tt.jpg","null","mooney1","image-keyboard-response","175","772210","0.0-6.0-1.24","3146596","co38305","norming","","","","","","",""
"6437","","","post_mooney1_questions","survey-likert","176","778649","0.0-6.0-2.24","3146596","co38305","norming","","","{""curiosity"":6,""confidence"":1}","[0,1]","../img/tt/1232tt.jpg","",""
"3241.9999999998836","","","recognition","survey-text","177","781900","0.0-6.0-3.24","3146596","co38305","norming","","","{""guess"":""zeeschildpad""}","","../img/tt/1232tt.jpg","",""
"null","../img/gs/1232gs.jpg","null","reveal","image-keyboard-response","178","783902","0.0-6.0-4.24","3146596","co38305","norming","","","","","","",""
"null","../img/tt/1232tt.jpg","null","mooney2","image-keyboard-response","179","785904","0.0-6.0-5.24","3146596","co38305","norming","","","","","","",""
"3640","","","post_reveal_questions","survey-likert","180","789546","0.0-6.0-6.24","3146596","co38305","norming","","","{""aha"":4}","[0]","../img/tt/1232tt.jpg","",""
"null","<div style=""font-size:60px;""> </div>","null","fixation","html-keyboard-response","181","789750","0.0-6.0-0.25","3146596","co38305","norming","","","","","","",""
"null","../img/tt/118tt.jpg","null","mooney1","image-keyboard-response","182","792752","0.0-6.0-1.25","3146596","co38305","norming","","","","","","",""
"4155","","","post_mooney1_questions","survey-likert","183","796909","0.0-6.0-2.25","3146596","co38305","norming","","","{""curiosity"":5,""confidence"":0}","[0,1]","../img/tt/118tt.jpg","",""
"1568.9999999998836","","","recognition","survey-text","184","798487","0.0-6.0-3.25","3146596","co38305","norming","","","{""guess"":""stoel""}","","../img/tt/118tt.jpg","",""
"null","../img/gs/118gs.jpg","null","reveal","image-keyboard-response","185","800489","0.0-6.0-4.25","3146596","co38305","norming","","","","","","",""
"null","../img/tt/118tt.jpg","null","mooney2","image-keyboard-response","186","802491","0.0-6.0-5.25","3146596","co38305","norming","","","","","","",""
"4108","","","post_reveal_questions","survey-likert","187","806601","0.0-6.0-6.25","3146596","co38305","norming","","","{""aha"":5}","[0]","../img/tt/118tt.jpg","",""
"null","<div style=""font-size:60px;""> </div>","null","fixation","html-keyboard-response","188","806804","0.0-6.0-0.26","3146596","co38305","norming","","","","","","",""
"null","../img/tt/056tt.jpg","null","mooney1","image-keyboard-response","189","809806","0.0-6.0-1.26","3146596","co38305","norming","","","","","","",""
"3737","","","post_mooney1_questions","survey-likert","190","813545","0.0-6.0-2.26","3146596","co38305","norming","","","{""curiosity"":6,""confidence"":0}","[0,1]","../img/tt/056tt.jpg","",""
"749","","","recognition","survey-text","191","814303","0.0-6.0-3.26","3146596","co38305","norming","","","{""guess"":""""}","","../img/tt/056tt.jpg","",""
"null","../img/gs/056gs.jpg","null","reveal","image-keyboard-response","192","816306","0.0-6.0-4.26","3146596","co38305","norming","","","","","","",""
"null","../img/tt/056tt.jpg","null","mooney2","image-keyboard-response","193","818308","0.0-6.0-5.26","3146596","co38305","norming","","","","","","",""
"6063","","","post_reveal_questions","survey-likert","194","824373","0.0-6.0-6.26","3146596","co38305","norming","","","{""aha"":3}","[0]","../img/tt/056tt.jpg","",""
"null","<div style=""font-size:60px;""> </div>","null","fixation","html-keyboard-response","195","824576","0.0-6.0-0.27","3146596","co38305","norming","","","","","","",""
"null","../img/tt/481tt.jpg","null","mooney1","image-keyboard-response","196","827578","0.0-6.0-1.27","3146596","co38305","norming","","","","","","",""
"5668","","","post_mooney1_questions","survey-likert","197","833248","0.0-6.0-2.27","3146596","co38305","norming","","","{""curiosity"":5,""confidence"":0}","[0,1]","../img/tt/481tt.jpg","",""
"686","","","recognition","survey-text","198","833942","0.0-6.0-3.27","3146596","co38305","norming","","","{""guess"":""""}","","../img/tt/481tt.jpg","",""
"null","../img/gs/481gs.jpg","null","reveal","image-keyboard-response","199","835944","0.0-6.0-4.27","3146596","co38305","norming","","","","","","",""
"null","../img/tt/481tt.jpg","null","mooney2","image-keyboard-response","200","837947","0.0-6.0-5.27","3146596","co38305","norming","","","","","","",""
"3402.9999999998836","","","post_reveal_questions","survey-likert","201","841351","0.0-6.0-6.27","3146596","co38305","norming","","","{""aha"":0}","[0]","../img/tt/481tt.jpg","",""
"null","<div style=""font-size:60px;""> </div>","null","fixation","html-keyboard-response","202","841554","0.0-6.0-0.28","3146596","co38305","norming","","","","","","",""
"null","../img/tt/1276tt.jpg","null","mooney1","image-keyboard-response","203","844557","0.0-6.0-1.28","3146596","co38305","norming","","","","","","",""
"5118.999999999884","","","post_mooney1_questions","survey-likert","204","849677","0.0-6.0-2.28","3146596","co38305","norming","","","{""curiosity"":5,""confidence"":0}","[0,1]","../img/tt/1276tt.jpg","",""
"1857","","","recognition","survey-text","205","851542","0.0-6.0-3.28","3146596","co38305","norming","","","{""guess"":""sheep""}","","../img/tt/1276tt.jpg","",""
"null","../img/gs/1276gs.jpg","null","reveal","image-keyboard-response","206","853543","0.0-6.0-4.28","3146596","co38305","norming","","","","","","",""
"null","../img/tt/1276tt.jpg","null","mooney2","image-keyboard-response","207","855546","0.0-6.0-5.28","3146596","co38305","norming","","","","","","",""
"3188","","","post_reveal_questions","survey-likert","208","858735","0.0-6.0-6.28","3146596","co38305","norming","","","{""aha"":2}","[0]","../img/tt/1276tt.jpg","",""
"null","<div style=""font-size:60px;""> </div>","null","fixation","html-keyboard-response","209","858937","0.0-6.0-0.29","3146596","co38305","norming","","","","","","",""
"null","../img/tt/007tt.jpg","null","mooney1","image-keyboard-response","210","861939","0.0-6.0-1.29","3146596","co38305","norming","","","","","","",""
"4038","","","post_mooney1_questions","survey-likert","211","865979","0.0-6.0-2.29","3146596","co38305","norming","","","{""curiosity"":6,""confidence"":1}","[0,1]","../img/tt/007tt.jpg","",""
"2389.9999999998836","","","recognition","survey-text","212","868376","0.0-6.0-3.29","3146596","co38305","norming","","","{""guess"":""sprinkhaan""}","","../img/tt/007tt.jpg","",""
"null","../img/gs/007gs.jpg","null","reveal","image-keyboard-response","213","870379","0.0-6.0-4.29","3146596","co38305","norming","","","","","","",""
"null","../img/tt/007tt.jpg","null","mooney2","image-keyboard-response","214","872381","0.0-6.0-5.29","3146596","co38305","norming","","","","","","",""
"2325","","","post_reveal_questions","survey-likert","215","874707","0.0-6.0-6.29","3146596","co38305","norming","","","{""aha"":4}","[0]","../img/tt/007tt.jpg","",""
"null","<div style=""font-size:60px;""> </div>","null","fixation","html-keyboard-response","216","874909","0.0-6.0-0.30","3146596","co38305","norming","","","","","","",""
"null","../img/tt/1159tt.jpg","null","mooney1","image-keyboard-response","217","877912","0.0-6.0-1.30","3146596","co38305","norming","","","","","","",""
"6863","","","post_mooney1_questions","survey-likert","218","884776","0.0-6.0-2.30","3146596","co38305","norming","","","{""curiosity"":5,""confidence"":0}","[0,1]","../img/tt/1159tt.jpg","",""
"3386.0000000001164","","","recognition","survey-text","219","888170","0.0-6.0-3.30","3146596","co38305","norming","","","{""guess"":""trainstation""}","","../img/tt/1159tt.jpg","",""
"null","../img/gs/1159gs.jpg","null","reveal","image-keyboard-response","220","890174","0.0-6.0-4.30","3146596","co38305","norming","","","","","","",""
"null","../img/tt/1159tt.jpg","null","mooney2","image-keyboard-response","221","892176","0.0-6.0-5.30","3146596","co38305","norming","","","","","","",""
"2307","","","post_reveal_questions","survey-likert","222","894485","0.0-6.0-6.30","3146596","co38305","norming","","","{""aha"":4}","[0]","../img/tt/1159tt.jpg","",""
"null","<div style=""font-size:60px;""> </div>","null","fixation","html-keyboard-response","223","894688","0.0-6.0-0.31","3146596","co38305","norming","","","","","","",""
"null","../img/tt/031tt.jpg","null","mooney1","image-keyboard-response","224","897690","0.0-6.0-1.31","3146596","co38305","norming","","","","","","",""
"5053","","","post_mooney1_questions","survey-likert","225","902745","0.0-6.0-2.31","3146596","co38305","norming","","","{""curiosity"":4,""confidence"":0}","[0,1]","../img/tt/031tt.jpg","",""
"583","","","recognition","survey-text","226","903336","0.0-6.0-3.31","3146596","co38305","norming","","","{""guess"":""""}","","../img/tt/031tt.jpg","",""
"null","../img/gs/031gs.jpg","null","reveal","image-keyboard-response","227","905338","0.0-6.0-4.31","3146596","co38305","norming","","","","","","",""
"null","../img/tt/031tt.jpg","null","mooney2","image-keyboard-response","228","907341","0.0-6.0-5.31","3146596","co38305","norming","","","","","","",""
"1989","","","post_reveal_questions","survey-likert","229","909331","0.0-6.0-6.31","3146596","co38305","norming","","","{""aha"":1}","[0]","../img/tt/031tt.jpg","",""
"null","<div style=""font-size:60px;""> </div>","null","fixation","html-keyboard-response","230","909534","0.0-6.0-0.32","3146596","co38305","norming","","","","","","",""
"null","../img/tt/1089tt.jpg","null","mooney1","image-keyboard-response","231","912536","0.0-6.0-1.32","3146596","co38305","norming","","","","","","",""
"3718","","","post_mooney1_questions","survey-likert","232","916256","0.0-6.0-2.32","3146596","co38305","norming","","","{""curiosity"":2,""confidence"":5}","[0,1]","../img/tt/1089tt.jpg","",""
"2566","","","recognition","survey-text","233","918832","0.0-6.0-3.32","3146596","co38305","norming","","","{""guess"":""olifanten""}","","../img/tt/1089tt.jpg","",""
"null","../img/gs/1089gs.jpg","null","reveal","image-keyboard-response","234","920834","0.0-6.0-4.32","3146596","co38305","norming","","","","","","",""
"null","../img/tt/1089tt.jpg","null","mooney2","image-keyboard-response","235","922836","0.0-6.0-5.32","3146596","co38305","norming","","","","","","",""
"4162","","","post_reveal_questions","survey-likert","236","926999","0.0-6.0-6.32","3146596","co38305","norming","","","{""aha"":0}","[0]","../img/tt/1089tt.jpg","",""
"null","<div style=""font-size:60px;""> </div>","null","fixation","html-keyboard-response","237","927203","0.0-6.0-0.33","3146596","co38305","norming","","","","","","",""
"null","../img/tt/477tt.jpg","null","mooney1","image-keyboard-response","238","930206","0.0-6.0-1.33","3146596","co38305","norming","","","","","","",""
"7157","","","post_mooney1_questions","survey-likert","239","937365","0.0-6.0-2.33","3146596","co38305","norming","","","{""curiosity"":4,""confidence"":1}","[0,1]","../img/tt/477tt.jpg","",""
"1562","","","recognition","survey-text","240","938937","0.0-6.0-3.33","3146596","co38305","norming","","","{""guess"":""bever""}","","../img/tt/477tt.jpg","",""
"null","../img/gs/477gs.jpg","null","reveal","image-keyboard-response","241","940940","0.0-6.0-4.33","3146596","co38305","norming","","","","","","",""
"null","../img/tt/477tt.jpg","null","mooney2","image-keyboard-response","242","942941","0.0-6.0-5.33","3146596","co38305","norming","","","","","","",""
"1861","","","post_reveal_questions","survey-likert","243","944804","0.0-6.0-6.33","3146596","co38305","norming","","","{""aha"":1}","[0]","../img/tt/477tt.jpg","",""
"null","<div style=""font-size:60px;""> </div>","null","fixation","html-keyboard-response","244","945008","0.0-6.0-0.34","3146596","co38305","norming","","","","","","",""
"null","../img/tt/1048tt.jpg","null","mooney1","image-keyboard-response","245","948010","0.0-6.0-1.34","3146596","co38305","norming","","","","","","",""
"4553","","","post_mooney1_questions","survey-likert","246","952564","0.0-6.0-2.34","3146596","co38305","norming","","","{""curiosity"":4,""confidence"":2}","[0,1]","../img/tt/1048tt.jpg","",""
"1896","","","recognition","survey-text","247","954468","0.0-6.0-3.34","3146596","co38305","norming","","","{""guess"":""horse""}","","../img/tt/1048tt.jpg","",""
"null","../img/gs/1048gs.jpg","null","reveal","image-keyboard-response","248","956471","0.0-6.0-4.34","3146596","co38305","norming","","","","","","",""
"null","../img/tt/1048tt.jpg","null","mooney2","image-keyboard-response","249","958473","0.0-6.0-5.34","3146596","co38305","norming","","","","","","",""
"2561","","","post_reveal_questions","survey-likert","250","961035","0.0-6.0-6.34","3146596","co38305","norming","","","{""aha"":1}","[0]","../img/tt/1048tt.jpg","",""
"null","<div style=""font-size:60px;""> </div>","null","fixation","html-keyboard-response","251","961238","0.0-6.0-0.35","3146596","co38305","norming","","","","","","",""
"null","../img/tt/497tt.jpg","null","mooney1","image-keyboard-response","252","964240","0.0-6.0-1.35","3146596","co38305","norming","","","","","","",""
"6494","","","post_mooney1_questions","survey-likert","253","970736","0.0-6.0-2.35","3146596","co38305","norming","","","{""curiosity"":6,""confidence"":0}","[0,1]","../img/tt/497tt.jpg","",""
"517","","","recognition","survey-text","254","971261","0.0-6.0-3.35","3146596","co38305","norming","","","{""guess"":""""}","","../img/tt/497tt.jpg","",""
"null","../img/gs/497gs.jpg","null","reveal","image-keyboard-response","255","973263","0.0-6.0-4.35","3146596","co38305","norming","","","","","","",""
"null","../img/tt/497tt.jpg","null","mooney2","image-keyboard-response","256","975265","0.0-6.0-5.35","3146596","co38305","norming","","","","","","",""
"4423","","","post_reveal_questions","survey-likert","257","979690","0.0-6.0-6.35","3146596","co38305","norming","","","{""aha"":2}","[0]","../img/tt/497tt.jpg","",""
"null","<div style=""font-size:60px;""> </div>","null","fixation","html-keyboard-response","258","979893","0.0-6.0-0.36","3146596","co38305","norming","","","","","","",""
"null","../img/tt/1235tt.jpg","null","mooney1","image-keyboard-response","259","982895","0.0-6.0-1.36","3146596","co38305","norming","","","","","","",""
"4090","","","post_mooney1_questions","survey-likert","260","986987","0.0-6.0-2.36","3146596","co38305","norming","","","{""curiosity"":5,""confidence"":0}","[0,1]","../img/tt/1235tt.jpg","",""
"1104","","","recognition","survey-text","261","988098","0.0-6.0-3.36","3146596","co38305","norming","","","{""guess"":""""}","","../img/tt/1235tt.jpg","",""
"null","../img/gs/1235gs.jpg","null","reveal","image-keyboard-response","262","990101","0.0-6.0-4.36","3146596","co38305","norming","","","","","","",""
"null","../img/tt/1235tt.jpg","null","mooney2","image-keyboard-response","263","992103","0.0-6.0-5.36","3146596","co38305","norming","","","","","","",""
"2147","","","post_reveal_questions","survey-likert","264","994251","0.0-6.0-6.36","3146596","co38305","norming","","","{""aha"":2}","[0]","../img/tt/1235tt.jpg","",""
"null","<div style=""font-size:60px;""> </div>","null","fixation","html-keyboard-response","265","994454","0.0-6.0-0.37","3146596","co38305","norming","","","","","","",""
"null","../img/tt/124tt.jpg","null","mooney1","image-keyboard-response","266","997457","0.0-6.0-1.37","3146596","co38305","norming","","","","","","",""
"3385","","","post_mooney1_questions","survey-likert","267","1000843","0.0-6.0-2.37","3146596","co38305","norming","","","{""curiosity"":5,""confidence"":1}","[0,1]","../img/tt/124tt.jpg","",""
"2475","","","recognition","survey-text","268","1003325","0.0-6.0-3.37","3146596","co38305","norming","","","{""guess"":""varken""}","","../img/tt/124tt.jpg","",""
"null","../img/gs/124gs.jpg","null","reveal","image-keyboard-response","269","1005328","0.0-6.0-4.37","3146596","co38305","norming","","","","","","",""
"null","../img/tt/124tt.jpg","null","mooney2","image-keyboard-response","270","1007330","0.0-6.0-5.37","3146596","co38305","norming","","","","","","",""
"1678.0000000001164","","","post_reveal_questions","survey-likert","271","1009010","0.0-6.0-6.37","3146596","co38305","norming","","","{""aha"":2}","[0]","../img/tt/124tt.jpg","",""
"null","<div style=""font-size:60px;""> </div>","null","fixation","html-keyboard-response","272","1009213","0.0-6.0-0.38","3146596","co38305","norming","","","","","","",""
"null","../img/tt/084tt.jpg","null","mooney1","image-keyboard-response","273","1012215","0.0-6.0-1.38","3146596","co38305","norming","","","","","","",""
"4435","","","post_mooney1_questions","survey-likert","274","1016652","0.0-6.0-2.38","3146596","co38305","norming","","","{""curiosity"":3,""confidence"":2}","[0,1]","../img/tt/084tt.jpg","",""
"1515.0000000001164","","","recognition","survey-text","275","1018174","0.0-6.0-3.38","3146596","co38305","norming","","","{""guess"":""gans""}","","../img/tt/084tt.jpg","",""
"null","../img/gs/084gs.jpg","null","reveal","image-keyboard-response","276","1020177","0.0-6.0-4.38","3146596","co38305","norming","","","","","","",""
"null","../img/tt/084tt.jpg","null","mooney2","image-keyboard-response","277","1022178","0.0-6.0-5.38","3146596","co38305","norming","","","","","","",""
"3654","","","post_reveal_questions","survey-likert","278","1025834","0.0-6.0-6.38","3146596","co38305","norming","","","{""aha"":1}","[0]","../img/tt/084tt.jpg","",""
"null","<div style=""font-size:60px;""> </div>","null","fixation","html-keyboard-response","279","1026037","0.0-6.0-0.39","3146596","co38305","norming","","","","","","",""
"null","../img/tt/1272tt.jpg","null","mooney1","image-keyboard-response","280","1029040","0.0-6.0-1.39","3146596","co38305","norming","","","","","","",""
"5810","","","post_mooney1_questions","survey-likert","281","1034852","0.0-6.0-2.39","3146596","co38305","norming","","","{""curiosity"":6,""confidence"":0}","[0,1]","../img/tt/1272tt.jpg","",""
"886","","","recognition","survey-text","282","1035746","0.0-6.0-3.39","3146596","co38305","norming","","","{""guess"":""""}","","../img/tt/1272tt.jpg","",""
"null","../img/gs/1272gs.jpg","null","reveal","image-keyboard-response","283","1037748","0.0-6.0-4.39","3146596","co38305","norming","","","","","","",""
"null","../img/tt/1272tt.jpg","null","mooney2","image-keyboard-response","284","1039749","0.0-6.0-5.39","3146596","co38305","norming","","","","","","",""
"3012","","","post_reveal_questions","survey-likert","285","1042763","0.0-6.0-6.39","3146596","co38305","norming","","","{""aha"":3}","[0]","../img/tt/1272tt.jpg","",""
"null","<div style=""font-size:60px;""> </div>","null","fixation","html-keyboard-response","286","1042966","0.0-6.0-0.40","3146596","co38305","norming","","","","","","",""
"null","../img/tt/300tt.jpg","null","mooney1","image-keyboard-response","287","1045968","0.0-6.0-1.40","3146596","co38305","norming","","","","","","",""
"11281","","","post_mooney1_questions","survey-likert","288","1057252","0.0-6.0-2.40","3146596","co38305","norming","","","{""curiosity"":5,""confidence"":0}","[0,1]","../img/tt/300tt.jpg","",""
"2674","","","recognition","survey-text","289","1059935","0.0-6.0-3.40","3146596","co38305","norming","","","{""guess"":""insect""}","","../img/tt/300tt.jpg","",""
"null","../img/gs/300gs.jpg","null","reveal","image-keyboard-response","290","1061938","0.0-6.0-4.40","3146596","co38305","norming","","","","","","",""
"null","../img/tt/300tt.jpg","null","mooney2","image-keyboard-response","291","1063940","0.0-6.0-5.40","3146596","co38305","norming","","","","","","",""
"2454","","","post_reveal_questions","survey-likert","292","1066396","0.0-6.0-6.40","3146596","co38305","norming","","","{""aha"":5}","[0]","../img/tt/300tt.jpg","",""
"null","<div style=""font-size:60px;""> </div>","null","fixation","html-keyboard-response","293","1066599","0.0-6.0-0.41","3146596","co38305","norming","","","","","","",""
"null","../img/tt/1033tt.jpg","null","mooney1","image-keyboard-response","294","1069601","0.0-6.0-1.41","3146596","co38305","norming","","","","","","",""
"5008","","","post_mooney1_questions","survey-likert","295","1074611","0.0-6.0-2.41","3146596","co38305","norming","","","{""curiosity"":4,""confidence"":2}","[0,1]","../img/tt/1033tt.jpg","",""
"2283","","","recognition","survey-text","296","1076902","0.0-6.0-3.41","3146596","co38305","norming","","","{""guess"":""soldiers""}","","../img/tt/1033tt.jpg","",""
"null","../img/gs/1033gs.jpg","null","reveal","image-keyboard-response","297","1078904","0.0-6.0-4.41","3146596","co38305","norming","","","","","","",""
"null","../img/tt/1033tt.jpg","null","mooney2","image-keyboard-response","298","1080906","0.0-6.0-5.41","3146596","co38305","norming","","","","","","",""
"4792","","","post_reveal_questions","survey-likert","299","1085700","0.0-6.0-6.41","3146596","co38305","norming","","","{""aha"":5}","[0]","../img/tt/1033tt.jpg","",""
"null","<div style=""font-size:60px;""> </div>","null","fixation","html-keyboard-response","300","1085904","0.0-6.0-0.42","3146596","co38305","norming","","","","","","",""
"null","../img/tt/1366tt.jpg","null","mooney1","image-keyboard-response","301","1088907","0.0-6.0-1.42","3146596","co38305","norming","","","","","","",""
"6688","","","post_mooney1_questions","survey-likert","302","1095597","0.0-6.0-2.42","3146596","co38305","norming","","","{""curiosity"":5,""confidence"":0}","[0,1]","../img/tt/1366tt.jpg","",""
"568","","","recognition","survey-text","303","1096174","0.0-6.0-3.42","3146596","co38305","norming","","","{""guess"":""""}","","../img/tt/1366tt.jpg","",""
"null","../img/gs/1366gs.jpg","null","reveal","image-keyboard-response","304","1098176","0.0-6.0-4.42","3146596","co38305","norming","","","","","","",""
"null","../img/tt/1366tt.jpg","null","mooney2","image-keyboard-response","305","1100179","0.0-6.0-5.42","3146596","co38305","norming","","","","","","",""
"2332","","","post_reveal_questions","survey-likert","306","1102512","0.0-6.0-6.42","3146596","co38305","norming","","","{""aha"":3}","[0]","../img/tt/1366tt.jpg","",""
"null","<div style=""font-size:60px;""> </div>","null","fixation","html-keyboard-response","307","1102715","0.0-6.0-0.43","3146596","co38305","norming","","","","","","",""
"null","../img/tt/319tt.jpg","null","mooney1","image-keyboard-response","308","1105718","0.0-6.0-1.43","3146596","co38305","norming","","","","","","",""
"4532","","","post_mooney1_questions","survey-likert","309","1110252","0.0-6.0-2.43","3146596","co38305","norming","","","{""curiosity"":6,""confidence"":0}","[0,1]","../img/tt/319tt.jpg","",""
"2365","","","recognition","survey-text","310","1112625","0.0-6.0-3.43","3146596","co38305","norming","","","{""guess"":""cow""}","","../img/tt/319tt.jpg","",""
"null","../img/gs/319gs.jpg","null","reveal","image-keyboard-response","311","1114627","0.0-6.0-4.43","3146596","co38305","norming","","","","","","",""
"null","../img/tt/319tt.jpg","null","mooney2","image-keyboard-response","312","1116629","0.0-6.0-5.43","3146596","co38305","norming","","","","","","",""
"5093.999999999767","","","post_reveal_questions","survey-likert","313","1121724","0.0-6.0-6.43","3146596","co38305","norming","","","{""aha"":3}","[0]","../img/tt/319tt.jpg","",""
"null","<div style=""font-size:60px;""> </div>","null","fixation","html-keyboard-response","314","1121928","0.0-6.0-0.44","3146596","co38305","norming","","","","","","",""
"null","../img/tt/1091tt.jpg","null","mooney1","image-keyboard-response","315","1124930","0.0-6.0-1.44","3146596","co38305","norming","","","","","","",""
"3532","","","post_mooney1_questions","survey-likert","316","1128464","0.0-6.0-2.44","3146596","co38305","norming","","","{""curiosity"":4,""confidence"":2}","[0,1]","../img/tt/1091tt.jpg","",""
"1818","","","recognition","survey-text","317","1130290","0.0-6.0-3.44","3146596","co38305","norming","","","{""guess"":""horse""}","","../img/tt/1091tt.jpg","",""
"null","../img/gs/1091gs.jpg","null","reveal","image-keyboard-response","318","1132293","0.0-6.0-4.44","3146596","co38305","norming","","","","","","",""
"null","../img/tt/1091tt.jpg","null","mooney2","image-keyboard-response","319","1134295","0.0-6.0-5.44","3146596","co38305","norming","","","","","","",""
"2434","","","post_reveal_questions","survey-likert","320","1136731","0.0-6.0-6.44","3146596","co38305","norming","","","{""aha"":0}","[0]","../img/tt/1091tt.jpg","",""
"null","<div style=""font-size:60px;""> </div>","null","fixation","html-keyboard-response","321","1136933","0.0-6.0-0.45","3146596","co38305","norming","","","","","","",""
"null","../img/tt/1122tt.jpg","null","mooney1","image-keyboard-response","322","1139935","0.0-6.0-1.45","3146596","co38305","norming","","","","","","",""
"5486","","","post_mooney1_questions","survey-likert","323","1145423","0.0-6.0-2.45","3146596","co38305","norming","","","{""curiosity"":3,""confidence"":3}","[0,1]","../img/tt/1122tt.jpg","",""
"1936","","","recognition","survey-text","324","1147366","0.0-6.0-3.45","3146596","co38305","norming","","","{""guess"":""boats""}","","../img/tt/1122tt.jpg","",""
"null","../img/gs/1122gs.jpg","null","reveal","image-keyboard-response","325","1149369","0.0-6.0-4.45","3146596","co38305","norming","","","","","","",""
"null","../img/tt/1122tt.jpg","null","mooney2","image-keyboard-response","326","1151371","0.0-6.0-5.45","3146596","co38305","norming","","","","","","",""
"16621","","","post_reveal_questions","survey-likert","327","1167993","0.0-6.0-6.45","3146596","co38305","norming","","","{""aha"":1}","[0]","../img/tt/1122tt.jpg","",""
"null","<div style=""font-size:60px;""> </div>","null","fixation","html-keyboard-response","328","1168196","0.0-6.0-0.46","3146596","co38305","norming","","","","","","",""
"null","../img/tt/105tt.jpg","null","mooney1","image-keyboard-response","329","1171198","0.0-6.0-1.46","3146596","co38305","norming","","","","","","",""
"3895.000000000233","","","post_mooney1_questions","survey-likert","330","1175095","0.0-6.0-2.46","3146596","co38305","norming","","","{""curiosity"":6,""confidence"":0}","[0,1]","../img/tt/105tt.jpg","",""
"2769","","","recognition","survey-text","331","1177871","0.0-6.0-3.46","3146596","co38305","norming","","","{""guess"":""paperclips""}","","../img/tt/105tt.jpg","",""
"null","../img/gs/105gs.jpg","null","reveal","image-keyboard-response","332","1179873","0.0-6.0-4.46","3146596","co38305","norming","","","","","","",""
"null","../img/tt/105tt.jpg","null","mooney2","image-keyboard-response","333","1181875","0.0-6.0-5.46","3146596","co38305","norming","","","","","","",""
"2119","","","post_reveal_questions","survey-likert","334","1183996","0.0-6.0-6.46","3146596","co38305","norming","","","{""aha"":4}","[0]","../img/tt/105tt.jpg","",""
"null","<div style=""font-size:60px;""> </div>","null","fixation","html-keyboard-response","335","1184199","0.0-6.0-0.47","3146596","co38305","norming","","","","","","",""
"null","../img/tt/040tt.jpg","null","mooney1","image-keyboard-response","336","1187201","0.0-6.0-1.47","3146596","co38305","norming","","","","","","",""
"3429","","","post_mooney1_questions","survey-likert","337","1190632","0.0-6.0-2.47","3146596","co38305","norming","","","{""curiosity"":5,""confidence"":0}","[0,1]","../img/tt/040tt.jpg","",""
"811","","","recognition","survey-text","338","1191450","0.0-6.0-3.47","3146596","co38305","norming","","","{""guess"":""""}","","../img/tt/040tt.jpg","",""
"null","../img/gs/040gs.jpg","null","reveal","image-keyboard-response","339","1193452","0.0-6.0-4.47","3146596","co38305","norming","","","","","","",""
"null","../img/tt/040tt.jpg","null","mooney2","image-keyboard-response","340","1195455","0.0-6.0-5.47","3146596","co38305","norming","","","","","","",""
"4991","","","post_reveal_questions","survey-likert","341","1200447","0.0-6.0-6.47","3146596","co38305","norming","","","{""aha"":5}","[0]","../img/tt/040tt.jpg","",""
"null","<div style=""font-size:60px;""> </div>","null","fixation","html-keyboard-response","342","1200651","0.0-6.0-0.48","3146596","co38305","norming","","","","","","",""
"null","../img/tt/222tt.jpg","null","mooney1","image-keyboard-response","343","1203653","0.0-6.0-1.48","3146596","co38305","norming","","","","","","",""
"12291","","","post_mooney1_questions","survey-likert","344","1215946","0.0-6.0-2.48","3146596","co38305","norming","","","{""curiosity"":5,""confidence"":1}","[0,1]","../img/tt/222tt.jpg","",""
"1584","","","recognition","survey-text","345","1217539","0.0-6.0-3.48","3146596","co38305","norming","","","{""guess"":""theepot""}","","../img/tt/222tt.jpg","",""
"null","../img/gs/222gs.jpg","null","reveal","image-keyboard-response","346","1219541","0.0-6.0-4.48","3146596","co38305","norming","","","","","","",""
"null","../img/tt/222tt.jpg","null","mooney2","image-keyboard-response","347","1221544","0.0-6.0-5.48","3146596","co38305","norming","","","","","","",""
"2939","","","post_reveal_questions","survey-likert","348","1224483","0.0-6.0-6.48","3146596","co38305","norming","","","{""aha"":0}","[0]","../img/tt/222tt.jpg","",""
"null","<div style=""font-size:60px;""> </div>","null","fixation","html-keyboard-response","349","1224687","0.0-6.0-0.49","3146596","co38305","norming","","","","","","",""
"null","../img/tt/1189tt.jpg","null","mooney1","image-keyboard-response","350","1227689","0.0-6.0-1.49","3146596","co38305","norming","","","","","","",""
"2911","","","post_mooney1_questions","survey-likert","351","1230602","0.0-6.0-2.49","3146596","co38305","norming","","","{""curiosity"":6,""confidence"":0}","[0,1]","../img/tt/1189tt.jpg","",""
"484","","","recognition","survey-text","352","1231094","0.0-6.0-3.49","3146596","co38305","norming","","","{""guess"":""""}","","../img/tt/1189tt.jpg","",""
"null","../img/gs/1189gs.jpg","null","reveal","image-keyboard-response","353","1233096","0.0-6.0-4.49","3146596","co38305","norming","","","","","","",""
"null","../img/tt/1189tt.jpg","null","mooney2","image-keyboard-response","354","1235097","0.0-6.0-5.49","3146596","co38305","norming","","","","","","",""
"33042","","","post_reveal_questions","survey-likert","355","1268141","0.0-6.0-6.49","3146596","co38305","norming","","","{""aha"":4}","[0]","../img/tt/1189tt.jpg","",""
"null","<div style=""font-size:60px;""> </div>","null","fixation","html-keyboard-response","356","1268343","0.0-6.0-0.50","3146596","co38305","norming","","","","","","",""
"null","../img/tt/1037tt.jpg","null","mooney1","image-keyboard-response","357","1271346","0.0-6.0-1.50","3146596","co38305","norming","","","","","","",""
"5266.999999999767","","","post_mooney1_questions","survey-likert","358","1276615","0.0-6.0-2.50","3146596","co38305","norming","","","{""curiosity"":5,""confidence"":1}","[0,1]","../img/tt/1037tt.jpg","",""
"1533","","","recognition","survey-text","359","1278155","0.0-6.0-3.50","3146596","co38305","norming","","","{""guess"":""hond""}","","../img/tt/1037tt.jpg","",""
"null","../img/gs/1037gs.jpg","null","reveal","image-keyboard-response","360","1280158","0.0-6.0-4.50","3146596","co38305","norming","","","","","","",""
"null","../img/tt/1037tt.jpg","null","mooney2","image-keyboard-response","361","1282160","0.0-6.0-5.50","3146596","co38305","norming","","","","","","",""
"1628","","","post_reveal_questions","survey-likert","362","1283788","0.0-6.0-6.50","3146596","co38305","norming","","","{""aha"":0}","[0]","../img/tt/1037tt.jpg","",""
"null","<div style=""font-size:60px;""> </div>","null","fixation","html-keyboard-response","363","1283991","0.0-6.0-0.51","3146596","co38305","norming","","","","","","",""
"null","../img/tt/1126tt.jpg","null","mooney1","image-keyboard-response","364","1286994","0.0-6.0-1.51","3146596","co38305","norming","","","","","","",""
"4054","","","post_mooney1_questions","survey-likert","365","1291049","0.0-6.0-2.51","3146596","co38305","norming","","","{""curiosity"":3,""confidence"":3}","[0,1]","../img/tt/1126tt.jpg","",""
"4643","","","recognition","survey-text","366","1295700","0.0-6.0-3.51","3146596","co38305","norming","","","{""guess"":""bergbeklimmer""}","","../img/tt/1126tt.jpg","",""
"null","../img/gs/1126gs.jpg","null","reveal","image-keyboard-response","367","1297702","0.0-6.0-4.51","3146596","co38305","norming","","","","","","",""
"null","../img/tt/1126tt.jpg","null","mooney2","image-keyboard-response","368","1299704","0.0-6.0-5.51","3146596","co38305","norming","","","","","","",""
"3621","","","post_reveal_questions","survey-likert","369","1303328","0.0-6.0-6.51","3146596","co38305","norming","","","{""aha"":0}","[0]","../img/tt/1126tt.jpg","",""
"null","<div style=""font-size:60px;""> </div>","null","fixation","html-keyboard-response","370","1303530","0.0-6.0-0.52","3146596","co38305","norming","","","","","","",""
"null","../img/tt/1002tt.jpg","null","mooney1","image-keyboard-response","371","1306532","0.0-6.0-1.52","3146596","co38305","norming","","","","","","",""
"5455","","","post_mooney1_questions","survey-likert","372","1311989","0.0-6.0-2.52","3146596","co38305","norming","","","{""curiosity"":5,""confidence"":0}","[0,1]","../img/tt/1002tt.jpg","",""
"858","","","recognition","survey-text","373","1312854","0.0-6.0-3.52","3146596","co38305","norming","","","{""guess"":""""}","","../img/tt/1002tt.jpg","",""
"null","../img/gs/1002gs.jpg","null","reveal","image-keyboard-response","374","1314856","0.0-6.0-4.52","3146596","co38305","norming","","","","","","",""
"null","../img/tt/1002tt.jpg","null","mooney2","image-keyboard-response","375","1316857","0.0-6.0-5.52","3146596","co38305","norming","","","","","","",""
"2345.000000000233","","","post_reveal_questions","survey-likert","376","1319204","0.0-6.0-6.52","3146596","co38305","norming","","","{""aha"":0}","[0]","../img/tt/1002tt.jpg","",""
"null","<div style=""font-size:60px;""> </div>","null","fixation","html-keyboard-response","377","1319407","0.0-6.0-0.53","3146596","co38305","norming","","","","","","",""
"null","../img/tt/598tt.jpg","null","mooney1","image-keyboard-response","378","1322410","0.0-6.0-1.53","3146596","co38305","norming","","","","","","",""
"7269","","","post_mooney1_questions","survey-likert","379","1329680","0.0-6.0-2.53","3146596","co38305","norming","","","{""curiosity"":6,""confidence"":1}","[0,1]","../img/tt/598tt.jpg","",""
"2091","","","recognition","survey-text","380","1331779","0.0-6.0-3.53","3146596","co38305","norming","","","{""guess"":""hand""}","","../img/tt/598tt.jpg","",""
"null","../img/gs/598gs.jpg","null","reveal","image-keyboard-response","381","1333782","0.0-6.0-4.53","3146596","co38305","norming","","","","","","",""
"null","../img/tt/598tt.jpg","null","mooney2","image-keyboard-response","382","1335784","0.0-6.0-5.53","3146596","co38305","norming","","","","","","",""
"3068","","","post_reveal_questions","survey-likert","383","1338853","0.0-6.0-6.53","3146596","co38305","norming","","","{""aha"":1}","[0]","../img/tt/598tt.jpg","",""
"null","<div style=""font-size:60px;""> </div>","null","fixation","html-keyboard-response","384","1339056","0.0-6.0-0.54","3146596","co38305","norming","","","","","","",""
"null","../img/tt/080tt.jpg","null","mooney1","image-keyboard-response","385","1342059","0.0-6.0-1.54","3146596","co38305","norming","","","","","","",""
"4542.999999999767","","","post_mooney1_questions","survey-likert","386","1346604","0.0-6.0-2.54","3146596","co38305","norming","","","{""curiosity"":5,""confidence"":0}","[0,1]","../img/tt/080tt.jpg","",""
"3526.000000000233","","","recognition","survey-text","387","1350138","0.0-6.0-3.54","3146596","co38305","norming","","","{""guess"":""lamp""}","","../img/tt/080tt.jpg","",""
"null","../img/gs/080gs.jpg","null","reveal","image-keyboard-response","388","1352141","0.0-6.0-4.54","3146596","co38305","norming","","","","","","",""
"null","../img/tt/080tt.jpg","null","mooney2","image-keyboard-response","389","1354143","0.0-6.0-5.54","3146596","co38305","norming","","","","","","",""
"3277","","","post_reveal_questions","survey-likert","390","1357421","0.0-6.0-6.54","3146596","co38305","norming","","","{""aha"":1}","[0]","../img/tt/080tt.jpg","",""
"null","<div style=""font-size:60px;""> </div>","null","fixation","html-keyboard-response","391","1357624","0.0-6.0-0.55","3146596","co38305","norming","","","","","","",""
"null","../img/tt/1205tt.jpg","null","mooney1","image-keyboard-response","392","1360627","0.0-6.0-1.55","3146596","co38305","norming","","","","","","",""
"5272.999999999767","","","post_mooney1_questions","survey-likert","393","1365902","0.0-6.0-2.55","3146596","co38305","norming","","","{""curiosity"":6,""confidence"":0}","[0,1]","../img/tt/1205tt.jpg","",""
"547","","","recognition","survey-text","394","1366457","0.0-6.0-3.55","3146596","co38305","norming","","","{""guess"":""""}","","../img/tt/1205tt.jpg","",""
"null","../img/gs/1205gs.jpg","null","reveal","image-keyboard-response","395","1368458","0.0-6.0-4.55","3146596","co38305","norming","","","","","","",""
"null","../img/tt/1205tt.jpg","null","mooney2","image-keyboard-response","396","1370460","0.0-6.0-5.55","3146596","co38305","norming","","","","","","",""
"1887","","","post_reveal_questions","survey-likert","397","1372348","0.0-6.0-6.55","3146596","co38305","norming","","","{""aha"":2}","[0]","../img/tt/1205tt.jpg","",""
"null","<div style=""font-size:60px;""> </div>","null","fixation","html-keyboard-response","398","1372551","0.0-6.0-0.56","3146596","co38305","norming","","","","","","",""
"null","../img/tt/1217tt.jpg","null","mooney1","image-keyboard-response","399","1375553","0.0-6.0-1.56","3146596","co38305","norming","","","","","","",""
"3210","","","post_mooney1_questions","survey-likert","400","1378764","0.0-6.0-2.56","3146596","co38305","norming","","","{""curiosity"":5,""confidence"":0}","[0,1]","../img/tt/1217tt.jpg","",""
"550","","","recognition","survey-text","401","1379322","0.0-6.0-3.56","3146596","co38305","norming","","","{""guess"":""""}","","../img/tt/1217tt.jpg","",""
"null","../img/gs/1217gs.jpg","null","reveal","image-keyboard-response","402","1381324","0.0-6.0-4.56","3146596","co38305","norming","","","","","","",""
"null","../img/tt/1217tt.jpg","null","mooney2","image-keyboard-response","403","1383327","0.0-6.0-5.56","3146596","co38305","norming","","","","","","",""
"2422","","","post_reveal_questions","survey-likert","404","1385750","0.0-6.0-6.56","3146596","co38305","norming","","","{""aha"":1}","[0]","../img/tt/1217tt.jpg","",""
"null","<div style=""font-size:60px;""> </div>","null","fixation","html-keyboard-response","405","1385953","0.0-6.0-0.57","3146596","co38305","norming","","","","","","",""
"null","../img/tt/135tt.jpg","null","mooney1","image-keyboard-response","406","1388956","0.0-6.0-1.57","3146596","co38305","norming","","","","","","",""
"4332","","","post_mooney1_questions","survey-likert","407","1393289","0.0-6.0-2.57","3146596","co38305","norming","","","{""curiosity"":4,""confidence"":1}","[0,1]","../img/tt/135tt.jpg","",""
"2971","","","recognition","survey-text","408","1396268","0.0-6.0-3.57","3146596","co38305","norming","","","{""guess"":""ruggbybal""}","","../img/tt/135tt.jpg","",""
"null","../img/gs/135gs.jpg","null","reveal","image-keyboard-response","409","1398271","0.0-6.0-4.57","3146596","co38305","norming","","","","","","",""
"null","../img/tt/135tt.jpg","null","mooney2","image-keyboard-response","410","1400273","0.0-6.0-5.57","3146596","co38305","norming","","","","","","",""
"1875","","","post_reveal_questions","survey-likert","411","1402149","0.0-6.0-6.57","3146596","co38305","norming","","","{""aha"":6}","[0]","../img/tt/135tt.jpg","",""
"null","<div style=""font-size:60px;""> </div>","null","fixation","html-keyboard-response","412","1402351","0.0-6.0-0.58","3146596","co38305","norming","","","","","","",""
"null","../img/tt/1199tt.jpg","null","mooney1","image-keyboard-response","413","1405354","0.0-6.0-1.58","3146596","co38305","norming","","","","","","",""
"6813.000000000233","","","post_mooney1_questions","survey-likert","414","1412168","0.0-6.0-2.58","3146596","co38305","norming","","","{""curiosity"":5,""confidence"":0}","[0,1]","../img/tt/1199tt.jpg","",""
"1817","","","recognition","survey-text","415","1413994","0.0-6.0-3.58","3146596","co38305","norming","","","{""guess"":""vrouw""}","","../img/tt/1199tt.jpg","",""
"null","../img/gs/1199gs.jpg","null","reveal","image-keyboard-response","416","1415996","0.0-6.0-4.58","3146596","co38305","norming","","","","","","",""
"null","../img/tt/1199tt.jpg","null","mooney2","image-keyboard-response","417","1417999","0.0-6.0-5.58","3146596","co38305","norming","","","","","","",""
"1875","","","post_reveal_questions","survey-likert","418","1419875","0.0-6.0-6.58","3146596","co38305","norming","","","{""aha"":4}","[0]","../img/tt/1199tt.jpg","",""
"null","<div style=""font-size:60px;""> </div>","null","fixation","html-keyboard-response","419","1420078","0.0-6.0-0.59","3146596","co38305","norming","","","","","","",""
"null","../img/tt/121tt.jpg","null","mooney1","image-keyboard-response","420","1423081","0.0-6.0-1.59","3146596","co38305","norming","","","","","","",""
"5035.999999999767","","","post_mooney1_questions","survey-likert","421","1428118","0.0-6.0-2.59","3146596","co38305","norming","","","{""curiosity"":5,""confidence"":0}","[0,1]","../img/tt/121tt.jpg","",""
"1065","","","recognition","survey-text","422","1429191","0.0-6.0-3.59","3146596","co38305","norming","","","{""guess"":""""}","","../img/tt/121tt.jpg","",""
"null","../img/gs/121gs.jpg","null","reveal","image-keyboard-response","423","1431193","0.0-6.0-4.59","3146596","co38305","norming","","","","","","",""
"null","../img/tt/121tt.jpg","null","mooney2","image-keyboard-response","424","1433195","0.0-6.0-5.59","3146596","co38305","norming","","","","","","",""
"2145","","","post_reveal_questions","survey-likert","425","1435341","0.0-6.0-6.59","3146596","co38305","norming","","","{""aha"":0}","[0]","../img/tt/121tt.jpg","",""
"null","<div style=""font-size:60px;""> </div>","null","fixation","html-keyboard-response","426","1435542","0.0-6.0-0.60","3146596","co38305","norming","","","","","","",""
"null","../img/tt/315tt.jpg","null","mooney1","image-keyboard-response","427","1438545","0.0-6.0-1.60","3146596","co38305","norming","","","","","","",""
"3675","","","post_mooney1_questions","survey-likert","428","1442221","0.0-6.0-2.60","3146596","co38305","norming","","","{""curiosity"":5,""confidence"":1}","[0,1]","../img/tt/315tt.jpg","",""
"1677","","","recognition","survey-text","429","1443907","0.0-6.0-3.60","3146596","co38305","norming","","","{""guess"":""vogel""}","","../img/tt/315tt.jpg","",""
"null","../img/gs/315gs.jpg","null","reveal","image-keyboard-response","430","1445909","0.0-6.0-4.60","3146596","co38305","norming","","","","","","",""
"null","../img/tt/315tt.jpg","null","mooney2","image-keyboard-response","431","1447911","0.0-6.0-5.60","3146596","co38305","norming","","","","","","",""
"2412","","","post_reveal_questions","survey-likert","432","1450325","0.0-6.0-6.60","3146596","co38305","norming","","","{""aha"":5}","[0]","../img/tt/315tt.jpg","",""
"null","<div style=""font-size:60px;""> </div>","null","fixation","html-keyboard-response","433","1450528","0.0-6.0-0.61","3146596","co38305","norming","","","","","","",""
"null","../img/tt/436tt.jpg","null","mooney1","image-keyboard-response","434","1453530","0.0-6.0-1.61","3146596","co38305","norming","","","","","","",""
"4437","","","post_mooney1_questions","survey-likert","435","1457969","0.0-6.0-2.61","3146596","co38305","norming","","","{""curiosity"":4,""confidence"":1}","[0,1]","../img/tt/436tt.jpg","",""
"26138","","","recognition","survey-text","436","1484116","0.0-6.0-3.61","3146596","co38305","norming","","","{""guess"":""sprinkhaan""}","","../img/tt/436tt.jpg","",""
"null","../img/gs/436gs.jpg","null","reveal","image-keyboard-response","437","1486118","0.0-6.0-4.61","3146596","co38305","norming","","","","","","",""
"null","../img/tt/436tt.jpg","null","mooney2","image-keyboard-response","438","1488121","0.0-6.0-5.61","3146596","co38305","norming","","","","","","",""
"1818.0000000002328","","","post_reveal_questions","survey-likert","439","1489940","0.0-6.0-6.61","3146596","co38305","norming","","","{""aha"":1}","[0]","../img/tt/436tt.jpg","",""
"null","<div style=""font-size:60px;""> </div>","null","fixation","html-keyboard-response","440","1490143","0.0-6.0-0.62","3146596","co38305","norming","","","","","","",""
"null","../img/tt/098tt.jpg","null","mooney1","image-keyboard-response","441","1493146","0.0-6.0-1.62","3146596","co38305","norming","","","","","","",""
"3522","","","post_mooney1_questions","survey-likert","442","1496669","0.0-6.0-2.62","3146596","co38305","norming","","","{""curiosity"":6,""confidence"":0}","[0,1]","../img/tt/098tt.jpg","",""
"556","","","recognition","survey-text","443","1497231","0.0-6.0-3.62","3146596","co38305","norming","","","{""guess"":""""}","","../img/tt/098tt.jpg","",""
"null","../img/gs/098gs.jpg","null","reveal","image-keyboard-response","444","1499233","0.0-6.0-4.62","3146596","co38305","norming","","","","","","",""
"null","../img/tt/098tt.jpg","null","mooney2","image-keyboard-response","445","1501236","0.0-6.0-5.62","3146596","co38305","norming","","","","","","",""
"1798","","","post_reveal_questions","survey-likert","446","1503034","0.0-6.0-6.62","3146596","co38305","norming","","","{""aha"":0}","[0]","../img/tt/098tt.jpg","",""
"null","<div style=""font-size:60px;""> </div>","null","fixation","html-keyboard-response","447","1503237","0.0-6.0-0.63","3146596","co38305","norming","","","","","","",""
"null","../img/tt/020tt.jpg","null","mooney1","image-keyboard-response","448","1506239","0.0-6.0-1.63","3146596","co38305","norming","","","","","","",""
"5219.000000000233","","","post_mooney1_questions","survey-likert","449","1511460","0.0-6.0-2.63","3146596","co38305","norming","","","{""curiosity"":5,""confidence"":1}","[0,1]","../img/tt/020tt.jpg","",""
"21567","","","recognition","survey-text","450","1533036","0.0-6.0-3.63","3146596","co38305","norming","","","{""guess"":""water gieten""}","","../img/tt/020tt.jpg","",""
"null","../img/gs/020gs.jpg","null","reveal","image-keyboard-response","451","1535039","0.0-6.0-4.63","3146596","co38305","norming","","","","","","",""
"null","../img/tt/020tt.jpg","null","mooney2","image-keyboard-response","452","1537041","0.0-6.0-5.63","3146596","co38305","norming","","","","","","",""
"1851.0000000002328","","","post_reveal_questions","survey-likert","453","1538893","0.0-6.0-6.63","3146596","co38305","norming","","","{""aha"":0}","[0]","../img/tt/020tt.jpg","",""
"null","<div style=""font-size:60px;""> </div>","null","fixation","html-keyboard-response","454","1539097","0.0-6.0-0.64","3146596","co38305","norming","","","","","","",""
"null","../img/tt/507tt.jpg","null","mooney1","image-keyboard-response","455","1542099","0.0-6.0-1.64","3146596","co38305","norming","","","","","","",""
"2828","","","post_mooney1_questions","survey-likert","456","1544928","0.0-6.0-2.64","3146596","co38305","norming","","","{""curiosity"":5,""confidence"":1}","[0,1]","../img/tt/507tt.jpg","",""
"1831","","","recognition","survey-text","457","1546768","0.0-6.0-3.64","3146596","co38305","norming","","","{""guess"":""dansers""}","","../img/tt/507tt.jpg","",""
"null","../img/gs/507gs.jpg","null","reveal","image-keyboard-response","458","1548770","0.0-6.0-4.64","3146596","co38305","norming","","","","","","",""
"null","../img/tt/507tt.jpg","null","mooney2","image-keyboard-response","459","1550773","0.0-6.0-5.64","3146596","co38305","norming","","","","","","",""
"1562.0000000002328","","","post_reveal_questions","survey-likert","460","1552336","0.0-6.0-6.64","3146596","co38305","norming","","","{""aha"":3}","[0]","../img/tt/507tt.jpg","",""
"null","<div style=""font-size:60px;""> </div>","null","fixation","html-keyboard-response","461","1552539","0.0-6.0-0.65","3146596","co38305","norming","","","","","","",""
"null","../img/tt/096tt.jpg","null","mooney1","image-keyboard-response","462","1555542","0.0-6.0-1.65","3146596","co38305","norming","","","","","","",""
"5124","","","post_mooney1_questions","survey-likert","463","1560667","0.0-6.0-2.65","3146596","co38305","norming","","","{""curiosity"":2,""confidence"":3}","[0,1]","../img/tt/096tt.jpg","",""
"1789","","","recognition","survey-text","464","1562464","0.0-6.0-3.65","3146596","co38305","norming","","","{""guess"":""piano""}","","../img/tt/096tt.jpg","",""
"null","../img/gs/096gs.jpg","null","reveal","image-keyboard-response","465","1564467","0.0-6.0-4.65","3146596","co38305","norming","","","","","","",""
"null","../img/tt/096tt.jpg","null","mooney2","image-keyboard-response","466","1566469","0.0-6.0-5.65","3146596","co38305","norming","","","","","","",""
"2857.000000000233","","","post_reveal_questions","survey-likert","467","1569327","0.0-6.0-6.65","3146596","co38305","norming","","","{""aha"":1}","[0]","../img/tt/096tt.jpg","",""
"null","<div style=""font-size:60px;""> </div>","null","fixation","html-keyboard-response","468","1569530","0.0-6.0-0.66","3146596","co38305","norming","","","","","","",""
"null","../img/tt/1080tt.jpg","null","mooney1","image-keyboard-response","469","1572532","0.0-6.0-1.66","3146596","co38305","norming","","","","","","",""
"3016","","","post_mooney1_questions","survey-likert","470","1575549","0.0-6.0-2.66","3146596","co38305","norming","","","{""curiosity"":5,""confidence"":0}","[0,1]","../img/tt/1080tt.jpg","",""
"594","","","recognition","survey-text","471","1576150","0.0-6.0-3.66","3146596","co38305","norming","","","{""guess"":""""}","","../img/tt/1080tt.jpg","",""
"null","../img/gs/1080gs.jpg","null","reveal","image-keyboard-response","472","1578152","0.0-6.0-4.66","3146596","co38305","norming","","","","","","",""
"null","../img/tt/1080tt.jpg","null","mooney2","image-keyboard-response","473","1580154","0.0-6.0-5.66","3146596","co38305","norming","","","","","","",""
"2207","","","post_reveal_questions","survey-likert","474","1582363","0.0-6.0-6.66","3146596","co38305","norming","","","{""aha"":0}","[0]","../img/tt/1080tt.jpg","",""
"null","<div style=""font-size:60px;""> </div>","null","fixation","html-keyboard-response","475","1582567","0.0-6.0-0.67","3146596","co38305","norming","","","","","","",""
"null","../img/tt/1148tt.jpg","null","mooney1","image-keyboard-response","476","1585568","0.0-6.0-1.67","3146596","co38305","norming","","","","","","",""
"3737","","","post_mooney1_questions","survey-likert","477","1589306","0.0-6.0-2.67","3146596","co38305","norming","","","{""curiosity"":5,""confidence"":0}","[0,1]","../img/tt/1148tt.jpg","",""
"3576","","","recognition","survey-text","478","1592889","0.0-6.0-3.67","3146596","co38305","norming","","","{""guess"":""""}","","../img/tt/1148tt.jpg","",""
"null","../img/gs/1148gs.jpg","null","reveal","image-keyboard-response","479","1594891","0.0-6.0-4.67","3146596","co38305","norming","","","","","","",""
"null","../img/tt/1148tt.jpg","null","mooney2","image-keyboard-response","480","1596892","0.0-6.0-5.67","3146596","co38305","norming","","","","","","",""
"2380","","","post_reveal_questions","survey-likert","481","1599275","0.0-6.0-6.67","3146596","co38305","norming","","","{""aha"":4}","[0]","../img/tt/1148tt.jpg","",""
"null","<div style=""font-size:60px;""> </div>","null","fixation","html-keyboard-response","482","1599478","0.0-6.0-0.68","3146596","co38305","norming","","","","","","",""
"null","../img/tt/435tt.jpg","null","mooney1","image-keyboard-response","483","1602480","0.0-6.0-1.68","3146596","co38305","norming","","","","","","",""
"5787.999999999767","","","post_mooney1_questions","survey-likert","484","1608270","0.0-6.0-2.68","3146596","co38305","norming","","","{""curiosity"":3,""confidence"":1}","[0,1]","../img/tt/435tt.jpg","",""
"4149","","","recognition","survey-text","485","1612427","0.0-6.0-3.68","3146596","co38305","norming","","","{""guess"":""naaimachine""}","","../img/tt/435tt.jpg","",""
"null","../img/gs/435gs.jpg","null","reveal","image-keyboard-response","486","1614429","0.0-6.0-4.68","3146596","co38305","norming","","","","","","",""
"null","../img/tt/435tt.jpg","null","mooney2","image-keyboard-response","487","1616431","0.0-6.0-5.68","3146596","co38305","norming","","","","","","",""
"2872","","","post_reveal_questions","survey-likert","488","1619305","0.0-6.0-6.68","3146596","co38305","norming","","","{""aha"":4}","[0]","../img/tt/435tt.jpg","",""
"null","<div style=""font-size:60px;""> </div>","null","fixation","html-keyboard-response","489","1619508","0.0-6.0-0.69","3146596","co38305","norming","","","","","","",""
"null","../img/tt/1156tt.jpg","null","mooney1","image-keyboard-response","490","1622511","0.0-6.0-1.69","3146596","co38305","norming","","","","","","",""
"4207.999999999767","","","post_mooney1_questions","survey-likert","491","1626720","0.0-6.0-2.69","3146596","co38305","norming","","","{""curiosity"":4,""confidence"":1}","[0,1]","../img/tt/1156tt.jpg","",""
"2391","","","recognition","survey-text","492","1629119","0.0-6.0-3.69","3146596","co38305","norming","","","{""guess"":""zwemster""}","","../img/tt/1156tt.jpg","",""
"null","../img/gs/1156gs.jpg","null","reveal","image-keyboard-response","493","1631122","0.0-6.0-4.69","3146596","co38305","norming","","","","","","",""
"null","../img/tt/1156tt.jpg","null","mooney2","image-keyboard-response","494","1633124","0.0-6.0-5.69","3146596","co38305","norming","","","","","","",""
"1829.0000000002328","","","post_reveal_questions","survey-likert","495","1634954","0.0-6.0-6.69","3146596","co38305","norming","","","{""aha"":4}","[0]","../img/tt/1156tt.jpg","",""
"null","<div style=""font-size:60px;""> </div>","null","fixation","html-keyboard-response","496","1635157","0.0-6.0-0.70","3146596","co38305","norming","","","","","","",""
"null","../img/tt/1127tt.jpg","null","mooney1","image-keyboard-response","497","1638160","0.0-6.0-1.70","3146596","co38305","norming","","","","","","",""
"4062.000000000233","","","post_mooney1_questions","survey-likert","498","1642223","0.0-6.0-2.70","3146596","co38305","norming","","","{""curiosity"":5,""confidence"":2}","[0,1]","../img/tt/1127tt.jpg","",""
"4641","","","recognition","survey-text","499","1646872","0.0-6.0-3.70","3146596","co38305","norming","","","{""guess"":""zwaardvechten""}","","../img/tt/1127tt.jpg","",""
"null","../img/gs/1127gs.jpg","null","reveal","image-keyboard-response","500","1648874","0.0-6.0-4.70","3146596","co38305","norming","","","","","","",""
"null","../img/tt/1127tt.jpg","null","mooney2","image-keyboard-response","501","1650876","0.0-6.0-5.70","3146596","co38305","norming","","","","","","",""
"3567","","","post_reveal_questions","survey-likert","502","1654445","0.0-6.0-6.70","3146596","co38305","norming","","","{""aha"":2}","[0]","../img/tt/1127tt.jpg","",""
"null","<div style=""font-size:60px;""> </div>","null","fixation","html-keyboard-response","503","1654648","0.0-6.0-0.71","3146596","co38305","norming","","","","","","",""
"null","../img/tt/1307tt.jpg","null","mooney1","image-keyboard-response","504","1657650","0.0-6.0-1.71","3146596","co38305","norming","","","","","","",""
"7896","","","post_mooney1_questions","survey-likert","505","1665547","0.0-6.0-2.71","3146596","co38305","norming","","","{""curiosity"":6,""confidence"":1}","[0,1]","../img/tt/1307tt.jpg","",""
"2815.000000000233","","","recognition","survey-text","506","1668368","0.0-6.0-3.71","3146596","co38305","norming","","","{""guess"":""spinnenwiel""}","","../img/tt/1307tt.jpg","",""
"null","../img/gs/1307gs.jpg","null","reveal","image-keyboard-response","507","1670370","0.0-6.0-4.71","3146596","co38305","norming","","","","","","",""
"null","../img/tt/1307tt.jpg","null","mooney2","image-keyboard-response","508","1672373","0.0-6.0-5.71","3146596","co38305","norming","","","","","","",""
"1644","","","post_reveal_questions","survey-likert","509","1674018","0.0-6.0-6.71","3146596","co38305","norming","","","{""aha"":3}","[0]","../img/tt/1307tt.jpg","",""
"null","<div style=""font-size:60px;""> </div>","null","fixation","html-keyboard-response","510","1674222","0.0-6.0-0.72","3146596","co38305","norming","","","","","","",""
"null","../img/tt/1191tt.jpg","null","mooney1","image-keyboard-response","511","1677223","0.0-6.0-1.72","3146596","co38305","norming","","","","","","",""
"6891.999999999767","","","post_mooney1_questions","survey-likert","512","1684117","0.0-6.0-2.72","3146596","co38305","norming","","","{""curiosity"":5,""confidence"":0}","[0,1]","../img/tt/1191tt.jpg","",""
"1567","","","recognition","survey-text","513","1685692","0.0-6.0-3.72","3146596","co38305","norming","","","{""guess"":""polo""}","","../img/tt/1191tt.jpg","",""
"null","../img/gs/1191gs.jpg","null","reveal","image-keyboard-response","514","1687694","0.0-6.0-4.72","3146596","co38305","norming","","","","","","",""
"null","../img/tt/1191tt.jpg","null","mooney2","image-keyboard-response","515","1689696","0.0-6.0-5.72","3146596","co38305","norming","","","","","","",""
"1552","","","post_reveal_questions","survey-likert","516","1691250","0.0-6.0-6.72","3146596","co38305","norming","","","{""aha"":1}","[0]","../img/tt/1191tt.jpg","",""
"null","<div style=""font-size:60px;""> </div>","null","fixation","html-keyboard-response","517","1691453","0.0-6.0-0.73","3146596","co38305","norming","","","","","","",""
"null","../img/tt/1227tt.jpg","null","mooney1","image-keyboard-response","518","1694456","0.0-6.0-1.73","3146596","co38305","norming","","","","","","",""
"4121","","","post_mooney1_questions","survey-likert","519","1698578","0.0-6.0-2.73","3146596","co38305","norming","","","{""curiosity"":4,""confidence"":0}","[0,1]","../img/tt/1227tt.jpg","",""
"966.0000000002328","","","recognition","survey-text","520","1699552","0.0-6.0-3.73","3146596","co38305","norming","","","{""guess"":""""}","","../img/tt/1227tt.jpg","",""
"null","../img/gs/1227gs.jpg","null","reveal","image-keyboard-response","521","1701554","0.0-6.0-4.73","3146596","co38305","norming","","","","","","",""
"null","../img/tt/1227tt.jpg","null","mooney2","image-keyboard-response","522","1703557","0.0-6.0-5.73","3146596","co38305","norming","","","","","","",""
"2471","","","post_reveal_questions","survey-likert","523","1706029","0.0-6.0-6.73","3146596","co38305","norming","","","{""aha"":5}","[0]","../img/tt/1227tt.jpg","",""
"null","<div style=""font-size:60px;""> </div>","null","fixation","html-keyboard-response","524","1706232","0.0-6.0-0.74","3146596","co38305","norming","","","","","","",""
"null","../img/tt/456tt.jpg","null","mooney1","image-keyboard-response","525","1709234","0.0-6.0-1.74","3146596","co38305","norming","","","","","","",""
"3358.999999999767","","","post_mooney1_questions","survey-likert","526","1712595","0.0-6.0-2.74","3146596","co38305","norming","","","{""curiosity"":6,""confidence"":0}","[0,1]","../img/tt/456tt.jpg","",""
"834.0000000002328","","","recognition","survey-text","527","1713436","0.0-6.0-3.74","3146596","co38305","norming","","","{""guess"":""""}","","../img/tt/456tt.jpg","",""
"null","../img/gs/456gs.jpg","null","reveal","image-keyboard-response","528","1715438","0.0-6.0-4.74","3146596","co38305","norming","","","","","","",""
"null","../img/tt/456tt.jpg","null","mooney2","image-keyboard-response","529","1717441","0.0-6.0-5.74","3146596","co38305","norming","","","","","","",""
"2190","","","post_reveal_questions","survey-likert","530","1719632","0.0-6.0-6.74","3146596","co38305","norming","","","{""aha"":2}","[0]","../img/tt/456tt.jpg","",""
"null","<div style=""font-size:60px;""> </div>","null","fixation","html-keyboard-response","531","1719835","0.0-6.0-0.75","3146596","co38305","norming","","","","","","",""
"null","../img/tt/1049tt.jpg","null","mooney1","image-keyboard-response","532","1722838","0.0-6.0-1.75","3146596","co38305","norming","","","","","","",""
"4696","","","post_mooney1_questions","survey-likert","533","1727535","0.0-6.0-2.75","3146596","co38305","norming","","","{""curiosity"":5,""confidence"":1}","[0,1]","../img/tt/1049tt.jpg","",""
"1288","","","recognition","survey-text","534","1728831","0.0-6.0-3.75","3146596","co38305","norming","","","{""guess"":""aap""}","","../img/tt/1049tt.jpg","",""
"null","../img/gs/1049gs.jpg","null","reveal","image-keyboard-response","535","1730834","0.0-6.0-4.75","3146596","co38305","norming","","","","","","",""
"null","../img/tt/1049tt.jpg","null","mooney2","image-keyboard-response","536","1732835","0.0-6.0-5.75","3146596","co38305","norming","","","","","","",""
"2932","","","post_reveal_questions","survey-likert","537","1735768","0.0-6.0-6.75","3146596","co38305","norming","","","{""aha"":4}","[0]","../img/tt/1049tt.jpg","",""
"null","<div style=""font-size:60px;""> </div>","null","fixation","html-keyboard-response","538","1735971","0.0-6.0-0.76","3146596","co38305","norming","","","","","","",""
"null","../img/tt/307tt.jpg","null","mooney1","image-keyboard-response","539","1738974","0.0-6.0-1.76","3146596","co38305","norming","","","","","","",""
"3901","","","post_mooney1_questions","survey-likert","540","1742877","0.0-6.0-2.76","3146596","co38305","norming","","","{""curiosity"":5,""confidence"":0}","[0,1]","../img/tt/307tt.jpg","",""
"673","","","recognition","survey-text","541","1743557","0.0-6.0-3.76","3146596","co38305","norming","","","{""guess"":""""}","","../img/tt/307tt.jpg","",""
"null","../img/gs/307gs.jpg","null","reveal","image-keyboard-response","542","1745560","0.0-6.0-4.76","3146596","co38305","norming","","","","","","",""
"null","../img/tt/307tt.jpg","null","mooney2","image-keyboard-response","543","1747562","0.0-6.0-5.76","3146596","co38305","norming","","","","","","",""
"2731.999999999767","","","post_reveal_questions","survey-likert","544","1750295","0.0-6.0-6.76","3146596","co38305","norming","","","{""aha"":1}","[0]","../img/tt/307tt.jpg","",""
"null","<div style=""font-size:60px;""> </div>","null","fixation","html-keyboard-response","545","1750498","0.0-6.0-0.77","3146596","co38305","norming","","","","","","",""
"null","../img/tt/1278tt.jpg","null","mooney1","image-keyboard-response","546","1753500","0.0-6.0-1.77","3146596","co38305","norming","","","","","","",""
"10617","","","post_mooney1_questions","survey-likert","547","1764120","0.0-6.0-2.77","3146596","co38305","norming","","","{""curiosity"":4,""confidence"":0}","[0,1]","../img/tt/1278tt.jpg","",""
"1419","","","recognition","survey-text","548","1765546","0.0-6.0-3.77","3146596","co38305","norming","","","{""guess"":""""}","","../img/tt/1278tt.jpg","",""
"null","../img/gs/1278gs.jpg","null","reveal","image-keyboard-response","549","1767548","0.0-6.0-4.77","3146596","co38305","norming","","","","","","",""
"null","../img/tt/1278tt.jpg","null","mooney2","image-keyboard-response","550","1769550","0.0-6.0-5.77","3146596","co38305","norming","","","","","","",""
"14357","","","post_reveal_questions","survey-likert","551","1783908","0.0-6.0-6.77","3146596","co38305","norming","","","{""aha"":0}","[0]","../img/tt/1278tt.jpg","",""
"null","<div style=""font-size:60px;""> </div>","null","fixation","html-keyboard-response","552","1784110","0.0-6.0-0.78","3146596","co38305","norming","","","","","","",""
"null","../img/tt/036tt.jpg","null","mooney1","image-keyboard-response","553","1787113","0.0-6.0-1.78","3146596","co38305","norming","","","","","","",""
"4612","","","post_mooney1_questions","survey-likert","554","1791727","0.0-6.0-2.78","3146596","co38305","norming","","","{""curiosity"":6,""confidence"":1}","[0,1]","../img/tt/036tt.jpg","",""
"2754","","","recognition","survey-text","555","1794489","0.0-6.0-3.78","3146596","co38305","norming","","","{""guess"":""spinnenweb""}","","../img/tt/036tt.jpg","",""
"null","../img/gs/036gs.jpg","null","reveal","image-keyboard-response","556","1796492","0.0-6.0-4.78","3146596","co38305","norming","","","","","","",""
"null","../img/tt/036tt.jpg","null","mooney2","image-keyboard-response","557","1798494","0.0-6.0-5.78","3146596","co38305","norming","","","","","","",""
"6578","","","post_reveal_questions","survey-likert","558","1805074","0.0-6.0-6.78","3146596","co38305","norming","","","{""aha"":6}","[0]","../img/tt/036tt.jpg","",""
"null","<div style=""font-size:60px;""> </div>","null","fixation","html-keyboard-response","559","1805277","0.0-6.0-0.79","3146596","co38305","norming","","","","","","",""
"null","../img/tt/412tt.jpg","null","mooney1","image-keyboard-response","560","1808279","0.0-6.0-1.79","3146596","co38305","norming","","","","","","",""
"5954","","","post_mooney1_questions","survey-likert","561","1814235","0.0-6.0-2.79","3146596","co38305","norming","","","{""curiosity"":6,""confidence"":1}","[0,1]","../img/tt/412tt.jpg","",""
"2410","","","recognition","survey-text","562","1816653","0.0-6.0-3.79","3146596","co38305","norming","","","{""guess"":""watertank""}","","../img/tt/412tt.jpg","",""
"null","../img/gs/412gs.jpg","null","reveal","image-keyboard-response","563","1818655","0.0-6.0-4.79","3146596","co38305","norming","","","","","","",""
"null","../img/tt/412tt.jpg","null","mooney2","image-keyboard-response","564","1820656","0.0-6.0-5.79","3146596","co38305","norming","","","","","","",""
"2902","","","post_reveal_questions","survey-likert","565","1823559","0.0-6.0-6.79","3146596","co38305","norming","","","{""aha"":2}","[0]","../img/tt/412tt.jpg","",""
