"rt","stimulus","key_press","test_part","trial_type","trial_index","time_elapsed","internal_node_id","totalTime","subject","experiment_name","button_pressed","success","responses","question_order","currentStim","old","correct"
"3740.8249999862164","Welcome to the experiment. This is an online experiment so please don't close the tab/window until we say goodbye.  Press any key to begin.","32","instructions","html-keyboard-response","0","3775","0.0-0.0","2692340","co38845","norming","","","","","","",""
"16534.504999988712","<div style='word-wrap: break-word; width: 900px'><h3>Please consider this information carefully before deciding whether to participate in this research</h3><ul style='text-align: left; font-size: .8em;'><li><b>Purpose of the research</b>: To examine how people process images.</li><li><b>What you will do in this research</b>:  Stimuli (images) will be presented on the computer and you will be asked different questions about them.</li><li><b>Time required</b>: Participation will take between 45 and 60 minutes to complete.</li><li><b>Risks</b>:  There are no anticipated risks associated with participating in this study. The effects of participating should be comparable to those you would experience from viewing a computer monitor for 30 minutes and using a mouse or keyboard.</li><li><b>Benefits</b>:  This study provides no benefits to you individually except for the credit. The study provides important information about the nature of perception and learning.</li><li><b>Confidentiality</b>:  Your participation in this study will remain confidential. No personally identifiable information will be associated with your data. Your de-identified data may be shared with other researchers and used in future projects.</li><li><b>Participation and withdrawal</b>:  Your participation in this study is completely voluntary and you may refuse to participate or you may choose to withdraw at any time without penalty.</li><li><b>How to contact the researchers</b>: If you have questions or concerns about your participation or payment, or want to request a summary of research findings, please contact Sander Van de Cruys (KU Leuven), at sander.vandecruys@kuleuven.be.</li></ul><p>The nature and purpose of this research have been sufficiently explained and I agree to participate in this study.  I understand that I am free to withdraw at any time without incurring any penalty.</p><p>Please consent by clicking the button below to continue. Otherwise, please exit the study at this time.</p></div>","","instructions","html-button-response","1","20312","0.0-1.0","2692340","co38845","norming","0","","","","","",""
"","","","instructions","fullscreen","2","28561","0.0-2.0","2692340","co38845","norming","","true","","","","",""
"17929.75499999011","","","sona","survey-html-form","3","46493","0.0-3.0","2692340","co38845","norming","","","[{""name"":""sonaid"",""value"":""38845""},{""name"":""debrief"",""value"":""yes""},{""name"":""datajoin"",""value"":""yes""}]","","","",""
"80001.80500000715","<div style='word-wrap: break-word; width: 900px'><h3>Instructions</h3><p>This experiment will have 3 parts. In the first part you will see a series of distorted images like the one below on the left. As you can see in the righthand image, the distorted images are derived from actual photographs. In what follows, you will <strong>briefly</strong> be presented with <strong>only</strong> the distorted image.</p> <div style='float: left; margin-right: 20px;'><img src='../img/018tt.jpg' height='250' width='250'></img></div><div style='float: right; margin-left: 20px;'><img src='../img/018gs.jpg' height='250' width='250'></img></div><p>Subsequently you will be asked a few questions about the image: One question on how <strong>curious</strong> you are about the solution and one on how <strong>confident</strong> you are that you know the solution.</p>Next, we ask you to make a guess on what is in the image. Note that it is OK to name just the <strong>basic level category</strong>. For example when you see a parrot in the image, 'parrot' will obviously be a correct answer but also correct is 'bird'. However, 'animal' will <strong>not</strong> be counted as a correct response. For the example above, 'rose' would be correct or 'flower', but not 'plant'. When soccer players are depicted, 'soccer', 'football', 'soccer players' will be correct, but not 'humans', 'outdoors', or 'sports'. You do not need to describe the image in full, just name the main object in it <strong>in one or two words</strong>. All images depict objects from one of the following broad level categories: animals, inanimate objects, plants, sports, vehicles, and food. Recognizing means knowing <strong>more</strong> than these broad labels for a given image. But we always encourage you to <strong>make a guess</strong> if you can. Note that you are allowed to use <strong>Dutch and English</strong> in your answers, whatever comes easiest for you.</p><p>Press any key to continue.</p></div>","13","instructions","html-keyboard-response","4","126497","0.0-4.0","2692340","co38845","norming","","","","","","",""
"17067.284999997355","<div style='word-wrap: break-word; width: 900px'><h3>Instructions</h3> <p>Next, the solution image will be revealed to you and you'll be asked to indicate how strong your <strong>aha-experience</strong> was after seeing the solution. This describes the positive feeling of the 'click' you sometimes experience, when the pieces of the 'puzzle' fall together and you suddenly have 'insight' in the image.</p><img src='aha.jpg' height='188' width='250'></img><p>Note that there are no right or wrong answers. We are interested in what <strong>you</strong> see in the image and how <strong>you</strong> feel about it.</p><p>Press any key to start the experiment.</p></div>","13","instructions","html-keyboard-response","5","143565","0.0-5.0","2692340","co38845","norming","","","","","","",""
"null","<div style=""font-size:60px;""> </div>","null","fixation","html-keyboard-response","6","143767","0.0-6.0-0.0","2692340","co38845","norming","","","","","","",""
"null","../img/tt/273tt.jpg","null","mooney1","image-keyboard-response","7","146769","0.0-6.0-1.0","2692340","co38845","norming","","","","","","",""
"9745.884999982081","","","post_mooney1_questions","survey-likert","8","156517","0.0-6.0-2.0","2692340","co38845","norming","","","{""curiosity"":1,""confidence"":5}","[0,1]","../img/tt/273tt.jpg","",""
"5038.394999981392","","","recognition","survey-text","9","161560","0.0-6.0-3.0","2692340","co38845","norming","","","{""guess"":""tanden""}","","../img/tt/273tt.jpg","",""
"null","../img/gs/273gs.jpg","null","reveal","image-keyboard-response","10","163562","0.0-6.0-4.0","2692340","co38845","norming","","","","","","",""
"null","../img/tt/273tt.jpg","null","mooney2","image-keyboard-response","11","165564","0.0-6.0-5.0","2692340","co38845","norming","","","","","","",""
"3518.080000008922","","","post_reveal_questions","survey-likert","12","169084","0.0-6.0-6.0","2692340","co38845","norming","","","{""aha"":1}","[0]","../img/tt/273tt.jpg","",""
"null","<div style=""font-size:60px;""> </div>","null","fixation","html-keyboard-response","13","169289","0.0-6.0-0.1","2692340","co38845","norming","","","","","","",""
"null","../img/tt/1154tt.jpg","null","mooney1","image-keyboard-response","14","172307","0.0-6.0-1.1","2692340","co38845","norming","","","","","","",""
"51883.55999998748","","","post_mooney1_questions","survey-likert","15","224192","0.0-6.0-2.1","2692340","co38845","norming","","","{""curiosity"":4,""confidence"":2}","[0,1]","../img/tt/1154tt.jpg","",""
"8656.029999954626","","","recognition","survey-text","16","232856","0.0-6.0-3.1","2692340","co38845","norming","","","{""guess"":""woods""}","","../img/tt/1154tt.jpg","",""
"null","../img/gs/1154gs.jpg","null","reveal","image-keyboard-response","17","234859","0.0-6.0-4.1","2692340","co38845","norming","","","","","","",""
"null","../img/tt/1154tt.jpg","null","mooney2","image-keyboard-response","18","236861","0.0-6.0-5.1","2692340","co38845","norming","","","","","","",""
"24601.384999987204","","","post_reveal_questions","survey-likert","19","261464","0.0-6.0-6.1","2692340","co38845","norming","","","{""aha"":5}","[0]","../img/tt/1154tt.jpg","",""
"null","<div style=""font-size:60px;""> </div>","null","fixation","html-keyboard-response","20","261670","0.0-6.0-0.2","2692340","co38845","norming","","","","","","",""
"null","../img/tt/1148tt.jpg","null","mooney1","image-keyboard-response","21","264672","0.0-6.0-1.2","2692340","co38845","norming","","","","","","",""
"4751.705000002403","","","post_mooney1_questions","survey-likert","22","269426","0.0-6.0-2.2","2692340","co38845","norming","","","{""curiosity"":4,""confidence"":2}","[0,1]","../img/tt/1148tt.jpg","",""
"5301.915000018198","","","recognition","survey-text","23","274737","0.0-6.0-3.2","2692340","co38845","norming","","","{""guess"":""race car""}","","../img/tt/1148tt.jpg","",""
"null","../img/gs/1148gs.jpg","null","reveal","image-keyboard-response","24","276739","0.0-6.0-4.2","2692340","co38845","norming","","","","","","",""
"null","../img/tt/1148tt.jpg","null","mooney2","image-keyboard-response","25","278741","0.0-6.0-5.2","2692340","co38845","norming","","","","","","",""
"2694.6999999927357","","","post_reveal_questions","survey-likert","26","281438","0.0-6.0-6.2","2692340","co38845","norming","","","{""aha"":6}","[0]","../img/tt/1148tt.jpg","",""
"null","<div style=""font-size:60px;""> </div>","null","fixation","html-keyboard-response","27","281644","0.0-6.0-0.3","2692340","co38845","norming","","","","","","",""
"null","../img/tt/1159tt.jpg","null","mooney1","image-keyboard-response","28","284647","0.0-6.0-1.3","2692340","co38845","norming","","","","","","",""
"5318.329999980051","","","post_mooney1_questions","survey-likert","29","289967","0.0-6.0-2.3","2692340","co38845","norming","","","{""curiosity"":2,""confidence"":4}","[0,1]","../img/tt/1159tt.jpg","",""
"3171.3549999985844","","","recognition","survey-text","30","293147","0.0-6.0-3.3","2692340","co38845","norming","","","{""guess"":""golf""}","","../img/tt/1159tt.jpg","",""
"null","../img/gs/1159gs.jpg","null","reveal","image-keyboard-response","31","295149","0.0-6.0-4.3","2692340","co38845","norming","","","","","","",""
"null","../img/tt/1159tt.jpg","null","mooney2","image-keyboard-response","32","297150","0.0-6.0-5.3","2692340","co38845","norming","","","","","","",""
"4946.590000006836","","","post_reveal_questions","survey-likert","33","302097","0.0-6.0-6.3","2692340","co38845","norming","","","{""aha"":6}","[0]","../img/tt/1159tt.jpg","",""
"null","<div style=""font-size:60px;""> </div>","null","fixation","html-keyboard-response","34","302302","0.0-6.0-0.4","2692340","co38845","norming","","","","","","",""
"null","../img/tt/080tt.jpg","null","mooney1","image-keyboard-response","35","305303","0.0-6.0-1.4","2692340","co38845","norming","","","","","","",""
"8575.420000008307","","","post_mooney1_questions","survey-likert","36","313880","0.0-6.0-2.4","2692340","co38845","norming","","","{""curiosity"":6,""confidence"":1}","[0,1]","../img/tt/080tt.jpg","",""
"5189.0849999617785","","","recognition","survey-text","37","319074","0.0-6.0-3.4","2692340","co38845","norming","","","{""guess"":""mushroom""}","","../img/tt/080tt.jpg","",""
"null","../img/gs/080gs.jpg","null","reveal","image-keyboard-response","38","321076","0.0-6.0-4.4","2692340","co38845","norming","","","","","","",""
"null","../img/tt/080tt.jpg","null","mooney2","image-keyboard-response","39","323077","0.0-6.0-5.4","2692340","co38845","norming","","","","","","",""
"2995.8100000512786","","","post_reveal_questions","survey-likert","40","326074","0.0-6.0-6.4","2692340","co38845","norming","","","{""aha"":6}","[0]","../img/tt/080tt.jpg","",""
"null","<div style=""font-size:60px;""> </div>","null","fixation","html-keyboard-response","41","326278","0.0-6.0-0.5","2692340","co38845","norming","","","","","","",""
"null","../img/tt/1262tt.jpg","null","mooney1","image-keyboard-response","42","329280","0.0-6.0-1.5","2692340","co38845","norming","","","","","","",""
"4447.615000011865","","","post_mooney1_questions","survey-likert","43","333729","0.0-6.0-2.5","2692340","co38845","norming","","","{""curiosity"":6,""confidence"":4}","[0,1]","../img/tt/1262tt.jpg","",""
"3703.319999971427","","","recognition","survey-text","44","337441","0.0-6.0-3.5","2692340","co38845","norming","","","{""guess"":""hamster""}","","../img/tt/1262tt.jpg","",""
"null","../img/gs/1262gs.jpg","null","reveal","image-keyboard-response","45","339444","0.0-6.0-4.5","2692340","co38845","norming","","","","","","",""
"null","../img/tt/1262tt.jpg","null","mooney2","image-keyboard-response","46","341446","0.0-6.0-5.5","2692340","co38845","norming","","","","","","",""
"2286.9949999731034","","","post_reveal_questions","survey-likert","47","343735","0.0-6.0-6.5","2692340","co38845","norming","","","{""aha"":4}","[0]","../img/tt/1262tt.jpg","",""
"null","<div style=""font-size:60px;""> </div>","null","fixation","html-keyboard-response","48","343941","0.0-6.0-0.6","2692340","co38845","norming","","","","","","",""
"null","../img/tt/1116tt.jpg","null","mooney1","image-keyboard-response","49","346943","0.0-6.0-1.6","2692340","co38845","norming","","","","","","",""
"4741.670000017621","","","post_mooney1_questions","survey-likert","50","351688","0.0-6.0-2.6","2692340","co38845","norming","","","{""curiosity"":4,""confidence"":2}","[0,1]","../img/tt/1116tt.jpg","",""
"2897.1800000290386","","","recognition","survey-text","51","354593","0.0-6.0-3.6","2692340","co38845","norming","","","{""guess"":""auto""}","","../img/tt/1116tt.jpg","",""
"null","../img/gs/1116gs.jpg","null","reveal","image-keyboard-response","52","356596","0.0-6.0-4.6","2692340","co38845","norming","","","","","","",""
"null","../img/tt/1116tt.jpg","null","mooney2","image-keyboard-response","53","358598","0.0-6.0-5.6","2692340","co38845","norming","","","","","","",""
"3759.554999996908","","","post_reveal_questions","survey-likert","54","362359","0.0-6.0-6.6","2692340","co38845","norming","","","{""aha"":0}","[0]","../img/tt/1116tt.jpg","",""
"null","<div style=""font-size:60px;""> </div>","null","fixation","html-keyboard-response","55","362565","0.0-6.0-0.7","2692340","co38845","norming","","","","","","",""
"null","../img/tt/1228tt.jpg","null","mooney1","image-keyboard-response","56","365567","0.0-6.0-1.7","2692340","co38845","norming","","","","","","",""
"3814.4000000320375","","","post_mooney1_questions","survey-likert","57","369384","0.0-6.0-2.7","2692340","co38845","norming","","","{""curiosity"":5,""confidence"":3}","[0,1]","../img/tt/1228tt.jpg","",""
"3732.9199999803677","","","recognition","survey-text","58","373125","0.0-6.0-3.7","2692340","co38845","norming","","","{""guess"":""rooster""}","","../img/tt/1228tt.jpg","",""
"null","../img/gs/1228gs.jpg","null","reveal","image-keyboard-response","59","375127","0.0-6.0-4.7","2692340","co38845","norming","","","","","","",""
"null","../img/tt/1228tt.jpg","null","mooney2","image-keyboard-response","60","377129","0.0-6.0-5.7","2692340","co38845","norming","","","","","","",""
"2666.3100000005215","","","post_reveal_questions","survey-likert","61","379798","0.0-6.0-6.7","2692340","co38845","norming","","","{""aha"":4}","[0]","../img/tt/1228tt.jpg","",""
"null","<div style=""font-size:60px;""> </div>","null","fixation","html-keyboard-response","62","380004","0.0-6.0-0.8","2692340","co38845","norming","","","","","","",""
"null","../img/tt/1200tt.jpg","null","mooney1","image-keyboard-response","63","383006","0.0-6.0-1.8","2692340","co38845","norming","","","","","","",""
"7071.534999995492","","","post_mooney1_questions","survey-likert","64","390079","0.0-6.0-2.8","2692340","co38845","norming","","","{""curiosity"":3,""confidence"":3}","[0,1]","../img/tt/1200tt.jpg","",""
"2281.5349999582395","","","recognition","survey-text","65","392365","0.0-6.0-3.8","2692340","co38845","norming","","","{""guess"":""kano""}","","../img/tt/1200tt.jpg","",""
"null","../img/gs/1200gs.jpg","null","reveal","image-keyboard-response","66","394368","0.0-6.0-4.8","2692340","co38845","norming","","","","","","",""
"null","../img/tt/1200tt.jpg","null","mooney2","image-keyboard-response","67","396370","0.0-6.0-5.8","2692340","co38845","norming","","","","","","",""
"2643.854999972973","","","post_reveal_questions","survey-likert","68","399015","0.0-6.0-6.8","2692340","co38845","norming","","","{""aha"":0}","[0]","../img/tt/1200tt.jpg","",""
"null","<div style=""font-size:60px;""> </div>","null","fixation","html-keyboard-response","69","399222","0.0-6.0-0.9","2692340","co38845","norming","","","","","","",""
"null","../img/tt/1048tt.jpg","null","mooney1","image-keyboard-response","70","402223","0.0-6.0-1.9","2692340","co38845","norming","","","","","","",""
"6089.7250000271015","","","post_mooney1_questions","survey-likert","71","408315","0.0-6.0-2.9","2692340","co38845","norming","","","{""curiosity"":0,""confidence"":0}","[0,1]","../img/tt/1048tt.jpg","",""
"4110.069999995176","","","recognition","survey-text","72","412431","0.0-6.0-3.9","2692340","co38845","norming","","","{""guess"":""bob marley""}","","../img/tt/1048tt.jpg","",""
"null","../img/gs/1048gs.jpg","null","reveal","image-keyboard-response","73","414432","0.0-6.0-4.9","2692340","co38845","norming","","","","","","",""
"null","../img/tt/1048tt.jpg","null","mooney2","image-keyboard-response","74","416433","0.0-6.0-5.9","2692340","co38845","norming","","","","","","",""
"2565.6850000377744","","","post_reveal_questions","survey-likert","75","419000","0.0-6.0-6.9","2692340","co38845","norming","","","{""aha"":0}","[0]","../img/tt/1048tt.jpg","",""
"null","<div style=""font-size:60px;""> </div>","null","fixation","html-keyboard-response","76","419204","0.0-6.0-0.10","2692340","co38845","norming","","","","","","",""
"null","../img/tt/091tt.jpg","null","mooney1","image-keyboard-response","77","422206","0.0-6.0-1.10","2692340","co38845","norming","","","","","","",""
"5056.89499998698","","","post_mooney1_questions","survey-likert","78","427265","0.0-6.0-2.10","2692340","co38845","norming","","","{""curiosity"":2,""confidence"":2}","[0,1]","../img/tt/091tt.jpg","",""
"2604.8099999898113","","","recognition","survey-text","79","429875","0.0-6.0-3.10","2692340","co38845","norming","","","{""guess"":""dog""}","","../img/tt/091tt.jpg","",""
"null","../img/gs/091gs.jpg","null","reveal","image-keyboard-response","80","431876","0.0-6.0-4.10","2692340","co38845","norming","","","","","","",""
"null","../img/tt/091tt.jpg","null","mooney2","image-keyboard-response","81","433877","0.0-6.0-5.10","2692340","co38845","norming","","","","","","",""
"2848.08999998495","","","post_reveal_questions","survey-likert","82","436727","0.0-6.0-6.10","2692340","co38845","norming","","","{""aha"":3}","[0]","../img/tt/091tt.jpg","",""
"null","<div style=""font-size:60px;""> </div>","null","fixation","html-keyboard-response","83","436931","0.0-6.0-0.11","2692340","co38845","norming","","","","","","",""
"null","../img/tt/1046tt.jpg","null","mooney1","image-keyboard-response","84","439933","0.0-6.0-1.11","2692340","co38845","norming","","","","","","",""
"7329.979999980424","","","post_mooney1_questions","survey-likert","85","447264","0.0-6.0-2.11","2692340","co38845","norming","","","{""curiosity"":4,""confidence"":2}","[0,1]","../img/tt/1046tt.jpg","",""
"2349.679999984801","","","recognition","survey-text","86","449619","0.0-6.0-3.11","2692340","co38845","norming","","","{""guess"":""cat""}","","../img/tt/1046tt.jpg","",""
"null","../img/gs/1046gs.jpg","null","reveal","image-keyboard-response","87","451621","0.0-6.0-4.11","2692340","co38845","norming","","","","","","",""
"null","../img/tt/1046tt.jpg","null","mooney2","image-keyboard-response","88","453623","0.0-6.0-5.11","2692340","co38845","norming","","","","","","",""
"2360.704999999143","","","post_reveal_questions","survey-likert","89","455985","0.0-6.0-6.11","2692340","co38845","norming","","","{""aha"":5}","[0]","../img/tt/1046tt.jpg","",""
"null","<div style=""font-size:60px;""> </div>","null","fixation","html-keyboard-response","90","456188","0.0-6.0-0.12","2692340","co38845","norming","","","","","","",""
"null","../img/tt/032tt.jpg","null","mooney1","image-keyboard-response","91","459189","0.0-6.0-1.12","2692340","co38845","norming","","","","","","",""
"4004.499999980908","","","post_mooney1_questions","survey-likert","92","463195","0.0-6.0-2.12","2692340","co38845","norming","","","{""curiosity"":4,""confidence"":3}","[0,1]","../img/tt/032tt.jpg","",""
"2842.2600000048988","","","recognition","survey-text","93","466046","0.0-6.0-3.12","2692340","co38845","norming","","","{""guess"":""old man""}","","../img/tt/032tt.jpg","",""
"null","../img/gs/032gs.jpg","null","reveal","image-keyboard-response","94","468049","0.0-6.0-4.12","2692340","co38845","norming","","","","","","",""
"null","../img/tt/032tt.jpg","null","mooney2","image-keyboard-response","95","470050","0.0-6.0-5.12","2692340","co38845","norming","","","","","","",""
"2473.5249999794178","","","post_reveal_questions","survey-likert","96","472525","0.0-6.0-6.12","2692340","co38845","norming","","","{""aha"":4}","[0]","../img/tt/032tt.jpg","",""
"null","<div style=""font-size:60px;""> </div>","null","fixation","html-keyboard-response","97","472735","0.0-6.0-0.13","2692340","co38845","norming","","","","","","",""
"null","../img/tt/580tt.jpg","null","mooney1","image-keyboard-response","98","475738","0.0-6.0-1.13","2692340","co38845","norming","","","","","","",""
"5549.255000019912","","","post_mooney1_questions","survey-likert","99","481290","0.0-6.0-2.13","2692340","co38845","norming","","","{""curiosity"":5,""confidence"":0}","[0,1]","../img/tt/580tt.jpg","",""
"4415.775000001304","","","recognition","survey-text","100","485714","0.0-6.0-3.13","2692340","co38845","norming","","","{""guess"":""eyebrows""}","","../img/tt/580tt.jpg","",""
"null","../img/gs/580gs.jpg","null","reveal","image-keyboard-response","101","487717","0.0-6.0-4.13","2692340","co38845","norming","","","","","","",""
"null","../img/tt/580tt.jpg","null","mooney2","image-keyboard-response","102","489719","0.0-6.0-5.13","2692340","co38845","norming","","","","","","",""
"2491.5150000015274","","","post_reveal_questions","survey-likert","103","492213","0.0-6.0-6.13","2692340","co38845","norming","","","{""aha"":6}","[0]","../img/tt/580tt.jpg","",""
"null","<div style=""font-size:60px;""> </div>","null","fixation","html-keyboard-response","104","492419","0.0-6.0-0.14","2692340","co38845","norming","","","","","","",""
"null","../img/tt/517tt.jpg","null","mooney1","image-keyboard-response","105","495421","0.0-6.0-1.14","2692340","co38845","norming","","","","","","",""
"5897.369999962393","","","post_mooney1_questions","survey-likert","106","501321","0.0-6.0-2.14","2692340","co38845","norming","","","{""curiosity"":4,""confidence"":3}","[0,1]","../img/tt/517tt.jpg","",""
"3509.455000050366","","","recognition","survey-text","107","504839","0.0-6.0-3.14","2692340","co38845","norming","","","{""guess"":""raccoon""}","","../img/tt/517tt.jpg","",""
"null","../img/gs/517gs.jpg","null","reveal","image-keyboard-response","108","506841","0.0-6.0-4.14","2692340","co38845","norming","","","","","","",""
"null","../img/tt/517tt.jpg","null","mooney2","image-keyboard-response","109","508843","0.0-6.0-5.14","2692340","co38845","norming","","","","","","",""
"3968.769999977667","","","post_reveal_questions","survey-likert","110","512814","0.0-6.0-6.14","2692340","co38845","norming","","","{""aha"":2}","[0]","../img/tt/517tt.jpg","",""
"null","<div style=""font-size:60px;""> </div>","null","fixation","html-keyboard-response","111","513020","0.0-6.0-0.15","2692340","co38845","norming","","","","","","",""
"null","../img/tt/481tt.jpg","null","mooney1","image-keyboard-response","112","516021","0.0-6.0-1.15","2692340","co38845","norming","","","","","","",""
"5338.0749999778345","","","post_mooney1_questions","survey-likert","113","521362","0.0-6.0-2.15","2692340","co38845","norming","","","{""curiosity"":4,""confidence"":1}","[0,1]","../img/tt/481tt.jpg","",""
"4780.879999976605","","","recognition","survey-text","114","526151","0.0-6.0-3.15","2692340","co38845","norming","","","{""guess"":""skeleton""}","","../img/tt/481tt.jpg","",""
"null","../img/gs/481gs.jpg","null","reveal","image-keyboard-response","115","528154","0.0-6.0-4.15","2692340","co38845","norming","","","","","","",""
"null","../img/tt/481tt.jpg","null","mooney2","image-keyboard-response","116","530156","0.0-6.0-5.15","2692340","co38845","norming","","","","","","",""
"2367.2899999655783","","","post_reveal_questions","survey-likert","117","532525","0.0-6.0-6.15","2692340","co38845","norming","","","{""aha"":6}","[0]","../img/tt/481tt.jpg","",""
"null","<div style=""font-size:60px;""> </div>","null","fixation","html-keyboard-response","118","532729","0.0-6.0-0.16","2692340","co38845","norming","","","","","","",""
"null","../img/tt/105tt.jpg","null","mooney1","image-keyboard-response","119","535731","0.0-6.0-1.16","2692340","co38845","norming","","","","","","",""
"3833.1449999823235","","","post_mooney1_questions","survey-likert","120","539566","0.0-6.0-2.16","2692340","co38845","norming","","","{""curiosity"":1,""confidence"":4}","[0,1]","../img/tt/105tt.jpg","",""
"2751.99000001885","","","recognition","survey-text","121","542322","0.0-6.0-3.16","2692340","co38845","norming","","","{""guess"":""germs""}","","../img/tt/105tt.jpg","",""
"null","../img/gs/105gs.jpg","null","reveal","image-keyboard-response","122","544323","0.0-6.0-4.16","2692340","co38845","norming","","","","","","",""
"null","../img/tt/105tt.jpg","null","mooney2","image-keyboard-response","123","546324","0.0-6.0-5.16","2692340","co38845","norming","","","","","","",""
"2175.0449999817647","","","post_reveal_questions","survey-likert","124","548501","0.0-6.0-6.16","2692340","co38845","norming","","","{""aha"":5}","[0]","../img/tt/105tt.jpg","",""
"null","<div style=""font-size:60px;""> </div>","null","fixation","html-keyboard-response","125","548704","0.0-6.0-0.17","2692340","co38845","norming","","","","","","",""
"null","../img/tt/1142tt.jpg","null","mooney1","image-keyboard-response","126","551706","0.0-6.0-1.17","2692340","co38845","norming","","","","","","",""
"4046.730000001844","","","post_mooney1_questions","survey-likert","127","555754","0.0-6.0-2.17","2692340","co38845","norming","","","{""curiosity"":1,""confidence"":3}","[0,1]","../img/tt/1142tt.jpg","",""
"3778.950000007171","","","recognition","survey-text","128","559538","0.0-6.0-3.17","2692340","co38845","norming","","","{""guess"":""tennis""}","","../img/tt/1142tt.jpg","",""
"null","../img/gs/1142gs.jpg","null","reveal","image-keyboard-response","129","561541","0.0-6.0-4.17","2692340","co38845","norming","","","","","","",""
"null","../img/tt/1142tt.jpg","null","mooney2","image-keyboard-response","130","563542","0.0-6.0-5.17","2692340","co38845","norming","","","","","","",""
"3345.8300000056624","","","post_reveal_questions","survey-likert","131","566889","0.0-6.0-6.17","2692340","co38845","norming","","","{""aha"":0}","[0]","../img/tt/1142tt.jpg","",""
"null","<div style=""font-size:60px;""> </div>","null","fixation","html-keyboard-response","132","567093","0.0-6.0-0.18","2692340","co38845","norming","","","","","","",""
"null","../img/tt/307tt.jpg","null","mooney1","image-keyboard-response","133","570095","0.0-6.0-1.18","2692340","co38845","norming","","","","","","",""
"5494.624999992084","","","post_mooney1_questions","survey-likert","134","575591","0.0-6.0-2.18","2692340","co38845","norming","","","{""curiosity"":2,""confidence"":3}","[0,1]","../img/tt/307tt.jpg","",""
"3330.6250000023283","","","recognition","survey-text","135","578926","0.0-6.0-3.18","2692340","co38845","norming","","","{""guess"":""shoe""}","","../img/tt/307tt.jpg","",""
"null","../img/gs/307gs.jpg","null","reveal","image-keyboard-response","136","580928","0.0-6.0-4.18","2692340","co38845","norming","","","","","","",""
"null","../img/tt/307tt.jpg","null","mooney2","image-keyboard-response","137","582929","0.0-6.0-5.18","2692340","co38845","norming","","","","","","",""
"2778.2650000299327","","","post_reveal_questions","survey-likert","138","585709","0.0-6.0-6.18","2692340","co38845","norming","","","{""aha"":1}","[0]","../img/tt/307tt.jpg","",""
"null","<div style=""font-size:60px;""> </div>","null","fixation","html-keyboard-response","139","585916","0.0-6.0-0.19","2692340","co38845","norming","","","","","","",""
"null","../img/tt/270tt.jpg","null","mooney1","image-keyboard-response","140","588918","0.0-6.0-1.19","2692340","co38845","norming","","","","","","",""
"3764.9850000161678","","","post_mooney1_questions","survey-likert","141","592685","0.0-6.0-2.19","2692340","co38845","norming","","","{""curiosity"":3,""confidence"":2}","[0,1]","../img/tt/270tt.jpg","",""
"2340.31999995932","","","recognition","survey-text","142","595038","0.0-6.0-3.19","2692340","co38845","norming","","","{""guess"":""woods""}","","../img/tt/270tt.jpg","",""
"null","../img/gs/270gs.jpg","null","reveal","image-keyboard-response","143","597042","0.0-6.0-4.19","2692340","co38845","norming","","","","","","",""
"null","../img/tt/270tt.jpg","null","mooney2","image-keyboard-response","144","599044","0.0-6.0-5.19","2692340","co38845","norming","","","","","","",""
"4979.129999992438","","","post_reveal_questions","survey-likert","145","604025","0.0-6.0-6.19","2692340","co38845","norming","","","{""aha"":2}","[0]","../img/tt/270tt.jpg","",""
"null","<div style=""font-size:60px;""> </div>","null","fixation","html-keyboard-response","146","604231","0.0-6.0-0.20","2692340","co38845","norming","","","","","","",""
"null","../img/tt/1283tt.jpg","null","mooney1","image-keyboard-response","147","607234","0.0-6.0-1.20","2692340","co38845","norming","","","","","","",""
"3525.214999972377","","","post_mooney1_questions","survey-likert","148","610762","0.0-6.0-2.20","2692340","co38845","norming","","","{""curiosity"":4,""confidence"":4}","[0,1]","../img/tt/1283tt.jpg","",""
"1630.234999989625","","","recognition","survey-text","149","612400","0.0-6.0-3.20","2692340","co38845","norming","","","{""guess"":""fox""}","","../img/tt/1283tt.jpg","",""
"null","../img/gs/1283gs.jpg","null","reveal","image-keyboard-response","150","614403","0.0-6.0-4.20","2692340","co38845","norming","","","","","","",""
"null","../img/tt/1283tt.jpg","null","mooney2","image-keyboard-response","151","616405","0.0-6.0-5.20","2692340","co38845","norming","","","","","","",""
"6771.0100000258535","","","post_reveal_questions","survey-likert","152","623178","0.0-6.0-6.20","2692340","co38845","norming","","","{""aha"":3}","[0]","../img/tt/1283tt.jpg","",""
"null","<div style=""font-size:60px;""> </div>","null","fixation","html-keyboard-response","153","623384","0.0-6.0-0.21","2692340","co38845","norming","","","","","","",""
"null","../img/tt/598tt.jpg","null","mooney1","image-keyboard-response","154","626386","0.0-6.0-1.21","2692340","co38845","norming","","","","","","",""
"3045.0500000151806","","","post_mooney1_questions","survey-likert","155","629433","0.0-6.0-2.21","2692340","co38845","norming","","","{""curiosity"":2,""confidence"":4}","[0,1]","../img/tt/598tt.jpg","",""
"3008.0650000018068","","","recognition","survey-text","156","632450","0.0-6.0-3.21","2692340","co38845","norming","","","{""guess"":""water pot""}","","../img/tt/598tt.jpg","",""
"null","../img/gs/598gs.jpg","null","reveal","image-keyboard-response","157","634452","0.0-6.0-4.21","2692340","co38845","norming","","","","","","",""
"null","../img/tt/598tt.jpg","null","mooney2","image-keyboard-response","158","636454","0.0-6.0-5.21","2692340","co38845","norming","","","","","","",""
"2415.2800000156276","","","post_reveal_questions","survey-likert","159","638871","0.0-6.0-6.21","2692340","co38845","norming","","","{""aha"":4}","[0]","../img/tt/598tt.jpg","",""
"null","<div style=""font-size:60px;""> </div>","null","fixation","html-keyboard-response","160","639079","0.0-6.0-0.22","2692340","co38845","norming","","","","","","",""
"null","../img/tt/1024tt.jpg","null","mooney1","image-keyboard-response","161","642081","0.0-6.0-1.22","2692340","co38845","norming","","","","","","",""
"4522.219999984372","","","post_mooney1_questions","survey-likert","162","646606","0.0-6.0-2.22","2692340","co38845","norming","","","{""curiosity"":4,""confidence"":1}","[0,1]","../img/tt/1024tt.jpg","",""
"2801.1000000406057","","","recognition","survey-text","163","649415","0.0-6.0-3.22","2692340","co38845","norming","","","{""guess"":""grass""}","","../img/tt/1024tt.jpg","",""
"null","../img/gs/1024gs.jpg","null","reveal","image-keyboard-response","164","651417","0.0-6.0-4.22","2692340","co38845","norming","","","","","","",""
"null","../img/tt/1024tt.jpg","null","mooney2","image-keyboard-response","165","653420","0.0-6.0-5.22","2692340","co38845","norming","","","","","","",""
"2574.0899999509566","","","post_reveal_questions","survey-likert","166","655995","0.0-6.0-6.22","2692340","co38845","norming","","","{""aha"":4}","[0]","../img/tt/1024tt.jpg","",""
"null","<div style=""font-size:60px;""> </div>","null","fixation","html-keyboard-response","167","656198","0.0-6.0-0.23","2692340","co38845","norming","","","","","","",""
"null","../img/tt/1268tt.jpg","null","mooney1","image-keyboard-response","168","659199","0.0-6.0-1.23","2692340","co38845","norming","","","","","","",""
"3895.9199999808334","","","post_mooney1_questions","survey-likert","169","663096","0.0-6.0-2.23","2692340","co38845","norming","","","{""curiosity"":3,""confidence"":2}","[0,1]","../img/tt/1268tt.jpg","",""
"2433.024999976624","","","recognition","survey-text","170","665534","0.0-6.0-3.23","2692340","co38845","norming","","","{""guess"":""bush""}","","../img/tt/1268tt.jpg","",""
"null","../img/gs/1268gs.jpg","null","reveal","image-keyboard-response","171","667536","0.0-6.0-4.23","2692340","co38845","norming","","","","","","",""
"null","../img/tt/1268tt.jpg","null","mooney2","image-keyboard-response","172","669538","0.0-6.0-5.23","2692340","co38845","norming","","","","","","",""
"2431.8400000338443","","","post_reveal_questions","survey-likert","173","671971","0.0-6.0-6.23","2692340","co38845","norming","","","{""aha"":5}","[0]","../img/tt/1268tt.jpg","",""
"null","<div style=""font-size:60px;""> </div>","null","fixation","html-keyboard-response","174","672175","0.0-6.0-0.24","2692340","co38845","norming","","","","","","",""
"null","../img/tt/1243tt.jpg","null","mooney1","image-keyboard-response","175","675177","0.0-6.0-1.24","2692340","co38845","norming","","","","","","",""
"3692.20500002848","","","post_mooney1_questions","survey-likert","176","678871","0.0-6.0-2.24","2692340","co38845","norming","","","{""curiosity"":4,""confidence"":4}","[0,1]","../img/tt/1243tt.jpg","",""
"3697.760000010021","","","recognition","survey-text","177","682573","0.0-6.0-3.24","2692340","co38845","norming","","","{""guess"":""grumpy man""}","","../img/tt/1243tt.jpg","",""
"null","../img/gs/1243gs.jpg","null","reveal","image-keyboard-response","178","684575","0.0-6.0-4.24","2692340","co38845","norming","","","","","","",""
"null","../img/tt/1243tt.jpg","null","mooney2","image-keyboard-response","179","686578","0.0-6.0-5.24","2692340","co38845","norming","","","","","","",""
"3360.4200000409037","","","post_reveal_questions","survey-likert","180","689939","0.0-6.0-6.24","2692340","co38845","norming","","","{""aha"":3}","[0]","../img/tt/1243tt.jpg","",""
"null","<div style=""font-size:60px;""> </div>","null","fixation","html-keyboard-response","181","690144","0.0-6.0-0.25","2692340","co38845","norming","","","","","","",""
"null","../img/tt/1309tt.jpg","null","mooney1","image-keyboard-response","182","693145","0.0-6.0-1.25","2692340","co38845","norming","","","","","","",""
"3911.5899999742396","","","post_mooney1_questions","survey-likert","183","697058","0.0-6.0-2.25","2692340","co38845","norming","","","{""curiosity"":4,""confidence"":2}","[0,1]","../img/tt/1309tt.jpg","",""
"1951.4450000133365","","","recognition","survey-text","184","699015","0.0-6.0-3.25","2692340","co38845","norming","","","{""guess"":""car""}","","../img/tt/1309tt.jpg","",""
"null","../img/gs/1309gs.jpg","null","reveal","image-keyboard-response","185","701018","0.0-6.0-4.25","2692340","co38845","norming","","","","","","",""
"null","../img/tt/1309tt.jpg","null","mooney2","image-keyboard-response","186","703020","0.0-6.0-5.25","2692340","co38845","norming","","","","","","",""
"2395.714999991469","","","post_reveal_questions","survey-likert","187","705418","0.0-6.0-6.25","2692340","co38845","norming","","","{""aha"":1}","[0]","../img/tt/1309tt.jpg","",""
"null","<div style=""font-size:60px;""> </div>","null","fixation","html-keyboard-response","188","705622","0.0-6.0-0.26","2692340","co38845","norming","","","","","","",""
"null","../img/tt/111tt.jpg","null","mooney1","image-keyboard-response","189","708623","0.0-6.0-1.26","2692340","co38845","norming","","","","","","",""
"4978.49499998847","","","post_mooney1_questions","survey-likert","190","713603","0.0-6.0-2.26","2692340","co38845","norming","","","{""curiosity"":0,""confidence"":6}","[0,1]","../img/tt/111tt.jpg","",""
"3669.385000015609","","","recognition","survey-text","191","717277","0.0-6.0-3.26","2692340","co38845","norming","","","{""guess"":""shower""}","","../img/tt/111tt.jpg","",""
"null","../img/gs/111gs.jpg","null","reveal","image-keyboard-response","192","719279","0.0-6.0-4.26","2692340","co38845","norming","","","","","","",""
"null","../img/tt/111tt.jpg","null","mooney2","image-keyboard-response","193","721280","0.0-6.0-5.26","2692340","co38845","norming","","","","","","",""
"2275.7500000298023","","","post_reveal_questions","survey-likert","194","723557","0.0-6.0-6.26","2692340","co38845","norming","","","{""aha"":0}","[0]","../img/tt/111tt.jpg","",""
"null","<div style=""font-size:60px;""> </div>","null","fixation","html-keyboard-response","195","723762","0.0-6.0-0.27","2692340","co38845","norming","","","","","","",""
"null","../img/tt/1261tt.jpg","null","mooney1","image-keyboard-response","196","726764","0.0-6.0-1.27","2692340","co38845","norming","","","","","","",""
"5087.14499999769","","","post_mooney1_questions","survey-likert","197","731853","0.0-6.0-2.27","2692340","co38845","norming","","","{""curiosity"":4,""confidence"":3}","[0,1]","../img/tt/1261tt.jpg","",""
"2109.6249999827705","","","recognition","survey-text","198","733968","0.0-6.0-3.27","2692340","co38845","norming","","","{""guess"":""cage""}","","../img/tt/1261tt.jpg","",""
"null","../img/gs/1261gs.jpg","null","reveal","image-keyboard-response","199","735970","0.0-6.0-4.27","2692340","co38845","norming","","","","","","",""
"null","../img/tt/1261tt.jpg","null","mooney2","image-keyboard-response","200","737972","0.0-6.0-5.27","2692340","co38845","norming","","","","","","",""
"2310.1599999936298","","","post_reveal_questions","survey-likert","201","740283","0.0-6.0-6.27","2692340","co38845","norming","","","{""aha"":3}","[0]","../img/tt/1261tt.jpg","",""
"null","<div style=""font-size:60px;""> </div>","null","fixation","html-keyboard-response","202","740488","0.0-6.0-0.28","2692340","co38845","norming","","","","","","",""
"null","../img/tt/534tt.jpg","null","mooney1","image-keyboard-response","203","743490","0.0-6.0-1.28","2692340","co38845","norming","","","","","","",""
"5174.034999974538","","","post_mooney1_questions","survey-likert","204","748665","0.0-6.0-2.28","2692340","co38845","norming","","","{""curiosity"":3,""confidence"":6}","[0,1]","../img/tt/534tt.jpg","",""
"6136.6000000271015","","","recognition","survey-text","205","754807","0.0-6.0-3.28","2692340","co38845","norming","","","{""guess"":""cacti""}","","../img/tt/534tt.jpg","",""
"null","../img/gs/534gs.jpg","null","reveal","image-keyboard-response","206","756809","0.0-6.0-4.28","2692340","co38845","norming","","","","","","",""
"null","../img/tt/534tt.jpg","null","mooney2","image-keyboard-response","207","758811","0.0-6.0-5.28","2692340","co38845","norming","","","","","","",""
"3517.7699999767356","","","post_reveal_questions","survey-likert","208","762330","0.0-6.0-6.28","2692340","co38845","norming","","","{""aha"":1}","[0]","../img/tt/534tt.jpg","",""
"null","<div style=""font-size:60px;""> </div>","null","fixation","html-keyboard-response","209","762534","0.0-6.0-0.29","2692340","co38845","norming","","","","","","",""
"null","../img/tt/353tt.jpg","null","mooney1","image-keyboard-response","210","765535","0.0-6.0-1.29","2692340","co38845","norming","","","","","","",""
"6739.279999979772","","","post_mooney1_questions","survey-likert","211","772276","0.0-6.0-2.29","2692340","co38845","norming","","","{""curiosity"":5,""confidence"":2}","[0,1]","../img/tt/353tt.jpg","",""
"3565.4750000103377","","","recognition","survey-text","212","775847","0.0-6.0-3.29","2692340","co38845","norming","","","{""guess"":""rocks""}","","../img/tt/353tt.jpg","",""
"null","../img/gs/353gs.jpg","null","reveal","image-keyboard-response","213","777849","0.0-6.0-4.29","2692340","co38845","norming","","","","","","",""
"null","../img/tt/353tt.jpg","null","mooney2","image-keyboard-response","214","779850","0.0-6.0-5.29","2692340","co38845","norming","","","","","","",""
"2167.3249999876134","","","post_reveal_questions","survey-likert","215","782019","0.0-6.0-6.29","2692340","co38845","norming","","","{""aha"":3}","[0]","../img/tt/353tt.jpg","",""
"null","<div style=""font-size:60px;""> </div>","null","fixation","html-keyboard-response","216","782225","0.0-6.0-0.30","2692340","co38845","norming","","","","","","",""
"null","../img/tt/1270tt.jpg","null","mooney1","image-keyboard-response","217","785227","0.0-6.0-1.30","2692340","co38845","norming","","","","","","",""
"5415.129999979399","","","post_mooney1_questions","survey-likert","218","790645","0.0-6.0-2.30","2692340","co38845","norming","","","{""curiosity"":5,""confidence"":1}","[0,1]","../img/tt/1270tt.jpg","",""
"4008.6449999944307","","","recognition","survey-text","219","794662","0.0-6.0-3.30","2692340","co38845","norming","","","{""guess"":""frog""}","","../img/tt/1270tt.jpg","",""
"null","../img/gs/1270gs.jpg","null","reveal","image-keyboard-response","220","796664","0.0-6.0-4.30","2692340","co38845","norming","","","","","","",""
"null","../img/tt/1270tt.jpg","null","mooney2","image-keyboard-response","221","798665","0.0-6.0-5.30","2692340","co38845","norming","","","","","","",""
"3950.1649999874644","","","post_reveal_questions","survey-likert","222","802617","0.0-6.0-6.30","2692340","co38845","norming","","","{""aha"":0}","[0]","../img/tt/1270tt.jpg","",""
"null","<div style=""font-size:60px;""> </div>","null","fixation","html-keyboard-response","223","802824","0.0-6.0-0.31","2692340","co38845","norming","","","","","","",""
"null","../img/tt/1080tt.jpg","null","mooney1","image-keyboard-response","224","805826","0.0-6.0-1.31","2692340","co38845","norming","","","","","","",""
"4038.639999984298","","","post_mooney1_questions","survey-likert","225","809868","0.0-6.0-2.31","2692340","co38845","norming","","","{""curiosity"":4,""confidence"":3}","[0,1]","../img/tt/1080tt.jpg","",""
"4570.835000020452","","","recognition","survey-text","226","814447","0.0-6.0-3.31","2692340","co38845","norming","","","{""guess"":""masked lady""}","","../img/tt/1080tt.jpg","",""
"null","../img/gs/1080gs.jpg","null","reveal","image-keyboard-response","227","816450","0.0-6.0-4.31","2692340","co38845","norming","","","","","","",""
"null","../img/tt/1080tt.jpg","null","mooney2","image-keyboard-response","228","818451","0.0-6.0-5.31","2692340","co38845","norming","","","","","","",""
"3518.3799999649636","","","post_reveal_questions","survey-likert","229","821972","0.0-6.0-6.31","2692340","co38845","norming","","","{""aha"":6}","[0]","../img/tt/1080tt.jpg","",""
"null","<div style=""font-size:60px;""> </div>","null","fixation","html-keyboard-response","230","822178","0.0-6.0-0.32","2692340","co38845","norming","","","","","","",""
"null","../img/tt/1127tt.jpg","null","mooney1","image-keyboard-response","231","825180","0.0-6.0-1.32","2692340","co38845","norming","","","","","","",""
"9891.669999982696","","","post_mooney1_questions","survey-likert","232","835073","0.0-6.0-2.32","2692340","co38845","norming","","","{""curiosity"":4,""confidence"":3}","[0,1]","../img/tt/1127tt.jpg","",""
"4905.209999997169","","","recognition","survey-text","233","839987","0.0-6.0-3.32","2692340","co38845","norming","","","{""guess"":""man bar""}","","../img/tt/1127tt.jpg","",""
"null","../img/gs/1127gs.jpg","null","reveal","image-keyboard-response","234","841989","0.0-6.0-4.32","2692340","co38845","norming","","","","","","",""
"null","../img/tt/1127tt.jpg","null","mooney2","image-keyboard-response","235","843991","0.0-6.0-5.32","2692340","co38845","norming","","","","","","",""
"4830.329999967944","","","post_reveal_questions","survey-likert","236","848823","0.0-6.0-6.32","2692340","co38845","norming","","","{""aha"":0}","[0]","../img/tt/1127tt.jpg","",""
"null","<div style=""font-size:60px;""> </div>","null","fixation","html-keyboard-response","237","849029","0.0-6.0-0.33","2692340","co38845","norming","","","","","","",""
"null","../img/tt/1279tt.jpg","null","mooney1","image-keyboard-response","238","852031","0.0-6.0-1.33","2692340","co38845","norming","","","","","","",""
"5674.234999984037","","","post_mooney1_questions","survey-likert","239","857707","0.0-6.0-2.33","2692340","co38845","norming","","","{""curiosity"":1,""confidence"":1}","[0,1]","../img/tt/1279tt.jpg","",""
"5782.6899999636225","","","recognition","survey-text","240","863495","0.0-6.0-3.33","2692340","co38845","norming","","","{""guess"":""spilled milk""}","","../img/tt/1279tt.jpg","",""
"null","../img/gs/1279gs.jpg","null","reveal","image-keyboard-response","241","865497","0.0-6.0-4.33","2692340","co38845","norming","","","","","","",""
"null","../img/tt/1279tt.jpg","null","mooney2","image-keyboard-response","242","867499","0.0-6.0-5.33","2692340","co38845","norming","","","","","","",""
"2671.3749999762513","","","post_reveal_questions","survey-likert","243","870172","0.0-6.0-6.33","2692340","co38845","norming","","","{""aha"":0}","[0]","../img/tt/1279tt.jpg","",""
"null","<div style=""font-size:60px;""> </div>","null","fixation","html-keyboard-response","244","870376","0.0-6.0-0.34","2692340","co38845","norming","","","","","","",""
"null","../img/tt/1181tt.jpg","null","mooney1","image-keyboard-response","245","873378","0.0-6.0-1.34","2692340","co38845","norming","","","","","","",""
"4475.295000011101","","","post_mooney1_questions","survey-likert","246","877855","0.0-6.0-2.34","2692340","co38845","norming","","","{""curiosity"":4,""confidence"":3}","[0,1]","../img/tt/1181tt.jpg","",""
"3671.825000026729","","","recognition","survey-text","247","881531","0.0-6.0-3.34","2692340","co38845","norming","","","{""guess"":""bunk beds""}","","../img/tt/1181tt.jpg","",""
"null","../img/gs/1181gs.jpg","null","reveal","image-keyboard-response","248","883533","0.0-6.0-4.34","2692340","co38845","norming","","","","","","",""
"null","../img/tt/1181tt.jpg","null","mooney2","image-keyboard-response","249","885536","0.0-6.0-5.34","2692340","co38845","norming","","","","","","",""
"2917.050000047311","","","post_reveal_questions","survey-likert","250","888455","0.0-6.0-6.34","2692340","co38845","norming","","","{""aha"":4}","[0]","../img/tt/1181tt.jpg","",""
"null","<div style=""font-size:60px;""> </div>","null","fixation","html-keyboard-response","251","888659","0.0-6.0-0.35","2692340","co38845","norming","","","","","","",""
"null","../img/tt/1278tt.jpg","null","mooney1","image-keyboard-response","252","891661","0.0-6.0-1.35","2692340","co38845","norming","","","","","","",""
"5260.234999994282","","","post_mooney1_questions","survey-likert","253","896923","0.0-6.0-2.35","2692340","co38845","norming","","","{""curiosity"":3,""confidence"":3}","[0,1]","../img/tt/1278tt.jpg","",""
"3090.6550000072457","","","recognition","survey-text","254","900019","0.0-6.0-3.35","2692340","co38845","norming","","","{""guess"":""axe man""}","","../img/tt/1278tt.jpg","",""
"null","../img/gs/1278gs.jpg","null","reveal","image-keyboard-response","255","902021","0.0-6.0-4.35","2692340","co38845","norming","","","","","","",""
"null","../img/tt/1278tt.jpg","null","mooney2","image-keyboard-response","256","904023","0.0-6.0-5.35","2692340","co38845","norming","","","","","","",""
"2470.3900000313297","","","post_reveal_questions","survey-likert","257","906494","0.0-6.0-6.35","2692340","co38845","norming","","","{""aha"":4}","[0]","../img/tt/1278tt.jpg","",""
"null","<div style=""font-size:60px;""> </div>","null","fixation","html-keyboard-response","258","906698","0.0-6.0-0.36","2692340","co38845","norming","","","","","","",""
"null","../img/tt/013tt.jpg","null","mooney1","image-keyboard-response","259","909700","0.0-6.0-1.36","2692340","co38845","norming","","","","","","",""
"4545.074999972712","","","post_mooney1_questions","survey-likert","260","914246","0.0-6.0-2.36","2692340","co38845","norming","","","{""curiosity"":2,""confidence"":2}","[0,1]","../img/tt/013tt.jpg","",""
"3563.7499999720603","","","recognition","survey-text","261","917816","0.0-6.0-3.36","2692340","co38845","norming","","","{""guess"":""cottage""}","","../img/tt/013tt.jpg","",""
"null","../img/gs/013gs.jpg","null","reveal","image-keyboard-response","262","919818","0.0-6.0-4.36","2692340","co38845","norming","","","","","","",""
"null","../img/tt/013tt.jpg","null","mooney2","image-keyboard-response","263","921819","0.0-6.0-5.36","2692340","co38845","norming","","","","","","",""
"3016.0049999831244","","","post_reveal_questions","survey-likert","264","924836","0.0-6.0-6.36","2692340","co38845","norming","","","{""aha"":4}","[0]","../img/tt/013tt.jpg","",""
"null","<div style=""font-size:60px;""> </div>","null","fixation","html-keyboard-response","265","925041","0.0-6.0-0.37","2692340","co38845","norming","","","","","","",""
"null","../img/tt/096tt.jpg","null","mooney1","image-keyboard-response","266","928043","0.0-6.0-1.37","2692340","co38845","norming","","","","","","",""
"4902.229999948759","","","post_mooney1_questions","survey-likert","267","932946","0.0-6.0-2.37","2692340","co38845","norming","","","{""curiosity"":1,""confidence"":6}","[0,1]","../img/tt/096tt.jpg","",""
"2858.445000019856","","","recognition","survey-text","268","935809","0.0-6.0-3.37","2692340","co38845","norming","","","{""guess"":""piano""}","","../img/tt/096tt.jpg","",""
"null","../img/gs/096gs.jpg","null","reveal","image-keyboard-response","269","937811","0.0-6.0-4.37","2692340","co38845","norming","","","","","","",""
"null","../img/tt/096tt.jpg","null","mooney2","image-keyboard-response","270","939812","0.0-6.0-5.37","2692340","co38845","norming","","","","","","",""
"2139.789999986533","","","post_reveal_questions","survey-likert","271","941953","0.0-6.0-6.37","2692340","co38845","norming","","","{""aha"":3}","[0]","../img/tt/096tt.jpg","",""
"null","<div style=""font-size:60px;""> </div>","null","fixation","html-keyboard-response","272","942160","0.0-6.0-0.38","2692340","co38845","norming","","","","","","",""
"null","../img/tt/007tt.jpg","null","mooney1","image-keyboard-response","273","945162","0.0-6.0-1.38","2692340","co38845","norming","","","","","","",""
"6493.290000013076","","","post_mooney1_questions","survey-likert","274","951657","0.0-6.0-2.38","2692340","co38845","norming","","","{""curiosity"":6,""confidence"":1}","[0,1]","../img/tt/007tt.jpg","",""
"8909.350000030827","","","recognition","survey-text","275","960575","0.0-6.0-3.38","2692340","co38845","norming","","","{""guess"":""sorcerer robed""}","","../img/tt/007tt.jpg","",""
"null","../img/gs/007gs.jpg","null","reveal","image-keyboard-response","276","962577","0.0-6.0-4.38","2692340","co38845","norming","","","","","","",""
"null","../img/tt/007tt.jpg","null","mooney2","image-keyboard-response","277","964580","0.0-6.0-5.38","2692340","co38845","norming","","","","","","",""
"3799.5849999715574","","","post_reveal_questions","survey-likert","278","968381","0.0-6.0-6.38","2692340","co38845","norming","","","{""aha"":6}","[0]","../img/tt/007tt.jpg","",""
"null","<div style=""font-size:60px;""> </div>","null","fixation","html-keyboard-response","279","968588","0.0-6.0-0.39","2692340","co38845","norming","","","","","","",""
"null","../img/tt/412tt.jpg","null","mooney1","image-keyboard-response","280","971591","0.0-6.0-1.39","2692340","co38845","norming","","","","","","",""
"3662.4299999675713","","","post_mooney1_questions","survey-likert","281","975255","0.0-6.0-2.39","2692340","co38845","norming","","","{""curiosity"":5,""confidence"":2}","[0,1]","../img/tt/412tt.jpg","",""
"1716.8299999902956","","","recognition","survey-text","282","976980","0.0-6.0-3.39","2692340","co38845","norming","","","{""guess"":""gun""}","","../img/tt/412tt.jpg","",""
"null","../img/gs/412gs.jpg","null","reveal","image-keyboard-response","283","978983","0.0-6.0-4.39","2692340","co38845","norming","","","","","","",""
"null","../img/tt/412tt.jpg","null","mooney2","image-keyboard-response","284","980984","0.0-6.0-5.39","2692340","co38845","norming","","","","","","",""
"1776.7250000033528","","","post_reveal_questions","survey-likert","285","982763","0.0-6.0-6.39","2692340","co38845","norming","","","{""aha"":4}","[0]","../img/tt/412tt.jpg","",""
"null","<div style=""font-size:60px;""> </div>","null","fixation","html-keyboard-response","286","982970","0.0-6.0-0.40","2692340","co38845","norming","","","","","","",""
"null","../img/tt/1211tt.jpg","null","mooney1","image-keyboard-response","287","985973","0.0-6.0-1.40","2692340","co38845","norming","","","","","","",""
"4788.445000012871","","","post_mooney1_questions","survey-likert","288","990763","0.0-6.0-2.40","2692340","co38845","norming","","","{""curiosity"":4,""confidence"":4}","[0,1]","../img/tt/1211tt.jpg","",""
"3675.6250000325963","","","recognition","survey-text","289","994448","0.0-6.0-3.40","2692340","co38845","norming","","","{""guess"":""golf""}","","../img/tt/1211tt.jpg","",""
"null","../img/gs/1211gs.jpg","null","reveal","image-keyboard-response","290","996450","0.0-6.0-4.40","2692340","co38845","norming","","","","","","",""
"null","../img/tt/1211tt.jpg","null","mooney2","image-keyboard-response","291","998451","0.0-6.0-5.40","2692340","co38845","norming","","","","","","",""
"2245.4199999920093","","","post_reveal_questions","survey-likert","292","1000699","0.0-6.0-6.40","2692340","co38845","norming","","","{""aha"":1}","[0]","../img/tt/1211tt.jpg","",""
"null","<div style=""font-size:60px;""> </div>","null","fixation","html-keyboard-response","293","1000905","0.0-6.0-0.41","2692340","co38845","norming","","","","","","",""
"null","../img/tt/1237tt.jpg","null","mooney1","image-keyboard-response","294","1003907","0.0-6.0-1.41","2692340","co38845","norming","","","","","","",""
"4601.569999998901","","","post_mooney1_questions","survey-likert","295","1008512","0.0-6.0-2.41","2692340","co38845","norming","","","{""curiosity"":6,""confidence"":6}","[0,1]","../img/tt/1237tt.jpg","",""
"6320.449999999255","","","recognition","survey-text","296","1014841","0.0-6.0-3.41","2692340","co38845","norming","","","{""guess"":""duck honk""}","","../img/tt/1237tt.jpg","",""
"null","../img/gs/1237gs.jpg","null","reveal","image-keyboard-response","297","1016845","0.0-6.0-4.41","2692340","co38845","norming","","","","","","",""
"null","../img/tt/1237tt.jpg","null","mooney2","image-keyboard-response","298","1018847","0.0-6.0-5.41","2692340","co38845","norming","","","","","","",""
"2984.5799999893643","","","post_reveal_questions","survey-likert","299","1021833","0.0-6.0-6.41","2692340","co38845","norming","","","{""aha"":6}","[0]","../img/tt/1237tt.jpg","",""
"null","<div style=""font-size:60px;""> </div>","null","fixation","html-keyboard-response","300","1022037","0.0-6.0-0.42","2692340","co38845","norming","","","","","","",""
"null","../img/tt/1307tt.jpg","null","mooney1","image-keyboard-response","301","1025039","0.0-6.0-1.42","2692340","co38845","norming","","","","","","",""
"7449.070000031497","","","post_mooney1_questions","survey-likert","302","1032490","0.0-6.0-2.42","2692340","co38845","norming","","","{""curiosity"":5,""confidence"":4}","[0,1]","../img/tt/1307tt.jpg","",""
"6147.640000039246","","","recognition","survey-text","303","1038642","0.0-6.0-3.42","2692340","co38845","norming","","","{""guess"":""kermis rad""}","","../img/tt/1307tt.jpg","",""
"null","../img/gs/1307gs.jpg","null","reveal","image-keyboard-response","304","1040644","0.0-6.0-4.42","2692340","co38845","norming","","","","","","",""
"null","../img/tt/1307tt.jpg","null","mooney2","image-keyboard-response","305","1042645","0.0-6.0-5.42","2692340","co38845","norming","","","","","","",""
"3246.1550000007264","","","post_reveal_questions","survey-likert","306","1045892","0.0-6.0-6.42","2692340","co38845","norming","","","{""aha"":6}","[0]","../img/tt/1307tt.jpg","",""
"null","<div style=""font-size:60px;""> </div>","null","fixation","html-keyboard-response","307","1046096","0.0-6.0-0.43","2692340","co38845","norming","","","","","","",""
"null","../img/tt/1102tt.jpg","null","mooney1","image-keyboard-response","308","1049099","0.0-6.0-1.43","2692340","co38845","norming","","","","","","",""
"3738.2050000014715","","","post_mooney1_questions","survey-likert","309","1052839","0.0-6.0-2.43","2692340","co38845","norming","","","{""curiosity"":4,""confidence"":5}","[0,1]","../img/tt/1102tt.jpg","",""
"2044.5399999734946","","","recognition","survey-text","310","1054888","0.0-6.0-3.43","2692340","co38845","norming","","","{""guess"":""boat""}","","../img/tt/1102tt.jpg","",""
"null","../img/gs/1102gs.jpg","null","reveal","image-keyboard-response","311","1056889","0.0-6.0-4.43","2692340","co38845","norming","","","","","","",""
"null","../img/tt/1102tt.jpg","null","mooney2","image-keyboard-response","312","1058891","0.0-6.0-5.43","2692340","co38845","norming","","","","","","",""
"2164.150000025984","","","post_reveal_questions","survey-likert","313","1061057","0.0-6.0-6.43","2692340","co38845","norming","","","{""aha"":6}","[0]","../img/tt/1102tt.jpg","",""
"null","<div style=""font-size:60px;""> </div>","null","fixation","html-keyboard-response","314","1061264","0.0-6.0-0.44","2692340","co38845","norming","","","","","","",""
"null","../img/tt/440tt.jpg","null","mooney1","image-keyboard-response","315","1064266","0.0-6.0-1.44","2692340","co38845","norming","","","","","","",""
"3829.080000054091","","","post_mooney1_questions","survey-likert","316","1068097","0.0-6.0-2.44","2692340","co38845","norming","","","{""curiosity"":3,""confidence"":4}","[0,1]","../img/tt/440tt.jpg","",""
"2451.3500000466593","","","recognition","survey-text","317","1070557","0.0-6.0-3.44","2692340","co38845","norming","","","{""guess"":""tree""}","","../img/tt/440tt.jpg","",""
"null","../img/gs/440gs.jpg","null","reveal","image-keyboard-response","318","1072560","0.0-6.0-4.44","2692340","co38845","norming","","","","","","",""
"null","../img/tt/440tt.jpg","null","mooney2","image-keyboard-response","319","1074561","0.0-6.0-5.44","2692340","co38845","norming","","","","","","",""
"3551.949999993667","","","post_reveal_questions","survey-likert","320","1078115","0.0-6.0-6.44","2692340","co38845","norming","","","{""aha"":3}","[0]","../img/tt/440tt.jpg","",""
"null","<div style=""font-size:60px;""> </div>","null","fixation","html-keyboard-response","321","1078322","0.0-6.0-0.45","2692340","co38845","norming","","","","","","",""
"null","../img/tt/1217tt.jpg","null","mooney1","image-keyboard-response","322","1081324","0.0-6.0-1.45","2692340","co38845","norming","","","","","","",""
"5375.19000004977","","","post_mooney1_questions","survey-likert","323","1086701","0.0-6.0-2.45","2692340","co38845","norming","","","{""curiosity"":3,""confidence"":4}","[0,1]","../img/tt/1217tt.jpg","",""
"4416.274999966845","","","recognition","survey-text","324","1091126","0.0-6.0-3.45","2692340","co38845","norming","","","{""guess"":""football""}","","../img/tt/1217tt.jpg","",""
"null","../img/gs/1217gs.jpg","null","reveal","image-keyboard-response","325","1093129","0.0-6.0-4.45","2692340","co38845","norming","","","","","","",""
"null","../img/tt/1217tt.jpg","null","mooney2","image-keyboard-response","326","1095131","0.0-6.0-5.45","2692340","co38845","norming","","","","","","",""
"2258.8600000017323","","","post_reveal_questions","survey-likert","327","1097392","0.0-6.0-6.45","2692340","co38845","norming","","","{""aha"":2}","[0]","../img/tt/1217tt.jpg","",""
"null","<div style=""font-size:60px;""> </div>","null","fixation","html-keyboard-response","328","1097598","0.0-6.0-0.46","2692340","co38845","norming","","","","","","",""
"null","../img/tt/124tt.jpg","null","mooney1","image-keyboard-response","329","1100600","0.0-6.0-1.46","2692340","co38845","norming","","","","","","",""
"4516.470000031404","","","post_mooney1_questions","survey-likert","330","1105119","0.0-6.0-2.46","2692340","co38845","norming","","","{""curiosity"":5,""confidence"":4}","[0,1]","../img/tt/124tt.jpg","",""
"2019.7400000179186","","","recognition","survey-text","331","1107148","0.0-6.0-3.46","2692340","co38845","norming","","","{""guess"":""duck""}","","../img/tt/124tt.jpg","",""
"null","../img/gs/124gs.jpg","null","reveal","image-keyboard-response","332","1109150","0.0-6.0-4.46","2692340","co38845","norming","","","","","","",""
"null","../img/tt/124tt.jpg","null","mooney2","image-keyboard-response","333","1111152","0.0-6.0-5.46","2692340","co38845","norming","","","","","","",""
"2588.915000029374","","","post_reveal_questions","survey-likert","334","1113743","0.0-6.0-6.46","2692340","co38845","norming","","","{""aha"":4}","[0]","../img/tt/124tt.jpg","",""
"null","<div style=""font-size:60px;""> </div>","null","fixation","html-keyboard-response","335","1113950","0.0-6.0-0.47","2692340","co38845","norming","","","","","","",""
"null","../img/tt/1128tt.jpg","null","mooney1","image-keyboard-response","336","1116952","0.0-6.0-1.47","2692340","co38845","norming","","","","","","",""
"5539.359999995213","","","post_mooney1_questions","survey-likert","337","1122493","0.0-6.0-2.47","2692340","co38845","norming","","","{""curiosity"":6,""confidence"":2}","[0,1]","../img/tt/1128tt.jpg","",""
"4466.989999986254","","","recognition","survey-text","338","1126969","0.0-6.0-3.47","2692340","co38845","norming","","","{""guess"":""dog glasses""}","","../img/tt/1128tt.jpg","",""
"null","../img/gs/1128gs.jpg","null","reveal","image-keyboard-response","339","1128971","0.0-6.0-4.47","2692340","co38845","norming","","","","","","",""
"null","../img/tt/1128tt.jpg","null","mooney2","image-keyboard-response","340","1130975","0.0-6.0-5.47","2692340","co38845","norming","","","","","","",""
"2680.5900000035763","","","post_reveal_questions","survey-likert","341","1133657","0.0-6.0-6.47","2692340","co38845","norming","","","{""aha"":6}","[0]","../img/tt/1128tt.jpg","",""
"null","<div style=""font-size:60px;""> </div>","null","fixation","html-keyboard-response","342","1133862","0.0-6.0-0.48","2692340","co38845","norming","","","","","","",""
"null","../img/tt/1055tt.jpg","null","mooney1","image-keyboard-response","343","1136864","0.0-6.0-1.48","2692340","co38845","norming","","","","","","",""
"4237.565000017639","","","post_mooney1_questions","survey-likert","344","1141103","0.0-6.0-2.48","2692340","co38845","norming","","","{""curiosity"":6,""confidence"":2}","[0,1]","../img/tt/1055tt.jpg","",""
"4424.264999979641","","","recognition","survey-text","345","1145532","0.0-6.0-3.48","2692340","co38845","norming","","","{""guess"":""stiletto""}","","../img/tt/1055tt.jpg","",""
"null","../img/gs/1055gs.jpg","null","reveal","image-keyboard-response","346","1147534","0.0-6.0-4.48","2692340","co38845","norming","","","","","","",""
"null","../img/tt/1055tt.jpg","null","mooney2","image-keyboard-response","347","1149536","0.0-6.0-5.48","2692340","co38845","norming","","","","","","",""
"5127.634999982547","","","post_reveal_questions","survey-likert","348","1154665","0.0-6.0-6.48","2692340","co38845","norming","","","{""aha"":4}","[0]","../img/tt/1055tt.jpg","",""
"null","<div style=""font-size:60px;""> </div>","null","fixation","html-keyboard-response","349","1154869","0.0-6.0-0.49","2692340","co38845","norming","","","","","","",""
"null","../img/tt/552tt.jpg","null","mooney1","image-keyboard-response","350","1157871","0.0-6.0-1.49","2692340","co38845","norming","","","","","","",""
"3542.7749999798834","","","post_mooney1_questions","survey-likert","351","1161415","0.0-6.0-2.49","2692340","co38845","norming","","","{""curiosity"":4,""confidence"":3}","[0,1]","../img/tt/552tt.jpg","",""
"4409.289999981411","","","recognition","survey-text","352","1165829","0.0-6.0-3.49","2692340","co38845","norming","","","{""guess"":""black sheep""}","","../img/tt/552tt.jpg","",""
"null","../img/gs/552gs.jpg","null","reveal","image-keyboard-response","353","1167831","0.0-6.0-4.49","2692340","co38845","norming","","","","","","",""
"null","../img/tt/552tt.jpg","null","mooney2","image-keyboard-response","354","1169832","0.0-6.0-5.49","2692340","co38845","norming","","","","","","",""
"2941.0550000029616","","","post_reveal_questions","survey-likert","355","1172774","0.0-6.0-6.49","2692340","co38845","norming","","","{""aha"":2}","[0]","../img/tt/552tt.jpg","",""
"null","<div style=""font-size:60px;""> </div>","null","fixation","html-keyboard-response","356","1172979","0.0-6.0-0.50","2692340","co38845","norming","","","","","","",""
"null","../img/tt/435tt.jpg","null","mooney1","image-keyboard-response","357","1175981","0.0-6.0-1.50","2692340","co38845","norming","","","","","","",""
"3814.1600000089966","","","post_mooney1_questions","survey-likert","358","1179797","0.0-6.0-2.50","2692340","co38845","norming","","","{""curiosity"":5,""confidence"":5}","[0,1]","../img/tt/435tt.jpg","",""
"2815.535000001546","","","recognition","survey-text","359","1182617","0.0-6.0-3.50","2692340","co38845","norming","","","{""guess"":""pool""}","","../img/tt/435tt.jpg","",""
"null","../img/gs/435gs.jpg","null","reveal","image-keyboard-response","360","1184618","0.0-6.0-4.50","2692340","co38845","norming","","","","","","",""
"null","../img/tt/435tt.jpg","null","mooney2","image-keyboard-response","361","1186619","0.0-6.0-5.50","2692340","co38845","norming","","","","","","",""
"2364.2799999797717","","","post_reveal_questions","survey-likert","362","1188984","0.0-6.0-6.50","2692340","co38845","norming","","","{""aha"":1}","[0]","../img/tt/435tt.jpg","",""
"null","<div style=""font-size:60px;""> </div>","null","fixation","html-keyboard-response","363","1189189","0.0-6.0-0.51","2692340","co38845","norming","","","","","","",""
"null","../img/tt/1118tt.jpg","null","mooney1","image-keyboard-response","364","1192190","0.0-6.0-1.51","2692340","co38845","norming","","","","","","",""
"3683.2699999795295","","","post_mooney1_questions","survey-likert","365","1195875","0.0-6.0-2.51","2692340","co38845","norming","","","{""curiosity"":5,""confidence"":3}","[0,1]","../img/tt/1118tt.jpg","",""
"2341.835000028368","","","recognition","survey-text","366","1198222","0.0-6.0-3.51","2692340","co38845","norming","","","{""guess"":""kano""}","","../img/tt/1118tt.jpg","",""
"null","../img/gs/1118gs.jpg","null","reveal","image-keyboard-response","367","1200224","0.0-6.0-4.51","2692340","co38845","norming","","","","","","",""
"null","../img/tt/1118tt.jpg","null","mooney2","image-keyboard-response","368","1202226","0.0-6.0-5.51","2692340","co38845","norming","","","","","","",""
"5166.640000010375","","","post_reveal_questions","survey-likert","369","1207394","0.0-6.0-6.51","2692340","co38845","norming","","","{""aha"":2}","[0]","../img/tt/1118tt.jpg","",""
"null","<div style=""font-size:60px;""> </div>","null","fixation","html-keyboard-response","370","1207598","0.0-6.0-0.52","2692340","co38845","norming","","","","","","",""
"null","../img/tt/1143tt.jpg","null","mooney1","image-keyboard-response","371","1210601","0.0-6.0-1.52","2692340","co38845","norming","","","","","","",""
"4151.09499997925","","","post_mooney1_questions","survey-likert","372","1214754","0.0-6.0-2.52","2692340","co38845","norming","","","{""curiosity"":3,""confidence"":4}","[0,1]","../img/tt/1143tt.jpg","",""
"1914.229999994859","","","recognition","survey-text","373","1216673","0.0-6.0-3.52","2692340","co38845","norming","","","{""guess"":""gym""}","","../img/tt/1143tt.jpg","",""
"null","../img/gs/1143gs.jpg","null","reveal","image-keyboard-response","374","1218675","0.0-6.0-4.52","2692340","co38845","norming","","","","","","",""
"null","../img/tt/1143tt.jpg","null","mooney2","image-keyboard-response","375","1220677","0.0-6.0-5.52","2692340","co38845","norming","","","","","","",""
"3231.325000000652","","","post_reveal_questions","survey-likert","376","1223910","0.0-6.0-6.52","2692340","co38845","norming","","","{""aha"":2}","[0]","../img/tt/1143tt.jpg","",""
"null","<div style=""font-size:60px;""> </div>","null","fixation","html-keyboard-response","377","1224115","0.0-6.0-0.53","2692340","co38845","norming","","","","","","",""
"null","../img/tt/468tt.jpg","null","mooney1","image-keyboard-response","378","1227117","0.0-6.0-1.53","2692340","co38845","norming","","","","","","",""
"4776.084999961313","","","post_mooney1_questions","survey-likert","379","1231894","0.0-6.0-2.53","2692340","co38845","norming","","","{""curiosity"":4,""confidence"":3}","[0,1]","../img/tt/468tt.jpg","",""
"2326.2850000173785","","","recognition","survey-text","380","1234226","0.0-6.0-3.53","2692340","co38845","norming","","","{""guess"":""ciw""}","","../img/tt/468tt.jpg","",""
"null","../img/gs/468gs.jpg","null","reveal","image-keyboard-response","381","1236227","0.0-6.0-4.53","2692340","co38845","norming","","","","","","",""
"null","../img/tt/468tt.jpg","null","mooney2","image-keyboard-response","382","1238229","0.0-6.0-5.53","2692340","co38845","norming","","","","","","",""
"3490.159999986645","","","post_reveal_questions","survey-likert","383","1241720","0.0-6.0-6.53","2692340","co38845","norming","","","{""aha"":2}","[0]","../img/tt/468tt.jpg","",""
"null","<div style=""font-size:60px;""> </div>","null","fixation","html-keyboard-response","384","1241927","0.0-6.0-0.54","2692340","co38845","norming","","","","","","",""
"null","../img/tt/1191tt.jpg","null","mooney1","image-keyboard-response","385","1244929","0.0-6.0-1.54","2692340","co38845","norming","","","","","","",""
"3579.429999983404","","","post_mooney1_questions","survey-likert","386","1248511","0.0-6.0-2.54","2692340","co38845","norming","","","{""curiosity"":4,""confidence"":3}","[0,1]","../img/tt/1191tt.jpg","",""
"2846.7299999902025","","","recognition","survey-text","387","1251367","0.0-6.0-3.54","2692340","co38845","norming","","","{""guess"":""centaur""}","","../img/tt/1191tt.jpg","",""
"null","../img/gs/1191gs.jpg","null","reveal","image-keyboard-response","388","1253369","0.0-6.0-4.54","2692340","co38845","norming","","","","","","",""
"null","../img/tt/1191tt.jpg","null","mooney2","image-keyboard-response","389","1255371","0.0-6.0-5.54","2692340","co38845","norming","","","","","","",""
"2691.790000011679","","","post_reveal_questions","survey-likert","390","1258065","0.0-6.0-6.54","2692340","co38845","norming","","","{""aha"":4}","[0]","../img/tt/1191tt.jpg","",""
"null","<div style=""font-size:60px;""> </div>","null","fixation","html-keyboard-response","391","1258271","0.0-6.0-0.55","2692340","co38845","norming","","","","","","",""
"null","../img/tt/123tt.jpg","null","mooney1","image-keyboard-response","392","1261273","0.0-6.0-1.55","2692340","co38845","norming","","","","","","",""
"5515.529999975115","","","post_mooney1_questions","survey-likert","393","1266791","0.0-6.0-2.55","2692340","co38845","norming","","","{""curiosity"":3,""confidence"":4}","[0,1]","../img/tt/123tt.jpg","",""
"4832.784999976866","","","recognition","survey-text","394","1271632","0.0-6.0-3.55","2692340","co38845","norming","","","{""guess"":""backpack""}","","../img/tt/123tt.jpg","",""
"null","../img/gs/123gs.jpg","null","reveal","image-keyboard-response","395","1273635","0.0-6.0-4.55","2692340","co38845","norming","","","","","","",""
"null","../img/tt/123tt.jpg","null","mooney2","image-keyboard-response","396","1275637","0.0-6.0-5.55","2692340","co38845","norming","","","","","","",""
"2337.124999961816","","","post_reveal_questions","survey-likert","397","1277976","0.0-6.0-6.55","2692340","co38845","norming","","","{""aha"":3}","[0]","../img/tt/123tt.jpg","",""
"null","<div style=""font-size:60px;""> </div>","null","fixation","html-keyboard-response","398","1278184","0.0-6.0-0.56","2692340","co38845","norming","","","","","","",""
"null","../img/tt/010tt.jpg","null","mooney1","image-keyboard-response","399","1281186","0.0-6.0-1.56","2692340","co38845","norming","","","","","","",""
"4976.589999976568","","","post_mooney1_questions","survey-likert","400","1286165","0.0-6.0-2.56","2692340","co38845","norming","","","{""curiosity"":4,""confidence"":0}","[0,1]","../img/tt/010tt.jpg","",""
"4435.324999969453","","","recognition","survey-text","401","1290609","0.0-6.0-3.56","2692340","co38845","norming","","","{""guess"":""ghost""}","","../img/tt/010tt.jpg","",""
"null","../img/gs/010gs.jpg","null","reveal","image-keyboard-response","402","1292612","0.0-6.0-4.56","2692340","co38845","norming","","","","","","",""
"null","../img/tt/010tt.jpg","null","mooney2","image-keyboard-response","403","1294614","0.0-6.0-5.56","2692340","co38845","norming","","","","","","",""
"3489.540000038687","","","post_reveal_questions","survey-likert","404","1298105","0.0-6.0-6.56","2692340","co38845","norming","","","{""aha"":4}","[0]","../img/tt/010tt.jpg","",""
"null","<div style=""font-size:60px;""> </div>","null","fixation","html-keyboard-response","405","1298312","0.0-6.0-0.57","2692340","co38845","norming","","","","","","",""
"null","../img/tt/1272tt.jpg","null","mooney1","image-keyboard-response","406","1301314","0.0-6.0-1.57","2692340","co38845","norming","","","","","","",""
"6242.634999973234","","","post_mooney1_questions","survey-likert","407","1307559","0.0-6.0-2.57","2692340","co38845","norming","","","{""curiosity"":3,""confidence"":0}","[0,1]","../img/tt/1272tt.jpg","",""
"3553.619999962393","","","recognition","survey-text","408","1311121","0.0-6.0-3.57","2692340","co38845","norming","","","{""guess"":""bee hive""}","","../img/tt/1272tt.jpg","",""
"null","../img/gs/1272gs.jpg","null","reveal","image-keyboard-response","409","1313124","0.0-6.0-4.57","2692340","co38845","norming","","","","","","",""
"null","../img/tt/1272tt.jpg","null","mooney2","image-keyboard-response","410","1315126","0.0-6.0-5.57","2692340","co38845","norming","","","","","","",""
"3587.020000035409","","","post_reveal_questions","survey-likert","411","1318715","0.0-6.0-6.57","2692340","co38845","norming","","","{""aha"":4}","[0]","../img/tt/1272tt.jpg","",""
"null","<div style=""font-size:60px;""> </div>","null","fixation","html-keyboard-response","412","1318922","0.0-6.0-0.58","2692340","co38845","norming","","","","","","",""
"null","../img/tt/1072tt.jpg","null","mooney1","image-keyboard-response","413","1321924","0.0-6.0-1.58","2692340","co38845","norming","","","","","","",""
"4452.530000009574","","","post_mooney1_questions","survey-likert","414","1326378","0.0-6.0-2.58","2692340","co38845","norming","","","{""curiosity"":4,""confidence"":3}","[0,1]","../img/tt/1072tt.jpg","",""
"5728.6150000290945","","","recognition","survey-text","415","1332112","0.0-6.0-3.58","2692340","co38845","norming","","","{""guess"":""stone monument""}","","../img/tt/1072tt.jpg","",""
"null","../img/gs/1072gs.jpg","null","reveal","image-keyboard-response","416","1334115","0.0-6.0-4.58","2692340","co38845","norming","","","","","","",""
"null","../img/tt/1072tt.jpg","null","mooney2","image-keyboard-response","417","1336117","0.0-6.0-5.58","2692340","co38845","norming","","","","","","",""
"2998.574999975972","","","post_reveal_questions","survey-likert","418","1339117","0.0-6.0-6.58","2692340","co38845","norming","","","{""aha"":3}","[0]","../img/tt/1072tt.jpg","",""
"null","<div style=""font-size:60px;""> </div>","null","fixation","html-keyboard-response","419","1339320","0.0-6.0-0.59","2692340","co38845","norming","","","","","","",""
"null","../img/tt/036tt.jpg","null","mooney1","image-keyboard-response","420","1342322","0.0-6.0-1.59","2692340","co38845","norming","","","","","","",""
"4395.684999995865","","","post_mooney1_questions","survey-likert","421","1346720","0.0-6.0-2.59","2692340","co38845","norming","","","{""curiosity"":3,""confidence"":6}","[0,1]","../img/tt/036tt.jpg","",""
"3094.6750000002794","","","recognition","survey-text","422","1349819","0.0-6.0-3.59","2692340","co38845","norming","","","{""guess"":""bliksem""}","","../img/tt/036tt.jpg","",""
"null","../img/gs/036gs.jpg","null","reveal","image-keyboard-response","423","1351821","0.0-6.0-4.59","2692340","co38845","norming","","","","","","",""
"null","../img/tt/036tt.jpg","null","mooney2","image-keyboard-response","424","1353823","0.0-6.0-5.59","2692340","co38845","norming","","","","","","",""
"3300.4549999604933","","","post_reveal_questions","survey-likert","425","1357124","0.0-6.0-6.59","2692340","co38845","norming","","","{""aha"":0}","[0]","../img/tt/036tt.jpg","",""
"null","<div style=""font-size:60px;""> </div>","null","fixation","html-keyboard-response","426","1357328","0.0-6.0-0.60","2692340","co38845","norming","","","","","","",""
"null","../img/tt/1189tt.jpg","null","mooney1","image-keyboard-response","427","1360330","0.0-6.0-1.60","2692340","co38845","norming","","","","","","",""
"3120.7649999996647","","","post_mooney1_questions","survey-likert","428","1363452","0.0-6.0-2.60","2692340","co38845","norming","","","{""curiosity"":4,""confidence"":4}","[0,1]","../img/tt/1189tt.jpg","",""
"5067.279999959283","","","recognition","survey-text","429","1368524","0.0-6.0-3.60","2692340","co38845","norming","","","{""guess"":""biscuit""}","","../img/tt/1189tt.jpg","",""
"null","../img/gs/1189gs.jpg","null","reveal","image-keyboard-response","430","1370525","0.0-6.0-4.60","2692340","co38845","norming","","","","","","",""
"null","../img/tt/1189tt.jpg","null","mooney2","image-keyboard-response","431","1372527","0.0-6.0-5.60","2692340","co38845","norming","","","","","","",""
"2728.2300000078976","","","post_reveal_questions","survey-likert","432","1375256","0.0-6.0-6.60","2692340","co38845","norming","","","{""aha"":1}","[0]","../img/tt/1189tt.jpg","",""
"null","<div style=""font-size:60px;""> </div>","null","fixation","html-keyboard-response","433","1375461","0.0-6.0-0.61","2692340","co38845","norming","","","","","","",""
"null","../img/tt/1101tt.jpg","null","mooney1","image-keyboard-response","434","1378463","0.0-6.0-1.61","2692340","co38845","norming","","","","","","",""
"3143.7950000399724","","","post_mooney1_questions","survey-likert","435","1381608","0.0-6.0-2.61","2692340","co38845","norming","","","{""curiosity"":5,""confidence"":3}","[0,1]","../img/tt/1101tt.jpg","",""
"2236.3749999785796","","","recognition","survey-text","436","1383849","0.0-6.0-3.61","2692340","co38845","norming","","","{""guess"":""man""}","","../img/tt/1101tt.jpg","",""
"null","../img/gs/1101gs.jpg","null","reveal","image-keyboard-response","437","1385851","0.0-6.0-4.61","2692340","co38845","norming","","","","","","",""
"null","../img/tt/1101tt.jpg","null","mooney2","image-keyboard-response","438","1387852","0.0-6.0-5.61","2692340","co38845","norming","","","","","","",""
"3362.43999999715","","","post_reveal_questions","survey-likert","439","1391216","0.0-6.0-6.61","2692340","co38845","norming","","","{""aha"":1}","[0]","../img/tt/1101tt.jpg","",""
"null","<div style=""font-size:60px;""> </div>","null","fixation","html-keyboard-response","440","1391420","0.0-6.0-0.62","2692340","co38845","norming","","","","","","",""
"null","../img/tt/1107tt.jpg","null","mooney1","image-keyboard-response","441","1394421","0.0-6.0-1.62","2692340","co38845","norming","","","","","","",""
"3591.710000007879","","","post_mooney1_questions","survey-likert","442","1398014","0.0-6.0-2.62","2692340","co38845","norming","","","{""curiosity"":4,""confidence"":6}","[0,1]","../img/tt/1107tt.jpg","",""
"2268.3949999627657","","","recognition","survey-text","443","1400287","0.0-6.0-3.62","2692340","co38845","norming","","","{""guess"":""kitten""}","","../img/tt/1107tt.jpg","",""
"null","../img/gs/1107gs.jpg","null","reveal","image-keyboard-response","444","1402289","0.0-6.0-4.62","2692340","co38845","norming","","","","","","",""
"null","../img/tt/1107tt.jpg","null","mooney2","image-keyboard-response","445","1404291","0.0-6.0-5.62","2692340","co38845","norming","","","","","","",""
"1997.0350000075996","","","post_reveal_questions","survey-likert","446","1406289","0.0-6.0-6.62","2692340","co38845","norming","","","{""aha"":0}","[0]","../img/tt/1107tt.jpg","",""
"null","<div style=""font-size:60px;""> </div>","null","fixation","html-keyboard-response","447","1406492","0.0-6.0-0.63","2692340","co38845","norming","","","","","","",""
"null","../img/tt/126tt.jpg","null","mooney1","image-keyboard-response","448","1409494","0.0-6.0-1.63","2692340","co38845","norming","","","","","","",""
"3034.990000014659","","","post_mooney1_questions","survey-likert","449","1412530","0.0-6.0-2.63","2692340","co38845","norming","","","{""curiosity"":5,""confidence"":3}","[0,1]","../img/tt/126tt.jpg","",""
"5163.974999974016","","","recognition","survey-text","450","1417699","0.0-6.0-3.63","2692340","co38845","norming","","","{""guess"":""landscape""}","","../img/tt/126tt.jpg","",""
"null","../img/gs/126gs.jpg","null","reveal","image-keyboard-response","451","1419701","0.0-6.0-4.63","2692340","co38845","norming","","","","","","",""
"null","../img/tt/126tt.jpg","null","mooney2","image-keyboard-response","452","1421702","0.0-6.0-5.63","2692340","co38845","norming","","","","","","",""
"2630.7299999753013","","","post_reveal_questions","survey-likert","453","1424334","0.0-6.0-6.63","2692340","co38845","norming","","","{""aha"":3}","[0]","../img/tt/126tt.jpg","",""
"null","<div style=""font-size:60px;""> </div>","null","fixation","html-keyboard-response","454","1424538","0.0-6.0-0.64","2692340","co38845","norming","","","","","","",""
"null","../img/tt/1290tt.jpg","null","mooney1","image-keyboard-response","455","1427539","0.0-6.0-1.64","2692340","co38845","norming","","","","","","",""
"5339.839999971446","","","post_mooney1_questions","survey-likert","456","1432880","0.0-6.0-2.64","2692340","co38845","norming","","","{""curiosity"":4,""confidence"":2}","[0,1]","../img/tt/1290tt.jpg","",""
"2821.9549999921583","","","recognition","survey-text","457","1435707","0.0-6.0-3.64","2692340","co38845","norming","","","{""guess"":""grenade""}","","../img/tt/1290tt.jpg","",""
"null","../img/gs/1290gs.jpg","null","reveal","image-keyboard-response","458","1437709","0.0-6.0-4.64","2692340","co38845","norming","","","","","","",""
"null","../img/tt/1290tt.jpg","null","mooney2","image-keyboard-response","459","1439710","0.0-6.0-5.64","2692340","co38845","norming","","","","","","",""
"2787.3250000411645","","","post_reveal_questions","survey-likert","460","1442499","0.0-6.0-6.64","2692340","co38845","norming","","","{""aha"":2}","[0]","../img/tt/1290tt.jpg","",""
"null","<div style=""font-size:60px;""> </div>","null","fixation","html-keyboard-response","461","1442706","0.0-6.0-0.65","2692340","co38845","norming","","","","","","",""
"null","../img/tt/477tt.jpg","null","mooney1","image-keyboard-response","462","1445709","0.0-6.0-1.65","2692340","co38845","norming","","","","","","",""
"3538.4850000264123","","","post_mooney1_questions","survey-likert","463","1449250","0.0-6.0-2.65","2692340","co38845","norming","","","{""curiosity"":4,""confidence"":3}","[0,1]","../img/tt/477tt.jpg","",""
"1956.3599999528378","","","recognition","survey-text","464","1451215","0.0-6.0-3.65","2692340","co38845","norming","","","{""guess"":""fish""}","","../img/tt/477tt.jpg","",""
"null","../img/gs/477gs.jpg","null","reveal","image-keyboard-response","465","1453217","0.0-6.0-4.65","2692340","co38845","norming","","","","","","",""
"null","../img/tt/477tt.jpg","null","mooney2","image-keyboard-response","466","1455219","0.0-6.0-5.65","2692340","co38845","norming","","","","","","",""
"2199.765000026673","","","post_reveal_questions","survey-likert","467","1457420","0.0-6.0-6.65","2692340","co38845","norming","","","{""aha"":6}","[0]","../img/tt/477tt.jpg","",""
"null","<div style=""font-size:60px;""> </div>","null","fixation","html-keyboard-response","468","1457626","0.0-6.0-0.66","2692340","co38845","norming","","","","","","",""
"null","../img/tt/603tt.jpg","null","mooney1","image-keyboard-response","469","1460628","0.0-6.0-1.66","2692340","co38845","norming","","","","","","",""
"3189.0799999819137","","","post_mooney1_questions","survey-likert","470","1463819","0.0-6.0-2.66","2692340","co38845","norming","","","{""curiosity"":5,""confidence"":6}","[0,1]","../img/tt/603tt.jpg","",""
"1727.8950000181794","","","recognition","survey-text","471","1465555","0.0-6.0-3.66","2692340","co38845","norming","","","{""guess"":""cat""}","","../img/tt/603tt.jpg","",""
"null","../img/gs/603gs.jpg","null","reveal","image-keyboard-response","472","1467558","0.0-6.0-4.66","2692340","co38845","norming","","","","","","",""
"null","../img/tt/603tt.jpg","null","mooney2","image-keyboard-response","473","1469560","0.0-6.0-5.66","2692340","co38845","norming","","","","","","",""
"3461.5100000519305","","","post_reveal_questions","survey-likert","474","1473023","0.0-6.0-6.66","2692340","co38845","norming","","","{""aha"":0}","[0]","../img/tt/603tt.jpg","",""
"null","<div style=""font-size:60px;""> </div>","null","fixation","html-keyboard-response","475","1473230","0.0-6.0-0.67","2692340","co38845","norming","","","","","","",""
"null","../img/tt/1146tt.jpg","null","mooney1","image-keyboard-response","476","1476231","0.0-6.0-1.67","2692340","co38845","norming","","","","","","",""
"3851.550000021234","","","post_mooney1_questions","survey-likert","477","1480085","0.0-6.0-2.67","2692340","co38845","norming","","","{""curiosity"":3,""confidence"":4}","[0,1]","../img/tt/1146tt.jpg","",""
"4292.390000016894","","","recognition","survey-text","478","1484386","0.0-6.0-3.67","2692340","co38845","norming","","","{""guess"":""man leaning""}","","../img/tt/1146tt.jpg","",""
"null","../img/gs/1146gs.jpg","null","reveal","image-keyboard-response","479","1486389","0.0-6.0-4.67","2692340","co38845","norming","","","","","","",""
"null","../img/tt/1146tt.jpg","null","mooney2","image-keyboard-response","480","1488390","0.0-6.0-5.67","2692340","co38845","norming","","","","","","",""
"2547.9400000185706","","","post_reveal_questions","survey-likert","481","1490940","0.0-6.0-6.67","2692340","co38845","norming","","","{""aha"":4}","[0]","../img/tt/1146tt.jpg","",""
"null","<div style=""font-size:60px;""> </div>","null","fixation","html-keyboard-response","482","1491149","0.0-6.0-0.68","2692340","co38845","norming","","","","","","",""
"null","../img/tt/406tt.jpg","null","mooney1","image-keyboard-response","483","1494151","0.0-6.0-1.68","2692340","co38845","norming","","","","","","",""
"3430.7499999995343","","","post_mooney1_questions","survey-likert","484","1497584","0.0-6.0-2.68","2692340","co38845","norming","","","{""curiosity"":4,""confidence"":4}","[0,1]","../img/tt/406tt.jpg","",""
"1849.5349999866448","","","recognition","survey-text","485","1499441","0.0-6.0-3.68","2692340","co38845","norming","","","{""guess"":""bat""}","","../img/tt/406tt.jpg","",""
"null","../img/gs/406gs.jpg","null","reveal","image-keyboard-response","486","1501444","0.0-6.0-4.68","2692340","co38845","norming","","","","","","",""
"null","../img/tt/406tt.jpg","null","mooney2","image-keyboard-response","487","1503445","0.0-6.0-5.68","2692340","co38845","norming","","","","","","",""
"2711.155000026338","","","post_reveal_questions","survey-likert","488","1506159","0.0-6.0-6.68","2692340","co38845","norming","","","{""aha"":2}","[0]","../img/tt/406tt.jpg","",""
"null","<div style=""font-size:60px;""> </div>","null","fixation","html-keyboard-response","489","1506366","0.0-6.0-0.69","2692340","co38845","norming","","","","","","",""
"null","../img/tt/524tt.jpg","null","mooney1","image-keyboard-response","490","1509368","0.0-6.0-1.69","2692340","co38845","norming","","","","","","",""
"3531.4450000296347","","","post_mooney1_questions","survey-likert","491","1512901","0.0-6.0-2.69","2692340","co38845","norming","","","{""curiosity"":3,""confidence"":3}","[0,1]","../img/tt/524tt.jpg","",""
"2499.8649999615736","","","recognition","survey-text","492","1515406","0.0-6.0-3.69","2692340","co38845","norming","","","{""guess"":""horse""}","","../img/tt/524tt.jpg","",""
"null","../img/gs/524gs.jpg","null","reveal","image-keyboard-response","493","1517408","0.0-6.0-4.69","2692340","co38845","norming","","","","","","",""
"null","../img/tt/524tt.jpg","null","mooney2","image-keyboard-response","494","1519410","0.0-6.0-5.69","2692340","co38845","norming","","","","","","",""
"2267.664999992121","","","post_reveal_questions","survey-likert","495","1521678","0.0-6.0-6.69","2692340","co38845","norming","","","{""aha"":4}","[0]","../img/tt/524tt.jpg","",""
"null","<div style=""font-size:60px;""> </div>","null","fixation","html-keyboard-response","496","1521882","0.0-6.0-0.70","2692340","co38845","norming","","","","","","",""
"null","../img/tt/405tt.jpg","null","mooney1","image-keyboard-response","497","1524885","0.0-6.0-1.70","2692340","co38845","norming","","","","","","",""
"3145.8550000097603","","","post_mooney1_questions","survey-likert","498","1528032","0.0-6.0-2.70","2692340","co38845","norming","","","{""curiosity"":6,""confidence"":6}","[0,1]","../img/tt/405tt.jpg","",""
"2142.7050000056624","","","recognition","survey-text","499","1530180","0.0-6.0-3.70","2692340","co38845","norming","","","{""guess"":""koala""}","","../img/tt/405tt.jpg","",""
"null","../img/gs/405gs.jpg","null","reveal","image-keyboard-response","500","1532181","0.0-6.0-4.70","2692340","co38845","norming","","","","","","",""
"null","../img/tt/405tt.jpg","null","mooney2","image-keyboard-response","501","1534182","0.0-6.0-5.70","2692340","co38845","norming","","","","","","",""
"2066.4099999703467","","","post_reveal_questions","survey-likert","502","1536250","0.0-6.0-6.70","2692340","co38845","norming","","","{""aha"":3}","[0]","../img/tt/405tt.jpg","",""
"null","<div style=""font-size:60px;""> </div>","null","fixation","html-keyboard-response","503","1536454","0.0-6.0-0.71","2692340","co38845","norming","","","","","","",""
"null","../img/tt/1151tt.jpg","null","mooney1","image-keyboard-response","504","1539455","0.0-6.0-1.71","2692340","co38845","norming","","","","","","",""
"3871.0149999824353","","","post_mooney1_questions","survey-likert","505","1543328","0.0-6.0-2.71","2692340","co38845","norming","","","{""curiosity"":6,""confidence"":3}","[0,1]","../img/tt/1151tt.jpg","",""
"2155.574999982491","","","recognition","survey-text","506","1545489","0.0-6.0-3.71","2692340","co38845","norming","","","{""guess"":""smoke""}","","../img/tt/1151tt.jpg","",""
"null","../img/gs/1151gs.jpg","null","reveal","image-keyboard-response","507","1547492","0.0-6.0-4.71","2692340","co38845","norming","","","","","","",""
"null","../img/tt/1151tt.jpg","null","mooney2","image-keyboard-response","508","1549493","0.0-6.0-5.71","2692340","co38845","norming","","","","","","",""
"2256.9750000257045","","","post_reveal_questions","survey-likert","509","1551751","0.0-6.0-6.71","2692340","co38845","norming","","","{""aha"":4}","[0]","../img/tt/1151tt.jpg","",""
"null","<div style=""font-size:60px;""> </div>","null","fixation","html-keyboard-response","510","1551955","0.0-6.0-0.72","2692340","co38845","norming","","","","","","",""
"null","../img/tt/1366tt.jpg","null","mooney1","image-keyboard-response","511","1554957","0.0-6.0-1.72","2692340","co38845","norming","","","","","","",""
"5806.425000017043","","","post_mooney1_questions","survey-likert","512","1560765","0.0-6.0-2.72","2692340","co38845","norming","","","{""curiosity"":4,""confidence"":0}","[0,1]","../img/tt/1366tt.jpg","",""
"9992.390000028536","","","recognition","survey-text","513","1570766","0.0-6.0-3.72","2692340","co38845","norming","","","{""guess"":""fried chicken""}","","../img/tt/1366tt.jpg","",""
"null","../img/gs/1366gs.jpg","null","reveal","image-keyboard-response","514","1572770","0.0-6.0-4.72","2692340","co38845","norming","","","","","","",""
"null","../img/tt/1366tt.jpg","null","mooney2","image-keyboard-response","515","1574772","0.0-6.0-5.72","2692340","co38845","norming","","","","","","",""
"2416.975000000093","","","post_reveal_questions","survey-likert","516","1577190","0.0-6.0-6.72","2692340","co38845","norming","","","{""aha"":2}","[0]","../img/tt/1366tt.jpg","",""
"null","<div style=""font-size:60px;""> </div>","null","fixation","html-keyboard-response","517","1577397","0.0-6.0-0.73","2692340","co38845","norming","","","","","","",""
"null","../img/tt/163tt.jpg","null","mooney1","image-keyboard-response","518","1580399","0.0-6.0-1.73","2692340","co38845","norming","","","","","","",""
"3055.5049999966286","","","post_mooney1_questions","survey-likert","519","1583457","0.0-6.0-2.73","2692340","co38845","norming","","","{""curiosity"":4,""confidence"":5}","[0,1]","../img/tt/163tt.jpg","",""
"1763.45999998739","","","recognition","survey-text","520","1585229","0.0-6.0-3.73","2692340","co38845","norming","","","{""guess"":""frog""}","","../img/tt/163tt.jpg","",""
"null","../img/gs/163gs.jpg","null","reveal","image-keyboard-response","521","1587231","0.0-6.0-4.73","2692340","co38845","norming","","","","","","",""
"null","../img/tt/163tt.jpg","null","mooney2","image-keyboard-response","522","1589233","0.0-6.0-5.73","2692340","co38845","norming","","","","","","",""
"1946.9749999698251","","","post_reveal_questions","survey-likert","523","1591182","0.0-6.0-6.73","2692340","co38845","norming","","","{""aha"":4}","[0]","../img/tt/163tt.jpg","",""
"null","<div style=""font-size:60px;""> </div>","null","fixation","html-keyboard-response","524","1591389","0.0-6.0-0.74","2692340","co38845","norming","","","","","","",""
"null","../img/tt/1236tt.jpg","null","mooney1","image-keyboard-response","525","1594391","0.0-6.0-1.74","2692340","co38845","norming","","","","","","",""
"4523.249999969266","","","post_mooney1_questions","survey-likert","526","1598917","0.0-6.0-2.74","2692340","co38845","norming","","","{""curiosity"":4,""confidence"":5}","[0,1]","../img/tt/1236tt.jpg","",""
"3445.479999994859","","","recognition","survey-text","527","1602370","0.0-6.0-3.74","2692340","co38845","norming","","","{""guess"":""man lake""}","","../img/tt/1236tt.jpg","",""
"null","../img/gs/1236gs.jpg","null","reveal","image-keyboard-response","528","1604373","0.0-6.0-4.74","2692340","co38845","norming","","","","","","",""
"null","../img/tt/1236tt.jpg","null","mooney2","image-keyboard-response","529","1606375","0.0-6.0-5.74","2692340","co38845","norming","","","","","","",""
"2235.279999964405","","","post_reveal_questions","survey-likert","530","1608612","0.0-6.0-6.74","2692340","co38845","norming","","","{""aha"":4}","[0]","../img/tt/1236tt.jpg","",""
"null","<div style=""font-size:60px;""> </div>","null","fixation","html-keyboard-response","531","1608819","0.0-6.0-0.75","2692340","co38845","norming","","","","","","",""
"null","../img/tt/1190tt.jpg","null","mooney1","image-keyboard-response","532","1611821","0.0-6.0-1.75","2692340","co38845","norming","","","","","","",""
"3991.425000014715","","","post_mooney1_questions","survey-likert","533","1615815","0.0-6.0-2.75","2692340","co38845","norming","","","{""curiosity"":4,""confidence"":1}","[0,1]","../img/tt/1190tt.jpg","",""
"3654.7649999847636","","","recognition","survey-text","534","1619478","0.0-6.0-3.75","2692340","co38845","norming","","","{""guess"":""big bee""}","","../img/tt/1190tt.jpg","",""
"null","../img/gs/1190gs.jpg","null","reveal","image-keyboard-response","535","1621481","0.0-6.0-4.75","2692340","co38845","norming","","","","","","",""
"null","../img/tt/1190tt.jpg","null","mooney2","image-keyboard-response","536","1623483","0.0-6.0-5.75","2692340","co38845","norming","","","","","","",""
"2637.155000003986","","","post_reveal_questions","survey-likert","537","1626122","0.0-6.0-6.75","2692340","co38845","norming","","","{""aha"":5}","[0]","../img/tt/1190tt.jpg","",""
"null","<div style=""font-size:60px;""> </div>","null","fixation","html-keyboard-response","538","1626328","0.0-6.0-0.76","2692340","co38845","norming","","","","","","",""
"null","../img/tt/496tt.jpg","null","mooney1","image-keyboard-response","539","1629330","0.0-6.0-1.76","2692340","co38845","norming","","","","","","",""
"4163.934999960475","","","post_mooney1_questions","survey-likert","540","1633496","0.0-6.0-2.76","2692340","co38845","norming","","","{""curiosity"":3,""confidence"":1}","[0,1]","../img/tt/496tt.jpg","",""
"1560.8000000356697","","","recognition","survey-text","541","1635061","0.0-6.0-3.76","2692340","co38845","norming","","","{""guess"":""pig""}","","../img/tt/496tt.jpg","",""
"null","../img/gs/496gs.jpg","null","reveal","image-keyboard-response","542","1637064","0.0-6.0-4.76","2692340","co38845","norming","","","","","","",""
"null","../img/tt/496tt.jpg","null","mooney2","image-keyboard-response","543","1639066","0.0-6.0-5.76","2692340","co38845","norming","","","","","","",""
"2513.8349999906495","","","post_reveal_questions","survey-likert","544","1641582","0.0-6.0-6.76","2692340","co38845","norming","","","{""aha"":6}","[0]","../img/tt/496tt.jpg","",""
"null","<div style=""font-size:60px;""> </div>","null","fixation","html-keyboard-response","545","1641785","0.0-6.0-0.77","2692340","co38845","norming","","","","","","",""
"null","../img/tt/329tt.jpg","null","mooney1","image-keyboard-response","546","1644787","0.0-6.0-1.77","2692340","co38845","norming","","","","","","",""
"3731.8000000086613","","","post_mooney1_questions","survey-likert","547","1648521","0.0-6.0-2.77","2692340","co38845","norming","","","{""curiosity"":4,""confidence"":1}","[0,1]","../img/tt/329tt.jpg","",""
"3128.1350000062957","","","recognition","survey-text","548","1651654","0.0-6.0-3.77","2692340","co38845","norming","","","{""guess"":""stroller""}","","../img/tt/329tt.jpg","",""
"null","../img/gs/329gs.jpg","null","reveal","image-keyboard-response","549","1653656","0.0-6.0-4.77","2692340","co38845","norming","","","","","","",""
"null","../img/tt/329tt.jpg","null","mooney2","image-keyboard-response","550","1655657","0.0-6.0-5.77","2692340","co38845","norming","","","","","","",""
"2774.3400000035763","","","post_reveal_questions","survey-likert","551","1658433","0.0-6.0-6.77","2692340","co38845","norming","","","{""aha"":4}","[0]","../img/tt/329tt.jpg","",""
