"rt","stimulus","key_press","test_part","trial_type","trial_index","time_elapsed","internal_node_id","totalTime","subject","experiment_name","button_pressed","success","responses","question_order","currentStim","old","correct"
"8447.540000081062","Welcome to the experiment. This is an online experiment so please don't close the tab/window until we say goodbye.  Press any key to begin.","32","instructions","html-keyboard-response","0","8510","0.0-0.0","5582817","co38119","norming","","","","","","",""
"78476.26000002492","<div style='word-wrap: break-word; width: 900px'><h3>Please consider this information carefully before deciding whether to participate in this research</h3><ul style='text-align: left; font-size: .8em;'><li><b>Purpose of the research</b>: To examine how people process images.</li><li><b>What you will do in this research</b>:  Stimuli (images) will be presented on the computer and you will be asked different questions about them.</li><li><b>Time required</b>: Participation will take between 45 and 60 minutes to complete.</li><li><b>Risks</b>:  There are no anticipated risks associated with participating in this study. The effects of participating should be comparable to those you would experience from viewing a computer monitor for 30 minutes and using a mouse or keyboard.</li><li><b>Benefits</b>:  This study provides no benefits to you individually except for the credit. The study provides important information about the nature of perception and learning.</li><li><b>Confidentiality</b>:  Your participation in this study will remain confidential. No personally identifiable information will be associated with your data. Your de-identified data may be shared with other researchers and used in future projects.</li><li><b>Participation and withdrawal</b>:  Your participation in this study is completely voluntary and you may refuse to participate or you may choose to withdraw at any time without penalty.</li><li><b>How to contact the researchers</b>: If you have questions or concerns about your participation or payment, or want to request a summary of research findings, please contact Sander Van de Cruys (KU Leuven), at sander.vandecruys@kuleuven.be.</li></ul><p>The nature and purpose of this research have been sufficiently explained and I agree to participate in this study.  I understand that I am free to withdraw at any time without incurring any penalty.</p><p>Please consent by clicking the button below to continue. Otherwise, please exit the study at this time.</p></div>","","instructions","html-button-response","1","86990","0.0-1.0","5582817","co38119","norming","0","","","","","",""
"","","","instructions","fullscreen","2","91935","0.0-2.0","5582817","co38119","norming","","true","","","","",""
"68054.98000001535","","","sona","survey-html-form","3","159995","0.0-3.0","5582817","co38119","norming","","","[{""name"":""sonaid"",""value"":""38119""},{""name"":""debrief"",""value"":""yes""},{""name"":""datajoin"",""value"":""yes""}]","","","",""
"1539834.135000012","<div style='word-wrap: break-word; width: 900px'><h3>Instructions</h3><p>This experiment will have 3 parts. In the first part you will see a series of distorted images like the one below on the left. As you can see in the righthand image, the distorted images are derived from actual photographs. In what follows, you will <strong>briefly</strong> be presented with <strong>only</strong> the distorted image.</p> <div style='float: left; margin-right: 20px;'><img src='../img/018tt.jpg' height='250' width='250'></img></div><div style='float: right; margin-left: 20px;'><img src='../img/018gs.jpg' height='250' width='250'></img></div><p>Subsequently you will be asked a few questions about the image: One question on how <strong>curious</strong> you are about the solution and one on how <strong>confident</strong> you are that you know the solution.</p>Next, we ask you to make a guess on what is in the image. Note that it is OK to name just the <strong>basic level category</strong>. For example when you see a parrot in the image, 'parrot' will obviously be a correct answer but also correct is 'bird'. However, 'animal' will <strong>not</strong> be counted as a correct response. For the example above, 'rose' would be correct or 'flower', but not 'plant'. When soccer players are depicted, 'soccer', 'football', 'soccer players' will be correct, but not 'humans', 'outdoors', or 'sports'. You do not need to describe the image in full, just name the main object in it <strong>in one or two words</strong>. All images depict objects from one of the following broad level categories: animals, inanimate objects, plants, sports, vehicles, and food. Recognizing means knowing <strong>more</strong> than these broad labels for a given image. But we always encourage you to <strong>make a guess</strong> if you can. Note that you are allowed to use <strong>Dutch and English</strong> in your answers, whatever comes easiest for you.</p><p>Press any key to continue.</p></div>","32","instructions","html-keyboard-response","4","1699831","0.0-4.0","5582817","co38119","norming","","","","","","",""
"23949.765000026673","<div style='word-wrap: break-word; width: 900px'><h3>Instructions</h3> <p>Next, the solution image will be revealed to you and you'll be asked to indicate how strong your <strong>aha-experience</strong> was after seeing the solution. This describes the positive feeling of the 'click' you sometimes experience, when the pieces of the 'puzzle' fall together and you suddenly have 'insight' in the image.</p><img src='aha.jpg' height='188' width='250'></img><p>Note that there are no right or wrong answers. We are interested in what <strong>you</strong> see in the image and how <strong>you</strong> feel about it.</p><p>Press any key to start the experiment.</p></div>","32","instructions","html-keyboard-response","5","1723783","0.0-5.0","5582817","co38119","norming","","","","","","",""
"null","<div style=""font-size:60px;""> </div>","null","fixation","html-keyboard-response","6","1723985","0.0-6.0-0.0","5582817","co38119","norming","","","","","","",""
"null","../img/tt/1101tt.jpg","null","mooney1","image-keyboard-response","7","1726991","0.0-6.0-1.0","5582817","co38119","norming","","","","","","",""
"11118.79500001669","","","post_mooney1_questions","survey-likert","8","1738114","0.0-6.0-2.0","5582817","co38119","norming","","","{""curiosity"":5,""confidence"":1}","[0,1]","../img/tt/1101tt.jpg","",""
"3802.2450000280514","","","recognition","survey-text","9","1741921","0.0-6.0-3.0","5582817","co38119","norming","","","{""guess"":""soldaat""}","","../img/tt/1101tt.jpg","",""
"null","../img/gs/1101gs.jpg","null","reveal","image-keyboard-response","10","1743924","0.0-6.0-4.0","5582817","co38119","norming","","","","","","",""
"null","../img/tt/1101tt.jpg","null","mooney2","image-keyboard-response","11","1745926","0.0-6.0-5.0","5582817","co38119","norming","","","","","","",""
"8519.505000091158","","","post_reveal_questions","survey-likert","12","1754448","0.0-6.0-6.0","5582817","co38119","norming","","","{""aha"":4}","[0]","../img/tt/1101tt.jpg","",""
"null","<div style=""font-size:60px;""> </div>","null","fixation","html-keyboard-response","13","1754652","0.0-6.0-0.1","5582817","co38119","norming","","","","","","",""
"null","../img/tt/094tt.jpg","null","mooney1","image-keyboard-response","14","1757655","0.0-6.0-1.1","5582817","co38119","norming","","","","","","",""
"11391.10000000801","","","post_mooney1_questions","survey-likert","15","1769049","0.0-6.0-2.1","5582817","co38119","norming","","","{""curiosity"":5,""confidence"":0}","[0,1]","../img/tt/094tt.jpg","",""
"7266.745000029914","","","recognition","survey-text","16","1776319","0.0-6.0-3.1","5582817","co38119","norming","","","{""guess"":""wolf""}","","../img/tt/094tt.jpg","",""
"null","../img/gs/094gs.jpg","null","reveal","image-keyboard-response","17","1778322","0.0-6.0-4.1","5582817","co38119","norming","","","","","","",""
"null","../img/tt/094tt.jpg","null","mooney2","image-keyboard-response","18","1780325","0.0-6.0-5.1","5582817","co38119","norming","","","","","","",""
"6583.860000013374","","","post_reveal_questions","survey-likert","19","1786911","0.0-6.0-6.1","5582817","co38119","norming","","","{""aha"":6}","[0]","../img/tt/094tt.jpg","",""
"null","<div style=""font-size:60px;""> </div>","null","fixation","html-keyboard-response","20","1787114","0.0-6.0-0.2","5582817","co38119","norming","","","","","","",""
"null","../img/tt/456tt.jpg","null","mooney1","image-keyboard-response","21","1790119","0.0-6.0-1.2","5582817","co38119","norming","","","","","","",""
"9263.819999992847","","","post_mooney1_questions","survey-likert","22","1799387","0.0-6.0-2.2","5582817","co38119","norming","","","{""curiosity"":4,""confidence"":3}","[0,1]","../img/tt/456tt.jpg","",""
"3132.630000007339","","","recognition","survey-text","23","1802523","0.0-6.0-3.2","5582817","co38119","norming","","","{""guess"":""ijsbeer""}","","../img/tt/456tt.jpg","",""
"null","../img/gs/456gs.jpg","null","reveal","image-keyboard-response","24","1804525","0.0-6.0-4.2","5582817","co38119","norming","","","","","","",""
"null","../img/tt/456tt.jpg","null","mooney2","image-keyboard-response","25","1806528","0.0-6.0-5.2","5582817","co38119","norming","","","","","","",""
"3936.960000079125","","","post_reveal_questions","survey-likert","26","1810467","0.0-6.0-6.2","5582817","co38119","norming","","","{""aha"":4}","[0]","../img/tt/456tt.jpg","",""
"null","<div style=""font-size:60px;""> </div>","null","fixation","html-keyboard-response","27","1810671","0.0-6.0-0.3","5582817","co38119","norming","","","","","","",""
"null","../img/tt/1055tt.jpg","null","mooney1","image-keyboard-response","28","1813674","0.0-6.0-1.3","5582817","co38119","norming","","","","","","",""
"12948.78500001505","","","post_mooney1_questions","survey-likert","29","1826625","0.0-6.0-2.3","5582817","co38119","norming","","","{""curiosity"":6,""confidence"":2}","[0,1]","../img/tt/1055tt.jpg","",""
"4320.4600000754","","","recognition","survey-text","30","1830949","0.0-6.0-3.3","5582817","co38119","norming","","","{""guess"":""insect""}","","../img/tt/1055tt.jpg","",""
"null","../img/gs/1055gs.jpg","null","reveal","image-keyboard-response","31","1832952","0.0-6.0-4.3","5582817","co38119","norming","","","","","","",""
"null","../img/tt/1055tt.jpg","null","mooney2","image-keyboard-response","32","1834956","0.0-6.0-5.3","5582817","co38119","norming","","","","","","",""
"45856.389999971725","","","post_reveal_questions","survey-likert","33","1880815","0.0-6.0-6.3","5582817","co38119","norming","","","{""aha"":6}","[0]","../img/tt/1055tt.jpg","",""
"null","<div style=""font-size:60px;""> </div>","null","fixation","html-keyboard-response","34","1881018","0.0-6.0-0.4","5582817","co38119","norming","","","","","","",""
"null","../img/tt/1063tt.jpg","null","mooney1","image-keyboard-response","35","1884023","0.0-6.0-1.4","5582817","co38119","norming","","","","","","",""
"11364.930000039749","","","post_mooney1_questions","survey-likert","36","1895391","0.0-6.0-2.4","5582817","co38119","norming","","","{""curiosity"":3,""confidence"":3}","[0,1]","../img/tt/1063tt.jpg","",""
"4983.354999916628","","","recognition","survey-text","37","1900378","0.0-6.0-3.4","5582817","co38119","norming","","","{""guess"":""paard""}","","../img/tt/1063tt.jpg","",""
"null","../img/gs/1063gs.jpg","null","reveal","image-keyboard-response","38","1902380","0.0-6.0-4.4","5582817","co38119","norming","","","","","","",""
"null","../img/tt/1063tt.jpg","null","mooney2","image-keyboard-response","39","1904387","0.0-6.0-5.4","5582817","co38119","norming","","","","","","",""
"26145.299999974668","","","post_reveal_questions","survey-likert","40","1930534","0.0-6.0-6.4","5582817","co38119","norming","","","{""aha"":4}","[0]","../img/tt/1063tt.jpg","",""
"null","<div style=""font-size:60px;""> </div>","null","fixation","html-keyboard-response","41","1930737","0.0-6.0-0.5","5582817","co38119","norming","","","","","","",""
"null","../img/tt/1235tt.jpg","null","mooney1","image-keyboard-response","42","1933739","0.0-6.0-1.5","5582817","co38119","norming","","","","","","",""
"7256.265000090934","","","post_mooney1_questions","survey-likert","43","1940998","0.0-6.0-2.5","5582817","co38119","norming","","","{""curiosity"":4,""confidence"":2}","[0,1]","../img/tt/1235tt.jpg","",""
"2146.8849999364465","","","recognition","survey-text","44","1943149","0.0-6.0-3.5","5582817","co38119","norming","","","{""guess"":""koe""}","","../img/tt/1235tt.jpg","",""
"null","../img/gs/1235gs.jpg","null","reveal","image-keyboard-response","45","1945153","0.0-6.0-4.5","5582817","co38119","norming","","","","","","",""
"null","../img/tt/1235tt.jpg","null","mooney2","image-keyboard-response","46","1947155","0.0-6.0-5.5","5582817","co38119","norming","","","","","","",""
"4944.714999990538","","","post_reveal_questions","survey-likert","47","1952102","0.0-6.0-6.5","5582817","co38119","norming","","","{""aha"":4}","[0]","../img/tt/1235tt.jpg","",""
"null","<div style=""font-size:60px;""> </div>","null","fixation","html-keyboard-response","48","1952305","0.0-6.0-0.6","5582817","co38119","norming","","","","","","",""
"null","../img/tt/1228tt.jpg","null","mooney1","image-keyboard-response","49","1955309","0.0-6.0-1.6","5582817","co38119","norming","","","","","","",""
"6215.250000008382","","","post_mooney1_questions","survey-likert","50","1961527","0.0-6.0-2.6","5582817","co38119","norming","","","{""curiosity"":3,""confidence"":3}","[0,1]","../img/tt/1228tt.jpg","",""
"2626.1849999427795","","","recognition","survey-text","51","1964157","0.0-6.0-3.6","5582817","co38119","norming","","","{""guess"":""vogel""}","","../img/tt/1228tt.jpg","",""
"null","../img/gs/1228gs.jpg","null","reveal","image-keyboard-response","52","1966159","0.0-6.0-4.6","5582817","co38119","norming","","","","","","",""
"null","../img/tt/1228tt.jpg","null","mooney2","image-keyboard-response","53","1968161","0.0-6.0-5.6","5582817","co38119","norming","","","","","","",""
"4517.594999982975","","","post_reveal_questions","survey-likert","54","1972681","0.0-6.0-6.6","5582817","co38119","norming","","","{""aha"":6}","[0]","../img/tt/1228tt.jpg","",""
"null","<div style=""font-size:60px;""> </div>","null","fixation","html-keyboard-response","55","1972884","0.0-6.0-0.7","5582817","co38119","norming","","","","","","",""
"null","../img/tt/435tt.jpg","null","mooney1","image-keyboard-response","56","1975889","0.0-6.0-1.7","5582817","co38119","norming","","","","","","",""
"13419.69499993138","","","post_mooney1_questions","survey-likert","57","1989311","0.0-6.0-2.7","5582817","co38119","norming","","","{""curiosity"":5,""confidence"":2}","[0,1]","../img/tt/435tt.jpg","",""
"1705.489999963902","","","recognition","survey-text","58","1991020","0.0-6.0-3.7","5582817","co38119","norming","","","{""guess"":""huis""}","","../img/tt/435tt.jpg","",""
"null","../img/gs/435gs.jpg","null","reveal","image-keyboard-response","59","1993024","0.0-6.0-4.7","5582817","co38119","norming","","","","","","",""
"null","../img/tt/435tt.jpg","null","mooney2","image-keyboard-response","60","1995027","0.0-6.0-5.7","5582817","co38119","norming","","","","","","",""
"4568.225000053644","","","post_reveal_questions","survey-likert","61","1999597","0.0-6.0-6.7","5582817","co38119","norming","","","{""aha"":5}","[0]","../img/tt/435tt.jpg","",""
"null","<div style=""font-size:60px;""> </div>","null","fixation","html-keyboard-response","62","1999799","0.0-6.0-0.8","5582817","co38119","norming","","","","","","",""
"null","../img/tt/140tt.jpg","null","mooney1","image-keyboard-response","63","2002803","0.0-6.0-1.8","5582817","co38119","norming","","","","","","",""
"9000.735000008717","","","post_mooney1_questions","survey-likert","64","2011807","0.0-6.0-2.8","5582817","co38119","norming","","","{""curiosity"":4,""confidence"":1}","[0,1]","../img/tt/140tt.jpg","",""
"2172.179999994114","","","recognition","survey-text","65","2013982","0.0-6.0-3.8","5582817","co38119","norming","","","{""guess"":""""}","","../img/tt/140tt.jpg","",""
"null","../img/gs/140gs.jpg","null","reveal","image-keyboard-response","66","2015986","0.0-6.0-4.8","5582817","co38119","norming","","","","","","",""
"null","../img/tt/140tt.jpg","null","mooney2","image-keyboard-response","67","2017989","0.0-6.0-5.8","5582817","co38119","norming","","","","","","",""
"10187.54000007175","","","post_reveal_questions","survey-likert","68","2028179","0.0-6.0-6.8","5582817","co38119","norming","","","{""aha"":5}","[0]","../img/tt/140tt.jpg","",""
"null","<div style=""font-size:60px;""> </div>","null","fixation","html-keyboard-response","69","2028386","0.0-6.0-0.9","5582817","co38119","norming","","","","","","",""
"null","../img/tt/1061tt.jpg","null","mooney1","image-keyboard-response","70","2031390","0.0-6.0-1.9","5582817","co38119","norming","","","","","","",""
"5267.969999928027","","","post_mooney1_questions","survey-likert","71","2036661","0.0-6.0-2.9","5582817","co38119","norming","","","{""curiosity"":4,""confidence"":4}","[0,1]","../img/tt/1061tt.jpg","",""
"5998.8049999810755","","","recognition","survey-text","72","2042663","0.0-6.0-3.9","5582817","co38119","norming","","","{""guess"":""wipwap""}","","../img/tt/1061tt.jpg","",""
"null","../img/gs/1061gs.jpg","null","reveal","image-keyboard-response","73","2044666","0.0-6.0-4.9","5582817","co38119","norming","","","","","","",""
"null","../img/tt/1061tt.jpg","null","mooney2","image-keyboard-response","74","2046670","0.0-6.0-5.9","5582817","co38119","norming","","","","","","",""
"3015.750000020489","","","post_reveal_questions","survey-likert","75","2049688","0.0-6.0-6.9","5582817","co38119","norming","","","{""aha"":2}","[0]","../img/tt/1061tt.jpg","",""
"null","<div style=""font-size:60px;""> </div>","null","fixation","html-keyboard-response","76","2049890","0.0-6.0-0.10","5582817","co38119","norming","","","","","","",""
"null","../img/tt/1044tt.jpg","null","mooney1","image-keyboard-response","77","2052894","0.0-6.0-1.10","5582817","co38119","norming","","","","","","",""
"6436.269999947399","","","post_mooney1_questions","survey-likert","78","2059333","0.0-6.0-2.10","5582817","co38119","norming","","","{""curiosity"":5,""confidence"":1}","[0,1]","../img/tt/1044tt.jpg","",""
"1938.025000039488","","","recognition","survey-text","79","2061275","0.0-6.0-3.10","5582817","co38119","norming","","","{""guess"":""hoed""}","","../img/tt/1044tt.jpg","",""
"null","../img/gs/1044gs.jpg","null","reveal","image-keyboard-response","80","2063278","0.0-6.0-4.10","5582817","co38119","norming","","","","","","",""
"null","../img/tt/1044tt.jpg","null","mooney2","image-keyboard-response","81","2065281","0.0-6.0-5.10","5582817","co38119","norming","","","","","","",""
"3370.619999943301","","","post_reveal_questions","survey-likert","82","2068654","0.0-6.0-6.10","5582817","co38119","norming","","","{""aha"":6}","[0]","../img/tt/1044tt.jpg","",""
"null","<div style=""font-size:60px;""> </div>","null","fixation","html-keyboard-response","83","2068857","0.0-6.0-0.11","5582817","co38119","norming","","","","","","",""
"null","../img/tt/1004tt.jpg","null","mooney1","image-keyboard-response","84","2071860","0.0-6.0-1.11","5582817","co38119","norming","","","","","","",""
"6376.700000022538","","","post_mooney1_questions","survey-likert","85","2078240","0.0-6.0-2.11","5582817","co38119","norming","","","{""curiosity"":4,""confidence"":2}","[0,1]","../img/tt/1004tt.jpg","",""
"1400.8799999719486","","","recognition","survey-text","86","2079644","0.0-6.0-3.11","5582817","co38119","norming","","","{""guess"":""koe""}","","../img/tt/1004tt.jpg","",""
"null","../img/gs/1004gs.jpg","null","reveal","image-keyboard-response","87","2081646","0.0-6.0-4.11","5582817","co38119","norming","","","","","","",""
"null","../img/tt/1004tt.jpg","null","mooney2","image-keyboard-response","88","2083649","0.0-6.0-5.11","5582817","co38119","norming","","","","","","",""
"3363.454999984242","","","post_reveal_questions","survey-likert","89","2087015","0.0-6.0-6.11","5582817","co38119","norming","","","{""aha"":1}","[0]","../img/tt/1004tt.jpg","",""
"null","<div style=""font-size:60px;""> </div>","null","fixation","html-keyboard-response","90","2087217","0.0-6.0-0.12","5582817","co38119","norming","","","","","","",""
"null","../img/tt/1154tt.jpg","null","mooney1","image-keyboard-response","91","2090221","0.0-6.0-1.12","5582817","co38119","norming","","","","","","",""
"11198.824999970384","","","post_mooney1_questions","survey-likert","92","2101423","0.0-6.0-2.12","5582817","co38119","norming","","","{""curiosity"":4,""confidence"":1}","[0,1]","../img/tt/1154tt.jpg","",""
"4328.979999991134","","","recognition","survey-text","93","2105755","0.0-6.0-3.12","5582817","co38119","norming","","","{""guess"":""kajak""}","","../img/tt/1154tt.jpg","",""
"null","../img/gs/1154gs.jpg","null","reveal","image-keyboard-response","94","2107758","0.0-6.0-4.12","5582817","co38119","norming","","","","","","",""
"null","../img/tt/1154tt.jpg","null","mooney2","image-keyboard-response","95","2109761","0.0-6.0-5.12","5582817","co38119","norming","","","","","","",""
"3312.8900000592694","","","post_reveal_questions","survey-likert","96","2113076","0.0-6.0-6.12","5582817","co38119","norming","","","{""aha"":6}","[0]","../img/tt/1154tt.jpg","",""
"null","<div style=""font-size:60px;""> </div>","null","fixation","html-keyboard-response","97","2113279","0.0-6.0-0.13","5582817","co38119","norming","","","","","","",""
"null","../img/tt/1247tt.jpg","null","mooney1","image-keyboard-response","98","2116283","0.0-6.0-1.13","5582817","co38119","norming","","","","","","",""
"6682.6250000158325","","","post_mooney1_questions","survey-likert","99","2122972","0.0-6.0-2.13","5582817","co38119","norming","","","{""curiosity"":5,""confidence"":2}","[0,1]","../img/tt/1247tt.jpg","",""
"1422.3250000504777","","","recognition","survey-text","100","2124398","0.0-6.0-3.13","5582817","co38119","norming","","","{""guess"":""boer""}","","../img/tt/1247tt.jpg","",""
"null","../img/gs/1247gs.jpg","null","reveal","image-keyboard-response","101","2126402","0.0-6.0-4.13","5582817","co38119","norming","","","","","","",""
"null","../img/tt/1247tt.jpg","null","mooney2","image-keyboard-response","102","2128405","0.0-6.0-5.13","5582817","co38119","norming","","","","","","",""
"3458.900000085123","","","post_reveal_questions","survey-likert","103","2131866","0.0-6.0-6.13","5582817","co38119","norming","","","{""aha"":6}","[0]","../img/tt/1247tt.jpg","",""
"null","<div style=""font-size:60px;""> </div>","null","fixation","html-keyboard-response","104","2132068","0.0-6.0-0.14","5582817","co38119","norming","","","","","","",""
"null","../img/tt/1250tt.jpg","null","mooney1","image-keyboard-response","105","2135071","0.0-6.0-1.14","5582817","co38119","norming","","","","","","",""
"6901.659999974072","","","post_mooney1_questions","survey-likert","106","2141976","0.0-6.0-2.14","5582817","co38119","norming","","","{""curiosity"":6,""confidence"":2}","[0,1]","../img/tt/1250tt.jpg","",""
"4804.425000096671","","","recognition","survey-text","107","2146784","0.0-6.0-3.14","5582817","co38119","norming","","","{""guess"":""dode beer""}","","../img/tt/1250tt.jpg","",""
"null","../img/gs/1250gs.jpg","null","reveal","image-keyboard-response","108","2148786","0.0-6.0-4.14","5582817","co38119","norming","","","","","","",""
"null","../img/tt/1250tt.jpg","null","mooney2","image-keyboard-response","109","2150790","0.0-6.0-5.14","5582817","co38119","norming","","","","","","",""
"4166.499999933876","","","post_reveal_questions","survey-likert","110","2154959","0.0-6.0-6.14","5582817","co38119","norming","","","{""aha"":5}","[0]","../img/tt/1250tt.jpg","",""
"null","<div style=""font-size:60px;""> </div>","null","fixation","html-keyboard-response","111","2155161","0.0-6.0-0.15","5582817","co38119","norming","","","","","","",""
"null","../img/tt/1097tt.jpg","null","mooney1","image-keyboard-response","112","2158163","0.0-6.0-1.15","5582817","co38119","norming","","","","","","",""
"7175.690000061877","","","post_mooney1_questions","survey-likert","113","2165342","0.0-6.0-2.15","5582817","co38119","norming","","","{""curiosity"":4,""confidence"":2}","[0,1]","../img/tt/1097tt.jpg","",""
"5517.869999981485","","","recognition","survey-text","114","2170863","0.0-6.0-3.15","5582817","co38119","norming","","","{""guess"":""scheidsrechter""}","","../img/tt/1097tt.jpg","",""
"null","../img/gs/1097gs.jpg","null","reveal","image-keyboard-response","115","2172865","0.0-6.0-4.15","5582817","co38119","norming","","","","","","",""
"null","../img/tt/1097tt.jpg","null","mooney2","image-keyboard-response","116","2174868","0.0-6.0-5.15","5582817","co38119","norming","","","","","","",""
"5384.584999992512","","","post_reveal_questions","survey-likert","117","2180255","0.0-6.0-6.15","5582817","co38119","norming","","","{""aha"":5}","[0]","../img/tt/1097tt.jpg","",""
"null","<div style=""font-size:60px;""> </div>","null","fixation","html-keyboard-response","118","2180457","0.0-6.0-0.16","5582817","co38119","norming","","","","","","",""
"null","../img/tt/497tt.jpg","null","mooney1","image-keyboard-response","119","2183462","0.0-6.0-1.16","5582817","co38119","norming","","","","","","",""
"6812.629999942146","","","post_mooney1_questions","survey-likert","120","2190277","0.0-6.0-2.16","5582817","co38119","norming","","","{""curiosity"":3,""confidence"":5}","[0,1]","../img/tt/497tt.jpg","",""
"5870.735000004061","","","recognition","survey-text","121","2196151","0.0-6.0-3.16","5582817","co38119","norming","","","{""guess"":""gasvuur""}","","../img/tt/497tt.jpg","",""
"null","../img/gs/497gs.jpg","null","reveal","image-keyboard-response","122","2198154","0.0-6.0-4.16","5582817","co38119","norming","","","","","","",""
"null","../img/tt/497tt.jpg","null","mooney2","image-keyboard-response","123","2200156","0.0-6.0-5.16","5582817","co38119","norming","","","","","","",""
"3963.854999979958","","","post_reveal_questions","survey-likert","124","2204122","0.0-6.0-6.16","5582817","co38119","norming","","","{""aha"":1}","[0]","../img/tt/497tt.jpg","",""
"null","<div style=""font-size:60px;""> </div>","null","fixation","html-keyboard-response","125","2204324","0.0-6.0-0.17","5582817","co38119","norming","","","","","","",""
"null","../img/tt/1236tt.jpg","null","mooney1","image-keyboard-response","126","2207328","0.0-6.0-1.17","5582817","co38119","norming","","","","","","",""
"9000.420000054874","","","post_mooney1_questions","survey-likert","127","2216332","0.0-6.0-2.17","5582817","co38119","norming","","","{""curiosity"":0,""confidence"":6}","[0,1]","../img/tt/1236tt.jpg","",""
"1784.1349999653175","","","recognition","survey-text","128","2218120","0.0-6.0-3.17","5582817","co38119","norming","","","{""guess"":""eend""}","","../img/tt/1236tt.jpg","",""
"null","../img/gs/1236gs.jpg","null","reveal","image-keyboard-response","129","2220123","0.0-6.0-4.17","5582817","co38119","norming","","","","","","",""
"null","../img/tt/1236tt.jpg","null","mooney2","image-keyboard-response","130","2222126","0.0-6.0-5.17","5582817","co38119","norming","","","","","","",""
"85234.60000008345","","","post_reveal_questions","survey-likert","131","2307363","0.0-6.0-6.17","5582817","co38119","norming","","","{""aha"":0}","[0]","../img/tt/1236tt.jpg","",""
"null","<div style=""font-size:60px;""> </div>","null","fixation","html-keyboard-response","132","2307566","0.0-6.0-0.18","5582817","co38119","norming","","","","","","",""
"null","../img/tt/440tt.jpg","null","mooney1","image-keyboard-response","133","2310569","0.0-6.0-1.18","5582817","co38119","norming","","","","","","",""
"51080.03499999177","","","post_mooney1_questions","survey-likert","134","2361652","0.0-6.0-2.18","5582817","co38119","norming","","","{""curiosity"":5,""confidence"":1}","[0,1]","../img/tt/440tt.jpg","",""
"2936.779999989085","","","recognition","survey-text","135","2364592","0.0-6.0-3.18","5582817","co38119","norming","","","{""guess"":""""}","","../img/tt/440tt.jpg","",""
"null","../img/gs/440gs.jpg","null","reveal","image-keyboard-response","136","2366595","0.0-6.0-4.18","5582817","co38119","norming","","","","","","",""
"null","../img/tt/440tt.jpg","null","mooney2","image-keyboard-response","137","2368598","0.0-6.0-5.18","5582817","co38119","norming","","","","","","",""
"57415.080000064336","","","post_reveal_questions","survey-likert","138","2426015","0.0-6.0-6.18","5582817","co38119","norming","","","{""aha"":5}","[0]","../img/tt/440tt.jpg","",""
"null","<div style=""font-size:60px;""> </div>","null","fixation","html-keyboard-response","139","2426219","0.0-6.0-0.19","5582817","co38119","norming","","","","","","",""
"null","../img/tt/515tt.jpg","null","mooney1","image-keyboard-response","140","2429222","0.0-6.0-1.19","5582817","co38119","norming","","","","","","",""
"15013.660000055097","","","post_mooney1_questions","survey-likert","141","2444239","0.0-6.0-2.19","5582817","co38119","norming","","","{""curiosity"":4,""confidence"":1}","[0,1]","../img/tt/515tt.jpg","",""
"4097.150000045076","","","recognition","survey-text","142","2448339","0.0-6.0-3.19","5582817","co38119","norming","","","{""guess"":""mexicaan""}","","../img/tt/515tt.jpg","",""
"null","../img/gs/515gs.jpg","null","reveal","image-keyboard-response","143","2450343","0.0-6.0-4.19","5582817","co38119","norming","","","","","","",""
"null","../img/tt/515tt.jpg","null","mooney2","image-keyboard-response","144","2452346","0.0-6.0-5.19","5582817","co38119","norming","","","","","","",""
"4261.83500001207","","","post_reveal_questions","survey-likert","145","2456610","0.0-6.0-6.19","5582817","co38119","norming","","","{""aha"":5}","[0]","../img/tt/515tt.jpg","",""
"null","<div style=""font-size:60px;""> </div>","null","fixation","html-keyboard-response","146","2456812","0.0-6.0-0.20","5582817","co38119","norming","","","","","","",""
"null","../img/tt/1027tt.jpg","null","mooney1","image-keyboard-response","147","2459816","0.0-6.0-1.20","5582817","co38119","norming","","","","","","",""
"292402.5149999652","","","post_mooney1_questions","survey-likert","148","2752222","0.0-6.0-2.20","5582817","co38119","norming","","","{""curiosity"":5,""confidence"":0}","[0,1]","../img/tt/1027tt.jpg","",""
"2525.5450000986457","","","recognition","survey-text","149","2754751","0.0-6.0-3.20","5582817","co38119","norming","","","{""guess"":""giraf""}","","../img/tt/1027tt.jpg","",""
"null","../img/gs/1027gs.jpg","null","reveal","image-keyboard-response","150","2756754","0.0-6.0-4.20","5582817","co38119","norming","","","","","","",""
"null","../img/tt/1027tt.jpg","null","mooney2","image-keyboard-response","151","2758755","0.0-6.0-5.20","5582817","co38119","norming","","","","","","",""
"4400.664999964647","","","post_reveal_questions","survey-likert","152","2763158","0.0-6.0-6.20","5582817","co38119","norming","","","{""aha"":5}","[0]","../img/tt/1027tt.jpg","",""
"null","<div style=""font-size:60px;""> </div>","null","fixation","html-keyboard-response","153","2763361","0.0-6.0-0.21","5582817","co38119","norming","","","","","","",""
"null","../img/tt/1123tt.jpg","null","mooney1","image-keyboard-response","154","2766365","0.0-6.0-1.21","5582817","co38119","norming","","","","","","",""
"6312.475000042468","","","post_mooney1_questions","survey-likert","155","2772680","0.0-6.0-2.21","5582817","co38119","norming","","","{""curiosity"":3,""confidence"":4}","[0,1]","../img/tt/1123tt.jpg","",""
"2889.2749999649823","","","recognition","survey-text","156","2775573","0.0-6.0-3.21","5582817","co38119","norming","","","{""guess"":""volleybal""}","","../img/tt/1123tt.jpg","",""
"null","../img/gs/1123gs.jpg","null","reveal","image-keyboard-response","157","2777575","0.0-6.0-4.21","5582817","co38119","norming","","","","","","",""
"null","../img/tt/1123tt.jpg","null","mooney2","image-keyboard-response","158","2779578","0.0-6.0-5.21","5582817","co38119","norming","","","","","","",""
"8139.934999984689","","","post_reveal_questions","survey-likert","159","2787721","0.0-6.0-6.21","5582817","co38119","norming","","","{""aha"":5}","[0]","../img/tt/1123tt.jpg","",""
"null","<div style=""font-size:60px;""> </div>","null","fixation","html-keyboard-response","160","2787923","0.0-6.0-0.22","5582817","co38119","norming","","","","","","",""
"null","../img/tt/163tt.jpg","null","mooney1","image-keyboard-response","161","2790928","0.0-6.0-1.22","5582817","co38119","norming","","","","","","",""
"19510.370000032708","","","post_mooney1_questions","survey-likert","162","2810441","0.0-6.0-2.22","5582817","co38119","norming","","","{""curiosity"":3,""confidence"":1}","[0,1]","../img/tt/163tt.jpg","",""
"1680.1899999845773","","","recognition","survey-text","163","2812125","0.0-6.0-3.22","5582817","co38119","norming","","","{""guess"":""kikker""}","","../img/tt/163tt.jpg","",""
"null","../img/gs/163gs.jpg","null","reveal","image-keyboard-response","164","2814127","0.0-6.0-4.22","5582817","co38119","norming","","","","","","",""
"null","../img/tt/163tt.jpg","null","mooney2","image-keyboard-response","165","2816130","0.0-6.0-5.22","5582817","co38119","norming","","","","","","",""
"2940.9250000026077","","","post_reveal_questions","survey-likert","166","2819074","0.0-6.0-6.22","5582817","co38119","norming","","","{""aha"":1}","[0]","../img/tt/163tt.jpg","",""
"null","<div style=""font-size:60px;""> </div>","null","fixation","html-keyboard-response","167","2819275","0.0-6.0-0.23","5582817","co38119","norming","","","","","","",""
"null","../img/tt/080tt.jpg","null","mooney1","image-keyboard-response","168","2822278","0.0-6.0-1.23","5582817","co38119","norming","","","","","","",""
"3948.3900000341237","","","post_mooney1_questions","survey-likert","169","2826229","0.0-6.0-2.23","5582817","co38119","norming","","","{""curiosity"":1,""confidence"":5}","[0,1]","../img/tt/080tt.jpg","",""
"1732.079999987036","","","recognition","survey-text","170","2827965","0.0-6.0-3.23","5582817","co38119","norming","","","{""guess"":""hond""}","","../img/tt/080tt.jpg","",""
"null","../img/gs/080gs.jpg","null","reveal","image-keyboard-response","171","2829967","0.0-6.0-4.23","5582817","co38119","norming","","","","","","",""
"null","../img/tt/080tt.jpg","null","mooney2","image-keyboard-response","172","2831970","0.0-6.0-5.23","5582817","co38119","norming","","","","","","",""
"3701.854999992065","","","post_reveal_questions","survey-likert","173","2835674","0.0-6.0-6.23","5582817","co38119","norming","","","{""aha"":4}","[0]","../img/tt/080tt.jpg","",""
"null","<div style=""font-size:60px;""> </div>","null","fixation","html-keyboard-response","174","2835877","0.0-6.0-0.24","5582817","co38119","norming","","","","","","",""
"null","../img/tt/1087tt.jpg","null","mooney1","image-keyboard-response","175","2838880","0.0-6.0-1.24","5582817","co38119","norming","","","","","","",""
"6332.129999995232","","","post_mooney1_questions","survey-likert","176","2845215","0.0-6.0-2.24","5582817","co38119","norming","","","{""curiosity"":6,""confidence"":0}","[0,1]","../img/tt/1087tt.jpg","",""
"3767.1100000152364","","","recognition","survey-text","177","2848986","0.0-6.0-3.24","5582817","co38119","norming","","","{""guess"":""hond""}","","../img/tt/1087tt.jpg","",""
"null","../img/gs/1087gs.jpg","null","reveal","image-keyboard-response","178","2850989","0.0-6.0-4.24","5582817","co38119","norming","","","","","","",""
"null","../img/tt/1087tt.jpg","null","mooney2","image-keyboard-response","179","2852991","0.0-6.0-5.24","5582817","co38119","norming","","","","","","",""
"4016.070000012405","","","post_reveal_questions","survey-likert","180","2857010","0.0-6.0-6.24","5582817","co38119","norming","","","{""aha"":5}","[0]","../img/tt/1087tt.jpg","",""
"null","<div style=""font-size:60px;""> </div>","null","fixation","html-keyboard-response","181","2857213","0.0-6.0-0.25","5582817","co38119","norming","","","","","","",""
"null","../img/tt/524tt.jpg","null","mooney1","image-keyboard-response","182","2860217","0.0-6.0-1.25","5582817","co38119","norming","","","","","","",""
"4238.445000024512","","","post_mooney1_questions","survey-likert","183","2864459","0.0-6.0-2.25","5582817","co38119","norming","","","{""curiosity"":0,""confidence"":5}","[0,1]","../img/tt/524tt.jpg","",""
"2629.590000025928","","","recognition","survey-text","184","2867092","0.0-6.0-3.25","5582817","co38119","norming","","","{""guess"":""olifant""}","","../img/tt/524tt.jpg","",""
"null","../img/gs/524gs.jpg","null","reveal","image-keyboard-response","185","2869096","0.0-6.0-4.25","5582817","co38119","norming","","","","","","",""
"null","../img/tt/524tt.jpg","null","mooney2","image-keyboard-response","186","2871100","0.0-6.0-5.25","5582817","co38119","norming","","","","","","",""
"3493.9350000349805","","","post_reveal_questions","survey-likert","187","2874596","0.0-6.0-6.25","5582817","co38119","norming","","","{""aha"":4}","[0]","../img/tt/524tt.jpg","",""
"null","<div style=""font-size:60px;""> </div>","null","fixation","html-keyboard-response","188","2874799","0.0-6.0-0.26","5582817","co38119","norming","","","","","","",""
"null","../img/tt/1046tt.jpg","null","mooney1","image-keyboard-response","189","2877802","0.0-6.0-1.26","5582817","co38119","norming","","","","","","",""
"4732.510000001639","","","post_mooney1_questions","survey-likert","190","2882538","0.0-6.0-2.26","5582817","co38119","norming","","","{""curiosity"":5,""confidence"":3}","[0,1]","../img/tt/1046tt.jpg","",""
"2059.045000001788","","","recognition","survey-text","191","2884601","0.0-6.0-3.26","5582817","co38119","norming","","","{""guess"":""wok""}","","../img/tt/1046tt.jpg","",""
"null","../img/gs/1046gs.jpg","null","reveal","image-keyboard-response","192","2886603","0.0-6.0-4.26","5582817","co38119","norming","","","","","","",""
"null","../img/tt/1046tt.jpg","null","mooney2","image-keyboard-response","193","2888607","0.0-6.0-5.26","5582817","co38119","norming","","","","","","",""
"3107.365000061691","","","post_reveal_questions","survey-likert","194","2891716","0.0-6.0-6.26","5582817","co38119","norming","","","{""aha"":2}","[0]","../img/tt/1046tt.jpg","",""
"null","<div style=""font-size:60px;""> </div>","null","fixation","html-keyboard-response","195","2891919","0.0-6.0-0.27","5582817","co38119","norming","","","","","","",""
"null","../img/tt/1232tt.jpg","null","mooney1","image-keyboard-response","196","2894923","0.0-6.0-1.27","5582817","co38119","norming","","","","","","",""
"6507.379999966361","","","post_mooney1_questions","survey-likert","197","2901433","0.0-6.0-2.27","5582817","co38119","norming","","","{""curiosity"":5,""confidence"":0}","[0,1]","../img/tt/1232tt.jpg","",""
"1690.610000048764","","","recognition","survey-text","198","2903128","0.0-6.0-3.27","5582817","co38119","norming","","","{""guess"":""""}","","../img/tt/1232tt.jpg","",""
"null","../img/gs/1232gs.jpg","null","reveal","image-keyboard-response","199","2905131","0.0-6.0-4.27","5582817","co38119","norming","","","","","","",""
"null","../img/tt/1232tt.jpg","null","mooney2","image-keyboard-response","200","2907134","0.0-6.0-5.27","5582817","co38119","norming","","","","","","",""
"2790.485000004992","","","post_reveal_questions","survey-likert","201","2909927","0.0-6.0-6.27","5582817","co38119","norming","","","{""aha"":6}","[0]","../img/tt/1232tt.jpg","",""
"null","<div style=""font-size:60px;""> </div>","null","fixation","html-keyboard-response","202","2910130","0.0-6.0-0.28","5582817","co38119","norming","","","","","","",""
"null","../img/tt/031tt.jpg","null","mooney1","image-keyboard-response","203","2913134","0.0-6.0-1.28","5582817","co38119","norming","","","","","","",""
"5408.33499992732","","","post_mooney1_questions","survey-likert","204","2918546","0.0-6.0-2.28","5582817","co38119","norming","","","{""curiosity"":5,""confidence"":2}","[0,1]","../img/tt/031tt.jpg","",""
"1956.8349999608472","","","recognition","survey-text","205","2920506","0.0-6.0-3.28","5582817","co38119","norming","","","{""guess"":""inbreker""}","","../img/tt/031tt.jpg","",""
"null","../img/gs/031gs.jpg","null","reveal","image-keyboard-response","206","2922509","0.0-6.0-4.28","5582817","co38119","norming","","","","","","",""
"null","../img/tt/031tt.jpg","null","mooney2","image-keyboard-response","207","2924512","0.0-6.0-5.28","5582817","co38119","norming","","","","","","",""
"3064.035000046715","","","post_reveal_questions","survey-likert","208","2927577","0.0-6.0-6.28","5582817","co38119","norming","","","{""aha"":5}","[0]","../img/tt/031tt.jpg","",""
"null","<div style=""font-size:60px;""> </div>","null","fixation","html-keyboard-response","209","2927780","0.0-6.0-0.29","5582817","co38119","norming","","","","","","",""
"null","../img/tt/307tt.jpg","null","mooney1","image-keyboard-response","210","2930784","0.0-6.0-1.29","5582817","co38119","norming","","","","","","",""
"4501.979999942705","","","post_mooney1_questions","survey-likert","211","2935289","0.0-6.0-2.29","5582817","co38119","norming","","","{""curiosity"":5,""confidence"":0}","[0,1]","../img/tt/307tt.jpg","",""
"3232.534999959171","","","recognition","survey-text","212","2938525","0.0-6.0-3.29","5582817","co38119","norming","","","{""guess"":""politie""}","","../img/tt/307tt.jpg","",""
"null","../img/gs/307gs.jpg","null","reveal","image-keyboard-response","213","2940527","0.0-6.0-4.29","5582817","co38119","norming","","","","","","",""
"null","../img/tt/307tt.jpg","null","mooney2","image-keyboard-response","214","2942529","0.0-6.0-5.29","5582817","co38119","norming","","","","","","",""
"2931.3650000840425","","","post_reveal_questions","survey-likert","215","2945462","0.0-6.0-6.29","5582817","co38119","norming","","","{""aha"":6}","[0]","../img/tt/307tt.jpg","",""
"null","<div style=""font-size:60px;""> </div>","null","fixation","html-keyboard-response","216","2945665","0.0-6.0-0.30","5582817","co38119","norming","","","","","","",""
"null","../img/tt/084tt.jpg","null","mooney1","image-keyboard-response","217","2948668","0.0-6.0-1.30","5582817","co38119","norming","","","","","","",""
"4813.079999992624","","","post_mooney1_questions","survey-likert","218","2953485","0.0-6.0-2.30","5582817","co38119","norming","","","{""curiosity"":1,""confidence"":5}","[0,1]","../img/tt/084tt.jpg","",""
"1311.9849999202415","","","recognition","survey-text","219","2954801","0.0-6.0-3.30","5582817","co38119","norming","","","{""guess"":""duif""}","","../img/tt/084tt.jpg","",""
"null","../img/gs/084gs.jpg","null","reveal","image-keyboard-response","220","2956803","0.0-6.0-4.30","5582817","co38119","norming","","","","","","",""
"null","../img/tt/084tt.jpg","null","mooney2","image-keyboard-response","221","2958806","0.0-6.0-5.30","5582817","co38119","norming","","","","","","",""
"1563.084999914281","","","post_reveal_questions","survey-likert","222","2960371","0.0-6.0-6.30","5582817","co38119","norming","","","{""aha"":2}","[0]","../img/tt/084tt.jpg","",""
"null","<div style=""font-size:60px;""> </div>","null","fixation","html-keyboard-response","223","2960574","0.0-6.0-0.31","5582817","co38119","norming","","","","","","",""
"null","../img/tt/436tt.jpg","null","mooney1","image-keyboard-response","224","2963579","0.0-6.0-1.31","5582817","co38119","norming","","","","","","",""
"7344.92499998305","","","post_mooney1_questions","survey-likert","225","2970927","0.0-6.0-2.31","5582817","co38119","norming","","","{""curiosity"":4,""confidence"":3}","[0,1]","../img/tt/436tt.jpg","",""
"5097.839999943972","","","recognition","survey-text","226","2976029","0.0-6.0-3.31","5582817","co38119","norming","","","{""guess"":""krokodil""}","","../img/tt/436tt.jpg","",""
"null","../img/gs/436gs.jpg","null","reveal","image-keyboard-response","227","2978031","0.0-6.0-4.31","5582817","co38119","norming","","","","","","",""
"null","../img/tt/436tt.jpg","null","mooney2","image-keyboard-response","228","2980034","0.0-6.0-5.31","5582817","co38119","norming","","","","","","",""
"2255.254999967292","","","post_reveal_questions","survey-likert","229","2982292","0.0-6.0-6.31","5582817","co38119","norming","","","{""aha"":1}","[0]","../img/tt/436tt.jpg","",""
"null","<div style=""font-size:60px;""> </div>","null","fixation","html-keyboard-response","230","2982495","0.0-6.0-0.32","5582817","co38119","norming","","","","","","",""
"null","../img/tt/358tt.jpg","null","mooney1","image-keyboard-response","231","2985498","0.0-6.0-1.32","5582817","co38119","norming","","","","","","",""
"4207.65500003472","","","post_mooney1_questions","survey-likert","232","2989709","0.0-6.0-2.32","5582817","co38119","norming","","","{""curiosity"":0,""confidence"":5}","[0,1]","../img/tt/358tt.jpg","",""
"1499.6299999766052","","","recognition","survey-text","233","2991213","0.0-6.0-3.32","5582817","co38119","norming","","","{""guess"":""hond""}","","../img/tt/358tt.jpg","",""
"null","../img/gs/358gs.jpg","null","reveal","image-keyboard-response","234","2993215","0.0-6.0-4.32","5582817","co38119","norming","","","","","","",""
"null","../img/tt/358tt.jpg","null","mooney2","image-keyboard-response","235","2995217","0.0-6.0-5.32","5582817","co38119","norming","","","","","","",""
"3386.8700000457466","","","post_reveal_questions","survey-likert","236","2998607","0.0-6.0-6.32","5582817","co38119","norming","","","{""aha"":2}","[0]","../img/tt/358tt.jpg","",""
"null","<div style=""font-size:60px;""> </div>","null","fixation","html-keyboard-response","237","2998809","0.0-6.0-0.33","5582817","co38119","norming","","","","","","",""
"null","../img/tt/301tt.jpg","null","mooney1","image-keyboard-response","238","3001813","0.0-6.0-1.33","5582817","co38119","norming","","","","","","",""
"5497.435000026599","","","post_mooney1_questions","survey-likert","239","3007313","0.0-6.0-2.33","5582817","co38119","norming","","","{""curiosity"":5,""confidence"":0}","[0,1]","../img/tt/301tt.jpg","",""
"1224.9399999855086","","","recognition","survey-text","240","3008542","0.0-6.0-3.33","5582817","co38119","norming","","","{""guess"":""""}","","../img/tt/301tt.jpg","",""
"null","../img/gs/301gs.jpg","null","reveal","image-keyboard-response","241","3010544","0.0-6.0-4.33","5582817","co38119","norming","","","","","","",""
"null","../img/tt/301tt.jpg","null","mooney2","image-keyboard-response","242","3012547","0.0-6.0-5.33","5582817","co38119","norming","","","","","","",""
"2614.515000022948","","","post_reveal_questions","survey-likert","243","3015164","0.0-6.0-6.33","5582817","co38119","norming","","","{""aha"":3}","[0]","../img/tt/301tt.jpg","",""
"null","<div style=""font-size:60px;""> </div>","null","fixation","html-keyboard-response","244","3015367","0.0-6.0-0.34","5582817","co38119","norming","","","","","","",""
"null","../img/tt/1224tt.jpg","null","mooney1","image-keyboard-response","245","3018370","0.0-6.0-1.34","5582817","co38119","norming","","","","","","",""
"7412.465000059456","","","post_mooney1_questions","survey-likert","246","3025786","0.0-6.0-2.34","5582817","co38119","norming","","","{""curiosity"":5,""confidence"":3}","[0,1]","../img/tt/1224tt.jpg","",""
"3450.410000048578","","","recognition","survey-text","247","3029240","0.0-6.0-3.34","5582817","co38119","norming","","","{""guess"":""marteltuig""}","","../img/tt/1224tt.jpg","",""
"null","../img/gs/1224gs.jpg","null","reveal","image-keyboard-response","248","3031243","0.0-6.0-4.34","5582817","co38119","norming","","","","","","",""
"null","../img/tt/1224tt.jpg","null","mooney2","image-keyboard-response","249","3033246","0.0-6.0-5.34","5582817","co38119","norming","","","","","","",""
"4417.9699999513105","","","post_reveal_questions","survey-likert","250","3037667","0.0-6.0-6.34","5582817","co38119","norming","","","{""aha"":6}","[0]","../img/tt/1224tt.jpg","",""
"null","<div style=""font-size:60px;""> </div>","null","fixation","html-keyboard-response","251","3037869","0.0-6.0-0.35","5582817","co38119","norming","","","","","","",""
"null","../img/tt/108tt.jpg","null","mooney1","image-keyboard-response","252","3040874","0.0-6.0-1.35","5582817","co38119","norming","","","","","","",""
"8368.610000004992","","","post_mooney1_questions","survey-likert","253","3049246","0.0-6.0-2.35","5582817","co38119","norming","","","{""curiosity"":5,""confidence"":1}","[0,1]","../img/tt/108tt.jpg","",""
"1211.8450000416487","","","recognition","survey-text","254","3050461","0.0-6.0-3.35","5582817","co38119","norming","","","{""guess"":""beer""}","","../img/tt/108tt.jpg","",""
"null","../img/gs/108gs.jpg","null","reveal","image-keyboard-response","255","3052465","0.0-6.0-4.35","5582817","co38119","norming","","","","","","",""
"null","../img/tt/108tt.jpg","null","mooney2","image-keyboard-response","256","3054468","0.0-6.0-5.35","5582817","co38119","norming","","","","","","",""
"2919.950000010431","","","post_reveal_questions","survey-likert","257","3057391","0.0-6.0-6.35","5582817","co38119","norming","","","{""aha"":5}","[0]","../img/tt/108tt.jpg","",""
"null","<div style=""font-size:60px;""> </div>","null","fixation","html-keyboard-response","258","3057594","0.0-6.0-0.36","5582817","co38119","norming","","","","","","",""
"null","../img/tt/1363tt.jpg","null","mooney1","image-keyboard-response","259","3060599","0.0-6.0-1.36","5582817","co38119","norming","","","","","","",""
"6719.909999985248","","","post_mooney1_questions","survey-likert","260","3067321","0.0-6.0-2.36","5582817","co38119","norming","","","{""curiosity"":1,""confidence"":5}","[0,1]","../img/tt/1363tt.jpg","",""
"1945.369999972172","","","recognition","survey-text","261","3069271","0.0-6.0-3.36","5582817","co38119","norming","","","{""guess"":""saus""}","","../img/tt/1363tt.jpg","",""
"null","../img/gs/1363gs.jpg","null","reveal","image-keyboard-response","262","3071273","0.0-6.0-4.36","5582817","co38119","norming","","","","","","",""
"null","../img/tt/1363tt.jpg","null","mooney2","image-keyboard-response","263","3073276","0.0-6.0-5.36","5582817","co38119","norming","","","","","","",""
"2572.110000066459","","","post_reveal_questions","survey-likert","264","3075850","0.0-6.0-6.36","5582817","co38119","norming","","","{""aha"":1}","[0]","../img/tt/1363tt.jpg","",""
"null","<div style=""font-size:60px;""> </div>","null","fixation","html-keyboard-response","265","3076052","0.0-6.0-0.37","5582817","co38119","norming","","","","","","",""
"null","../img/tt/1269tt.jpg","null","mooney1","image-keyboard-response","266","3079056","0.0-6.0-1.37","5582817","co38119","norming","","","","","","",""
"4208.144999924116","","","post_mooney1_questions","survey-likert","267","3083267","0.0-6.0-2.37","5582817","co38119","norming","","","{""curiosity"":0,""confidence"":6}","[0,1]","../img/tt/1269tt.jpg","",""
"4201.099999947473","","","recognition","survey-text","268","3087472","0.0-6.0-3.37","5582817","co38119","norming","","","{""guess"":""eekhoorn""}","","../img/tt/1269tt.jpg","",""
"null","../img/gs/1269gs.jpg","null","reveal","image-keyboard-response","269","3089475","0.0-6.0-4.37","5582817","co38119","norming","","","","","","",""
"null","../img/tt/1269tt.jpg","null","mooney2","image-keyboard-response","270","3091477","0.0-6.0-5.37","5582817","co38119","norming","","","","","","",""
"2335.359999909997","","","post_reveal_questions","survey-likert","271","3093814","0.0-6.0-6.37","5582817","co38119","norming","","","{""aha"":0}","[0]","../img/tt/1269tt.jpg","",""
"null","<div style=""font-size:60px;""> </div>","null","fixation","html-keyboard-response","272","3094017","0.0-6.0-0.38","5582817","co38119","norming","","","","","","",""
"null","../img/tt/1122tt.jpg","null","mooney1","image-keyboard-response","273","3097021","0.0-6.0-1.38","5582817","co38119","norming","","","","","","",""
"5782.8349999617785","","","post_mooney1_questions","survey-likert","274","3102807","0.0-6.0-2.38","5582817","co38119","norming","","","{""curiosity"":4,""confidence"":3}","[0,1]","../img/tt/1122tt.jpg","",""
"5741.485000005923","","","recognition","survey-text","275","3108552","0.0-6.0-3.38","5582817","co38119","norming","","","{""guess"":""cinemazaal""}","","../img/tt/1122tt.jpg","",""
"null","../img/gs/1122gs.jpg","null","reveal","image-keyboard-response","276","3110556","0.0-6.0-4.38","5582817","co38119","norming","","","","","","",""
"null","../img/tt/1122tt.jpg","null","mooney2","image-keyboard-response","277","3112558","0.0-6.0-5.38","5582817","co38119","norming","","","","","","",""
"3031.1900000087917","","","post_reveal_questions","survey-likert","278","3115592","0.0-6.0-6.38","5582817","co38119","norming","","","{""aha"":4}","[0]","../img/tt/1122tt.jpg","",""
"null","<div style=""font-size:60px;""> </div>","null","fixation","html-keyboard-response","279","3115794","0.0-6.0-0.39","5582817","co38119","norming","","","","","","",""
"null","../img/tt/1089tt.jpg","null","mooney1","image-keyboard-response","280","3118797","0.0-6.0-1.39","5582817","co38119","norming","","","","","","",""
"7028.835000004619","","","post_mooney1_questions","survey-likert","281","3125829","0.0-6.0-2.39","5582817","co38119","norming","","","{""curiosity"":5,""confidence"":1}","[0,1]","../img/tt/1089tt.jpg","",""
"3987.0649999938905","","","recognition","survey-text","282","3129820","0.0-6.0-3.39","5582817","co38119","norming","","","{""guess"":""stro balen""}","","../img/tt/1089tt.jpg","",""
"null","../img/gs/1089gs.jpg","null","reveal","image-keyboard-response","283","3131823","0.0-6.0-4.39","5582817","co38119","norming","","","","","","",""
"null","../img/tt/1089tt.jpg","null","mooney2","image-keyboard-response","284","3133826","0.0-6.0-5.39","5582817","co38119","norming","","","","","","",""
"2340.3800000669435","","","post_reveal_questions","survey-likert","285","3136169","0.0-6.0-6.39","5582817","co38119","norming","","","{""aha"":6}","[0]","../img/tt/1089tt.jpg","",""
"null","<div style=""font-size:60px;""> </div>","null","fixation","html-keyboard-response","286","3136372","0.0-6.0-0.40","5582817","co38119","norming","","","","","","",""
"null","../img/tt/1362tt.jpg","null","mooney1","image-keyboard-response","287","3139375","0.0-6.0-1.40","5582817","co38119","norming","","","","","","",""
"6785.524999955669","","","post_mooney1_questions","survey-likert","288","3146164","0.0-6.0-2.40","5582817","co38119","norming","","","{""curiosity"":6,""confidence"":0}","[0,1]","../img/tt/1362tt.jpg","",""
"2351.8600000534207","","","recognition","survey-text","289","3148520","0.0-6.0-3.40","5582817","co38119","norming","","","{""guess"":""""}","","../img/tt/1362tt.jpg","",""
"null","../img/gs/1362gs.jpg","null","reveal","image-keyboard-response","290","3150523","0.0-6.0-4.40","5582817","co38119","norming","","","","","","",""
"null","../img/tt/1362tt.jpg","null","mooney2","image-keyboard-response","291","3152526","0.0-6.0-5.40","5582817","co38119","norming","","","","","","",""
"4961.370000033639","","","post_reveal_questions","survey-likert","292","3157490","0.0-6.0-6.40","5582817","co38119","norming","","","{""aha"":5}","[0]","../img/tt/1362tt.jpg","",""
"null","<div style=""font-size:60px;""> </div>","null","fixation","html-keyboard-response","293","3157693","0.0-6.0-0.41","5582817","co38119","norming","","","","","","",""
"null","../img/tt/1200tt.jpg","null","mooney1","image-keyboard-response","294","3160696","0.0-6.0-1.41","5582817","co38119","norming","","","","","","",""
"6918.294999981299","","","post_mooney1_questions","survey-likert","295","3167618","0.0-6.0-2.41","5582817","co38119","norming","","","{""curiosity"":5,""confidence"":2}","[0,1]","../img/tt/1200tt.jpg","",""
"2534.7550000296906","","","recognition","survey-text","296","3170156","0.0-6.0-3.41","5582817","co38119","norming","","","{""guess"":""muisjes""}","","../img/tt/1200tt.jpg","",""
"null","../img/gs/1200gs.jpg","null","reveal","image-keyboard-response","297","3172159","0.0-6.0-4.41","5582817","co38119","norming","","","","","","",""
"null","../img/tt/1200tt.jpg","null","mooney2","image-keyboard-response","298","3174161","0.0-6.0-5.41","5582817","co38119","norming","","","","","","",""
"3469.3050000350922","","","post_reveal_questions","survey-likert","299","3177633","0.0-6.0-6.41","5582817","co38119","norming","","","{""aha"":4}","[0]","../img/tt/1200tt.jpg","",""
"null","<div style=""font-size:60px;""> </div>","null","fixation","html-keyboard-response","300","3177836","0.0-6.0-0.42","5582817","co38119","norming","","","","","","",""
"null","../img/tt/1353tt.jpg","null","mooney1","image-keyboard-response","301","3180840","0.0-6.0-1.42","5582817","co38119","norming","","","","","","",""
"4647.959999972954","","","post_mooney1_questions","survey-likert","302","3185491","0.0-6.0-2.42","5582817","co38119","norming","","","{""curiosity"":6,""confidence"":0}","[0,1]","../img/tt/1353tt.jpg","",""
"6576.149999978952","","","recognition","survey-text","303","3192071","0.0-6.0-3.42","5582817","co38119","norming","","","{""guess"":""bovenkant gitaar""}","","../img/tt/1353tt.jpg","",""
"null","../img/gs/1353gs.jpg","null","reveal","image-keyboard-response","304","3194073","0.0-6.0-4.42","5582817","co38119","norming","","","","","","",""
"null","../img/tt/1353tt.jpg","null","mooney2","image-keyboard-response","305","3196075","0.0-6.0-5.42","5582817","co38119","norming","","","","","","",""
"3083.6349999299273","","","post_reveal_questions","survey-likert","306","3199161","0.0-6.0-6.42","5582817","co38119","norming","","","{""aha"":5}","[0]","../img/tt/1353tt.jpg","",""
"null","<div style=""font-size:60px;""> </div>","null","fixation","html-keyboard-response","307","3199364","0.0-6.0-0.43","5582817","co38119","norming","","","","","","",""
"null","../img/tt/055tt.jpg","null","mooney1","image-keyboard-response","308","3202373","0.0-6.0-1.43","5582817","co38119","norming","","","","","","",""
"6844.294999958947","","","post_mooney1_questions","survey-likert","309","3209220","0.0-6.0-2.43","5582817","co38119","norming","","","{""curiosity"":5,""confidence"":1}","[0,1]","../img/tt/055tt.jpg","",""
"2436.879999935627","","","recognition","survey-text","310","3211661","0.0-6.0-3.43","5582817","co38119","norming","","","{""guess"":""waterkan""}","","../img/tt/055tt.jpg","",""
"null","../img/gs/055gs.jpg","null","reveal","image-keyboard-response","311","3213665","0.0-6.0-4.43","5582817","co38119","norming","","","","","","",""
"null","../img/tt/055tt.jpg","null","mooney2","image-keyboard-response","312","3215668","0.0-6.0-5.43","5582817","co38119","norming","","","","","","",""
"2798.575000022538","","","post_reveal_questions","survey-likert","313","3218469","0.0-6.0-6.43","5582817","co38119","norming","","","{""aha"":5}","[0]","../img/tt/055tt.jpg","",""
"null","<div style=""font-size:60px;""> </div>","null","fixation","html-keyboard-response","314","3218672","0.0-6.0-0.44","5582817","co38119","norming","","","","","","",""
"null","../img/tt/1078tt.jpg","null","mooney1","image-keyboard-response","315","3221676","0.0-6.0-1.44","5582817","co38119","norming","","","","","","",""
"7888.924999977462","","","post_mooney1_questions","survey-likert","316","3229568","0.0-6.0-2.44","5582817","co38119","norming","","","{""curiosity"":3,""confidence"":3}","[0,1]","../img/tt/1078tt.jpg","",""
"2227.2950001060963","","","recognition","survey-text","317","3231799","0.0-6.0-3.44","5582817","co38119","norming","","","{""guess"":""kind ""}","","../img/tt/1078tt.jpg","",""
"null","../img/gs/1078gs.jpg","null","reveal","image-keyboard-response","318","3233801","0.0-6.0-4.44","5582817","co38119","norming","","","","","","",""
"null","../img/tt/1078tt.jpg","null","mooney2","image-keyboard-response","319","3235804","0.0-6.0-5.44","5582817","co38119","norming","","","","","","",""
"4026.2750000692904","","","post_reveal_questions","survey-likert","320","3239833","0.0-6.0-6.44","5582817","co38119","norming","","","{""aha"":5}","[0]","../img/tt/1078tt.jpg","",""
"null","<div style=""font-size:60px;""> </div>","null","fixation","html-keyboard-response","321","3240035","0.0-6.0-0.45","5582817","co38119","norming","","","","","","",""
"null","../img/tt/060tt.jpg","null","mooney1","image-keyboard-response","322","3243039","0.0-6.0-1.45","5582817","co38119","norming","","","","","","",""
"6399.834999931045","","","post_mooney1_questions","survey-likert","323","3249443","0.0-6.0-2.45","5582817","co38119","norming","","","{""curiosity"":5,""confidence"":1}","[0,1]","../img/tt/060tt.jpg","",""
"1957.4600000632927","","","recognition","survey-text","324","3251404","0.0-6.0-3.45","5582817","co38119","norming","","","{""guess"":""bakpan""}","","../img/tt/060tt.jpg","",""
"null","../img/gs/060gs.jpg","null","reveal","image-keyboard-response","325","3253407","0.0-6.0-4.45","5582817","co38119","norming","","","","","","",""
"null","../img/tt/060tt.jpg","null","mooney2","image-keyboard-response","326","3255410","0.0-6.0-5.45","5582817","co38119","norming","","","","","","",""
"2867.5700000021607","","","post_reveal_questions","survey-likert","327","3258280","0.0-6.0-6.45","5582817","co38119","norming","","","{""aha"":2}","[0]","../img/tt/060tt.jpg","",""
"null","<div style=""font-size:60px;""> </div>","null","fixation","html-keyboard-response","328","3258483","0.0-6.0-0.46","5582817","co38119","norming","","","","","","",""
"null","../img/tt/416tt.jpg","null","mooney1","image-keyboard-response","329","3261487","0.0-6.0-1.46","5582817","co38119","norming","","","","","","",""
"5463.905000011437","","","post_mooney1_questions","survey-likert","330","3266955","0.0-6.0-2.46","5582817","co38119","norming","","","{""curiosity"":4,""confidence"":2}","[0,1]","../img/tt/416tt.jpg","",""
"4983.7749999715015","","","recognition","survey-text","331","3271942","0.0-6.0-3.46","5582817","co38119","norming","","","{""guess"":""struisvogels""}","","../img/tt/416tt.jpg","",""
"null","../img/gs/416gs.jpg","null","reveal","image-keyboard-response","332","3273946","0.0-6.0-4.46","5582817","co38119","norming","","","","","","",""
"null","../img/tt/416tt.jpg","null","mooney2","image-keyboard-response","333","3275949","0.0-6.0-5.46","5582817","co38119","norming","","","","","","",""
"4964.2649999586865","","","post_reveal_questions","survey-likert","334","3280916","0.0-6.0-6.46","5582817","co38119","norming","","","{""aha"":2}","[0]","../img/tt/416tt.jpg","",""
"null","<div style=""font-size:60px;""> </div>","null","fixation","html-keyboard-response","335","3281119","0.0-6.0-0.47","5582817","co38119","norming","","","","","","",""
"null","../img/tt/1072tt.jpg","null","mooney1","image-keyboard-response","336","3284123","0.0-6.0-1.47","5582817","co38119","norming","","","","","","",""
"7270.15500003472","","","post_mooney1_questions","survey-likert","337","3291396","0.0-6.0-2.47","5582817","co38119","norming","","","{""curiosity"":5,""confidence"":0}","[0,1]","../img/tt/1072tt.jpg","",""
"4572.8100000415","","","recognition","survey-text","338","3295972","0.0-6.0-3.47","5582817","co38119","norming","","","{""guess"":""cowboyhoef""}","","../img/tt/1072tt.jpg","",""
"null","../img/gs/1072gs.jpg","null","reveal","image-keyboard-response","339","3297975","0.0-6.0-4.47","5582817","co38119","norming","","","","","","",""
"null","../img/tt/1072tt.jpg","null","mooney2","image-keyboard-response","340","3299977","0.0-6.0-5.47","5582817","co38119","norming","","","","","","",""
"3447.580000036396","","","post_reveal_questions","survey-likert","341","3303428","0.0-6.0-6.47","5582817","co38119","norming","","","{""aha"":5}","[0]","../img/tt/1072tt.jpg","",""
"null","<div style=""font-size:60px;""> </div>","null","fixation","html-keyboard-response","342","3303631","0.0-6.0-0.48","5582817","co38119","norming","","","","","","",""
"null","../img/tt/1143tt.jpg","null","mooney1","image-keyboard-response","343","3306636","0.0-6.0-1.48","5582817","co38119","norming","","","","","","",""
"4079.579999903217","","","post_mooney1_questions","survey-likert","344","3310719","0.0-6.0-2.48","5582817","co38119","norming","","","{""curiosity"":6,""confidence"":0}","[0,1]","../img/tt/1143tt.jpg","",""
"2256.0900000389665","","","recognition","survey-text","345","3312978","0.0-6.0-3.48","5582817","co38119","norming","","","{""guess"":""""}","","../img/tt/1143tt.jpg","",""
"null","../img/gs/1143gs.jpg","null","reveal","image-keyboard-response","346","3314981","0.0-6.0-4.48","5582817","co38119","norming","","","","","","",""
"null","../img/tt/1143tt.jpg","null","mooney2","image-keyboard-response","347","3316983","0.0-6.0-5.48","5582817","co38119","norming","","","","","","",""
"3931.3550000078976","","","post_reveal_questions","survey-likert","348","3320917","0.0-6.0-6.48","5582817","co38119","norming","","","{""aha"":5}","[0]","../img/tt/1143tt.jpg","",""
"null","<div style=""font-size:60px;""> </div>","null","fixation","html-keyboard-response","349","3321120","0.0-6.0-0.49","5582817","co38119","norming","","","","","","",""
"null","../img/tt/063tt.jpg","null","mooney1","image-keyboard-response","350","3324125","0.0-6.0-1.49","5582817","co38119","norming","","","","","","",""
"5096.305000013672","","","post_mooney1_questions","survey-likert","351","3329225","0.0-6.0-2.49","5582817","co38119","norming","","","{""curiosity"":1,""confidence"":6}","[0,1]","../img/tt/063tt.jpg","",""
"22467.420000000857","","","recognition","survey-text","352","3351696","0.0-6.0-3.49","5582817","co38119","norming","","","{""guess"":""trekzak/ accordeon""}","","../img/tt/063tt.jpg","",""
"null","../img/gs/063gs.jpg","null","reveal","image-keyboard-response","353","3353699","0.0-6.0-4.49","5582817","co38119","norming","","","","","","",""
"null","../img/tt/063tt.jpg","null","mooney2","image-keyboard-response","354","3355702","0.0-6.0-5.49","5582817","co38119","norming","","","","","","",""
"3953.3700000029057","","","post_reveal_questions","survey-likert","355","3359658","0.0-6.0-6.49","5582817","co38119","norming","","","{""aha"":0}","[0]","../img/tt/063tt.jpg","",""
"null","<div style=""font-size:60px;""> </div>","null","fixation","html-keyboard-response","356","3359861","0.0-6.0-0.50","5582817","co38119","norming","","","","","","",""
"null","../img/tt/040tt.jpg","null","mooney1","image-keyboard-response","357","3362865","0.0-6.0-1.50","5582817","co38119","norming","","","","","","",""
"4324.120000004768","","","post_mooney1_questions","survey-likert","358","3367192","0.0-6.0-2.50","5582817","co38119","norming","","","{""curiosity"":6,""confidence"":0}","[0,1]","../img/tt/040tt.jpg","",""
"2960.425000055693","","","recognition","survey-text","359","3370157","0.0-6.0-3.50","5582817","co38119","norming","","","{""guess"":""hond""}","","../img/tt/040tt.jpg","",""
"null","../img/gs/040gs.jpg","null","reveal","image-keyboard-response","360","3372159","0.0-6.0-4.50","5582817","co38119","norming","","","","","","",""
"null","../img/tt/040tt.jpg","null","mooney2","image-keyboard-response","361","3374162","0.0-6.0-5.50","5582817","co38119","norming","","","","","","",""
"2497.2800000105053","","","post_reveal_questions","survey-likert","362","3376663","0.0-6.0-6.50","5582817","co38119","norming","","","{""aha"":6}","[0]","../img/tt/040tt.jpg","",""
"null","<div style=""font-size:60px;""> </div>","null","fixation","html-keyboard-response","363","3376865","0.0-6.0-0.51","5582817","co38119","norming","","","","","","",""
"null","../img/tt/442tt.jpg","null","mooney1","image-keyboard-response","364","3379869","0.0-6.0-1.51","5582817","co38119","norming","","","","","","",""
"6107.710000011139","","","post_mooney1_questions","survey-likert","365","3385980","0.0-6.0-2.51","5582817","co38119","norming","","","{""curiosity"":5,""confidence"":3}","[0,1]","../img/tt/442tt.jpg","",""
"2577.1050000330433","","","recognition","survey-text","366","3388561","0.0-6.0-3.51","5582817","co38119","norming","","","{""guess"":""ananas""}","","../img/tt/442tt.jpg","",""
"null","../img/gs/442gs.jpg","null","reveal","image-keyboard-response","367","3390564","0.0-6.0-4.51","5582817","co38119","norming","","","","","","",""
"null","../img/tt/442tt.jpg","null","mooney2","image-keyboard-response","368","3392567","0.0-6.0-5.51","5582817","co38119","norming","","","","","","",""
"3011.47500006482","","","post_reveal_questions","survey-likert","369","3395581","0.0-6.0-6.51","5582817","co38119","norming","","","{""aha"":5}","[0]","../img/tt/442tt.jpg","",""
"null","<div style=""font-size:60px;""> </div>","null","fixation","html-keyboard-response","370","3395784","0.0-6.0-0.52","5582817","co38119","norming","","","","","","",""
"null","../img/tt/590tt.jpg","null","mooney1","image-keyboard-response","371","3398787","0.0-6.0-1.52","5582817","co38119","norming","","","","","","",""
"4678.094999981113","","","post_mooney1_questions","survey-likert","372","3403468","0.0-6.0-2.52","5582817","co38119","norming","","","{""curiosity"":5,""confidence"":2}","[0,1]","../img/tt/590tt.jpg","",""
"7006.374999997206","","","recognition","survey-text","373","3410478","0.0-6.0-3.52","5582817","co38119","norming","","","{""guess"":""dobbelstenen""}","","../img/tt/590tt.jpg","",""
"null","../img/gs/590gs.jpg","null","reveal","image-keyboard-response","374","3412482","0.0-6.0-4.52","5582817","co38119","norming","","","","","","",""
"null","../img/tt/590tt.jpg","null","mooney2","image-keyboard-response","375","3414485","0.0-6.0-5.52","5582817","co38119","norming","","","","","","",""
"3031.304999953136","","","post_reveal_questions","survey-likert","376","3417519","0.0-6.0-6.52","5582817","co38119","norming","","","{""aha"":5}","[0]","../img/tt/590tt.jpg","",""
"null","<div style=""font-size:60px;""> </div>","null","fixation","html-keyboard-response","377","3417722","0.0-6.0-0.53","5582817","co38119","norming","","","","","","",""
"null","../img/tt/300tt.jpg","null","mooney1","image-keyboard-response","378","3420726","0.0-6.0-1.53","5582817","co38119","norming","","","","","","",""
"7371.465000091121","","","post_mooney1_questions","survey-likert","379","3428101","0.0-6.0-2.53","5582817","co38119","norming","","","{""curiosity"":5,""confidence"":2}","[0,1]","../img/tt/300tt.jpg","",""
"3375.304999994114","","","recognition","survey-text","380","3431481","0.0-6.0-3.53","5582817","co38119","norming","","","{""guess"":""cowboy""}","","../img/tt/300tt.jpg","",""
"null","../img/gs/300gs.jpg","null","reveal","image-keyboard-response","381","3433484","0.0-6.0-4.53","5582817","co38119","norming","","","","","","",""
"null","../img/tt/300tt.jpg","null","mooney2","image-keyboard-response","382","3435486","0.0-6.0-5.53","5582817","co38119","norming","","","","","","",""
"3619.594999938272","","","post_reveal_questions","survey-likert","383","3439109","0.0-6.0-6.53","5582817","co38119","norming","","","{""aha"":5}","[0]","../img/tt/300tt.jpg","",""
"null","<div style=""font-size:60px;""> </div>","null","fixation","html-keyboard-response","384","3439313","0.0-6.0-0.54","5582817","co38119","norming","","","","","","",""
"null","../img/tt/053tt.jpg","null","mooney1","image-keyboard-response","385","3442317","0.0-6.0-1.54","5582817","co38119","norming","","","","","","",""
"6927.449999959208","","","post_mooney1_questions","survey-likert","386","3449248","0.0-6.0-2.54","5582817","co38119","norming","","","{""curiosity"":0,""confidence"":5}","[0,1]","../img/tt/053tt.jpg","",""
"16384.640000062063","","","recognition","survey-text","387","3465637","0.0-6.0-3.54","5582817","co38119","norming","","","{""guess"":""kajakkers waterval""}","","../img/tt/053tt.jpg","",""
"null","../img/gs/053gs.jpg","null","reveal","image-keyboard-response","388","3467639","0.0-6.0-4.54","5582817","co38119","norming","","","","","","",""
"null","../img/tt/053tt.jpg","null","mooney2","image-keyboard-response","389","3469641","0.0-6.0-5.54","5582817","co38119","norming","","","","","","",""
"3165.125000057742","","","post_reveal_questions","survey-likert","390","3472809","0.0-6.0-6.54","5582817","co38119","norming","","","{""aha"":0}","[0]","../img/tt/053tt.jpg","",""
"null","<div style=""font-size:60px;""> </div>","null","fixation","html-keyboard-response","391","3473012","0.0-6.0-0.55","5582817","co38119","norming","","","","","","",""
"null","../img/tt/438tt.jpg","null","mooney1","image-keyboard-response","392","3476016","0.0-6.0-1.55","5582817","co38119","norming","","","","","","",""
"4240.16499996651","","","post_mooney1_questions","survey-likert","393","3480260","0.0-6.0-2.55","5582817","co38119","norming","","","{""curiosity"":1,""confidence"":6}","[0,1]","../img/tt/438tt.jpg","",""
"2039.0149999875575","","","recognition","survey-text","394","3482303","0.0-6.0-3.55","5582817","co38119","norming","","","{""guess"":""slang""}","","../img/tt/438tt.jpg","",""
"null","../img/gs/438gs.jpg","null","reveal","image-keyboard-response","395","3484306","0.0-6.0-4.55","5582817","co38119","norming","","","","","","",""
"null","../img/tt/438tt.jpg","null","mooney2","image-keyboard-response","396","3486308","0.0-6.0-5.55","5582817","co38119","norming","","","","","","",""
"224625.06499991287","","","post_reveal_questions","survey-likert","397","3710936","0.0-6.0-6.55","5582817","co38119","norming","","","{""aha"":1}","[0]","../img/tt/438tt.jpg","",""
"null","<div style=""font-size:60px;""> </div>","null","fixation","html-keyboard-response","398","3711138","0.0-6.0-0.56","5582817","co38119","norming","","","","","","",""
"null","../img/tt/378tt.jpg","null","mooney1","image-keyboard-response","399","3714143","0.0-6.0-1.56","5582817","co38119","norming","","","","","","",""
"14519.26500000991","","","post_mooney1_questions","survey-likert","400","3728665","0.0-6.0-2.56","5582817","co38119","norming","","","{""curiosity"":4,""confidence"":1}","[0,1]","../img/tt/378tt.jpg","",""
"2286.199999973178","","","recognition","survey-text","401","3730955","0.0-6.0-3.56","5582817","co38119","norming","","","{""guess"":""vrouw""}","","../img/tt/378tt.jpg","",""
"null","../img/gs/378gs.jpg","null","reveal","image-keyboard-response","402","3732959","0.0-6.0-4.56","5582817","co38119","norming","","","","","","",""
"null","../img/tt/378tt.jpg","null","mooney2","image-keyboard-response","403","3734962","0.0-6.0-5.56","5582817","co38119","norming","","","","","","",""
"9464.124999940395","","","post_reveal_questions","survey-likert","404","3744429","0.0-6.0-6.56","5582817","co38119","norming","","","{""aha"":5}","[0]","../img/tt/378tt.jpg","",""
"null","<div style=""font-size:60px;""> </div>","null","fixation","html-keyboard-response","405","3744632","0.0-6.0-0.57","5582817","co38119","norming","","","","","","",""
"null","../img/tt/123tt.jpg","null","mooney1","image-keyboard-response","406","3747636","0.0-6.0-1.57","5582817","co38119","norming","","","","","","",""
"10336.290000006557","","","post_mooney1_questions","survey-likert","407","3757976","0.0-6.0-2.57","5582817","co38119","norming","","","{""curiosity"":4,""confidence"":1}","[0,1]","../img/tt/123tt.jpg","",""
"2027.62999990955","","","recognition","survey-text","408","3760007","0.0-6.0-3.57","5582817","co38119","norming","","","{""guess"":""koffer""}","","../img/tt/123tt.jpg","",""
"null","../img/gs/123gs.jpg","null","reveal","image-keyboard-response","409","3762011","0.0-6.0-4.57","5582817","co38119","norming","","","","","","",""
"null","../img/tt/123tt.jpg","null","mooney2","image-keyboard-response","410","3764014","0.0-6.0-5.57","5582817","co38119","norming","","","","","","",""
"3710.1650000549853","","","post_reveal_questions","survey-likert","411","3767727","0.0-6.0-6.57","5582817","co38119","norming","","","{""aha"":2}","[0]","../img/tt/123tt.jpg","",""
"null","<div style=""font-size:60px;""> </div>","null","fixation","html-keyboard-response","412","3767929","0.0-6.0-0.58","5582817","co38119","norming","","","","","","",""
"null","../img/tt/406tt.jpg","null","mooney1","image-keyboard-response","413","3770934","0.0-6.0-1.58","5582817","co38119","norming","","","","","","",""
"6511.575000011362","","","post_mooney1_questions","survey-likert","414","3777450","0.0-6.0-2.58","5582817","co38119","norming","","","{""curiosity"":6,""confidence"":1}","[0,1]","../img/tt/406tt.jpg","",""
"4856.100000091828","","","recognition","survey-text","415","3782310","0.0-6.0-3.58","5582817","co38119","norming","","","{""guess"":""kommetje""}","","../img/tt/406tt.jpg","",""
"null","../img/gs/406gs.jpg","null","reveal","image-keyboard-response","416","3784312","0.0-6.0-4.58","5582817","co38119","norming","","","","","","",""
"null","../img/tt/406tt.jpg","null","mooney2","image-keyboard-response","417","3786316","0.0-6.0-5.58","5582817","co38119","norming","","","","","","",""
"2568.334999959916","","","post_reveal_questions","survey-likert","418","3788887","0.0-6.0-6.58","5582817","co38119","norming","","","{""aha"":2}","[0]","../img/tt/406tt.jpg","",""
"null","<div style=""font-size:60px;""> </div>","null","fixation","html-keyboard-response","419","3789090","0.0-6.0-0.59","5582817","co38119","norming","","","","","","",""
"null","../img/tt/599tt.jpg","null","mooney1","image-keyboard-response","420","3792094","0.0-6.0-1.59","5582817","co38119","norming","","","","","","",""
"11275.689999922179","","","post_mooney1_questions","survey-likert","421","3803373","0.0-6.0-2.59","5582817","co38119","norming","","","{""curiosity"":6,""confidence"":0}","[0,1]","../img/tt/599tt.jpg","",""
"6706.349999993108","","","recognition","survey-text","422","3810084","0.0-6.0-3.59","5582817","co38119","norming","","","{""guess"":""champagne""}","","../img/tt/599tt.jpg","",""
"null","../img/gs/599gs.jpg","null","reveal","image-keyboard-response","423","3812086","0.0-6.0-4.59","5582817","co38119","norming","","","","","","",""
"null","../img/tt/599tt.jpg","null","mooney2","image-keyboard-response","424","3814088","0.0-6.0-5.59","5582817","co38119","norming","","","","","","",""
"3363.1250000325963","","","post_reveal_questions","survey-likert","425","3817454","0.0-6.0-6.59","5582817","co38119","norming","","","{""aha"":5}","[0]","../img/tt/599tt.jpg","",""
"null","<div style=""font-size:60px;""> </div>","null","fixation","html-keyboard-response","426","3817657","0.0-6.0-0.60","5582817","co38119","norming","","","","","","",""
"null","../img/tt/1069tt.jpg","null","mooney1","image-keyboard-response","427","3820661","0.0-6.0-1.60","5582817","co38119","norming","","","","","","",""
"11311.29499990493","","","post_mooney1_questions","survey-likert","428","3831976","0.0-6.0-2.60","5582817","co38119","norming","","","{""curiosity"":4,""confidence"":2}","[0,1]","../img/tt/1069tt.jpg","",""
"2751.5800000401214","","","recognition","survey-text","429","3834731","0.0-6.0-3.60","5582817","co38119","norming","","","{""guess"":""koe""}","","../img/tt/1069tt.jpg","",""
"null","../img/gs/1069gs.jpg","null","reveal","image-keyboard-response","430","3836734","0.0-6.0-4.60","5582817","co38119","norming","","","","","","",""
"null","../img/tt/1069tt.jpg","null","mooney2","image-keyboard-response","431","3838736","0.0-6.0-5.60","5582817","co38119","norming","","","","","","",""
"3478.250000043772","","","post_reveal_questions","survey-likert","432","3842217","0.0-6.0-6.60","5582817","co38119","norming","","","{""aha"":4}","[0]","../img/tt/1069tt.jpg","",""
"null","<div style=""font-size:60px;""> </div>","null","fixation","html-keyboard-response","433","3842420","0.0-6.0-0.61","5582817","co38119","norming","","","","","","",""
"null","../img/tt/098tt.jpg","null","mooney1","image-keyboard-response","434","3845424","0.0-6.0-1.61","5582817","co38119","norming","","","","","","",""
"5876.209999900311","","","post_mooney1_questions","survey-likert","435","3851304","0.0-6.0-2.61","5582817","co38119","norming","","","{""curiosity"":3,""confidence"":3}","[0,1]","../img/tt/098tt.jpg","",""
"1659.470000071451","","","recognition","survey-text","436","3852968","0.0-6.0-3.61","5582817","co38119","norming","","","{""guess"":""vogel""}","","../img/tt/098tt.jpg","",""
"null","../img/gs/098gs.jpg","null","reveal","image-keyboard-response","437","3854970","0.0-6.0-4.61","5582817","co38119","norming","","","","","","",""
"null","../img/tt/098tt.jpg","null","mooney2","image-keyboard-response","438","3856973","0.0-6.0-5.61","5582817","co38119","norming","","","","","","",""
"2942.795000039041","","","post_reveal_questions","survey-likert","439","3859919","0.0-6.0-6.61","5582817","co38119","norming","","","{""aha"":1}","[0]","../img/tt/098tt.jpg","",""
"null","<div style=""font-size:60px;""> </div>","null","fixation","html-keyboard-response","440","3860122","0.0-6.0-0.62","5582817","co38119","norming","","","","","","",""
"null","../img/tt/105tt.jpg","null","mooney1","image-keyboard-response","441","3863125","0.0-6.0-1.62","5582817","co38119","norming","","","","","","",""
"7518.235000083223","","","post_mooney1_questions","survey-likert","442","3870647","0.0-6.0-2.62","5582817","co38119","norming","","","{""curiosity"":0,""confidence"":6}","[0,1]","../img/tt/105tt.jpg","",""
"4228.714999975637","","","recognition","survey-text","443","3874880","0.0-6.0-3.62","5582817","co38119","norming","","","{""guess"":""paperclips""}","","../img/tt/105tt.jpg","",""
"null","../img/gs/105gs.jpg","null","reveal","image-keyboard-response","444","3876882","0.0-6.0-4.62","5582817","co38119","norming","","","","","","",""
"null","../img/tt/105tt.jpg","null","mooney2","image-keyboard-response","445","3878885","0.0-6.0-5.62","5582817","co38119","norming","","","","","","",""
"4415.595000027679","","","post_reveal_questions","survey-likert","446","3883303","0.0-6.0-6.62","5582817","co38119","norming","","","{""aha"":0}","[0]","../img/tt/105tt.jpg","",""
"null","<div style=""font-size:60px;""> </div>","null","fixation","html-keyboard-response","447","3883507","0.0-6.0-0.63","5582817","co38119","norming","","","","","","",""
"null","../img/tt/273tt.jpg","null","mooney1","image-keyboard-response","448","3886510","0.0-6.0-1.63","5582817","co38119","norming","","","","","","",""
"6522.189999930561","","","post_mooney1_questions","survey-likert","449","3893036","0.0-6.0-2.63","5582817","co38119","norming","","","{""curiosity"":5,""confidence"":3}","[0,1]","../img/tt/273tt.jpg","",""
"7644.95500002522","","","recognition","survey-text","450","3900685","0.0-6.0-3.63","5582817","co38119","norming","","","{""guess"":""muziekinstrument""}","","../img/tt/273tt.jpg","",""
"null","../img/gs/273gs.jpg","null","reveal","image-keyboard-response","451","3902688","0.0-6.0-4.63","5582817","co38119","norming","","","","","","",""
"null","../img/tt/273tt.jpg","null","mooney2","image-keyboard-response","452","3904690","0.0-6.0-5.63","5582817","co38119","norming","","","","","","",""
"4310.964999953285","","","post_reveal_questions","survey-likert","453","3909004","0.0-6.0-6.63","5582817","co38119","norming","","","{""aha"":5}","[0]","../img/tt/273tt.jpg","",""
"null","<div style=""font-size:60px;""> </div>","null","fixation","html-keyboard-response","454","3909208","0.0-6.0-0.64","5582817","co38119","norming","","","","","","",""
"null","../img/tt/1283tt.jpg","null","mooney1","image-keyboard-response","455","3912212","0.0-6.0-1.64","5582817","co38119","norming","","","","","","",""
"6212.189999991097","","","post_mooney1_questions","survey-likert","456","3918428","0.0-6.0-2.64","5582817","co38119","norming","","","{""curiosity"":5,""confidence"":2}","[0,1]","../img/tt/1283tt.jpg","",""
"3962.8650000086054","","","recognition","survey-text","457","3922394","0.0-6.0-3.64","5582817","co38119","norming","","","{""guess"":""waterval""}","","../img/tt/1283tt.jpg","",""
"null","../img/gs/1283gs.jpg","null","reveal","image-keyboard-response","458","3924397","0.0-6.0-4.64","5582817","co38119","norming","","","","","","",""
"null","../img/tt/1283tt.jpg","null","mooney2","image-keyboard-response","459","3926400","0.0-6.0-5.64","5582817","co38119","norming","","","","","","",""
"3023.244999931194","","","post_reveal_questions","survey-likert","460","3929426","0.0-6.0-6.64","5582817","co38119","norming","","","{""aha"":2}","[0]","../img/tt/1283tt.jpg","",""
"null","<div style=""font-size:60px;""> </div>","null","fixation","html-keyboard-response","461","3929629","0.0-6.0-0.65","5582817","co38119","norming","","","","","","",""
"null","../img/tt/082tt.jpg","null","mooney1","image-keyboard-response","462","3932633","0.0-6.0-1.65","5582817","co38119","norming","","","","","","",""
"6771.584999980405","","","post_mooney1_questions","survey-likert","463","3939408","0.0-6.0-2.65","5582817","co38119","norming","","","{""curiosity"":5,""confidence"":2}","[0,1]","../img/tt/082tt.jpg","",""
"7823.990000062622","","","recognition","survey-text","464","3947236","0.0-6.0-3.65","5582817","co38119","norming","","","{""guess"":""baletdanser""}","","../img/tt/082tt.jpg","",""
"null","../img/gs/082gs.jpg","null","reveal","image-keyboard-response","465","3949238","0.0-6.0-4.65","5582817","co38119","norming","","","","","","",""
"null","../img/tt/082tt.jpg","null","mooney2","image-keyboard-response","466","3951241","0.0-6.0-5.65","5582817","co38119","norming","","","","","","",""
"2554.9100000644103","","","post_reveal_questions","survey-likert","467","3953799","0.0-6.0-6.65","5582817","co38119","norming","","","{""aha"":4}","[0]","../img/tt/082tt.jpg","",""
"null","<div style=""font-size:60px;""> </div>","null","fixation","html-keyboard-response","468","3954002","0.0-6.0-0.66","5582817","co38119","norming","","","","","","",""
"null","../img/tt/007tt.jpg","null","mooney1","image-keyboard-response","469","3957005","0.0-6.0-1.66","5582817","co38119","norming","","","","","","",""
"5374.29000006523","","","post_mooney1_questions","survey-likert","470","3962383","0.0-6.0-2.66","5582817","co38119","norming","","","{""curiosity"":4,""confidence"":3}","[0,1]","../img/tt/007tt.jpg","",""
"2098.134999978356","","","recognition","survey-text","471","3964485","0.0-6.0-3.66","5582817","co38119","norming","","","{""guess"":""walrus""}","","../img/tt/007tt.jpg","",""
"null","../img/gs/007gs.jpg","null","reveal","image-keyboard-response","472","3966488","0.0-6.0-4.66","5582817","co38119","norming","","","","","","",""
"null","../img/tt/007tt.jpg","null","mooney2","image-keyboard-response","473","3968491","0.0-6.0-5.66","5582817","co38119","norming","","","","","","",""
"3038.6049998924136","","","post_reveal_questions","survey-likert","474","3971532","0.0-6.0-6.66","5582817","co38119","norming","","","{""aha"":5}","[0]","../img/tt/007tt.jpg","",""
"null","<div style=""font-size:60px;""> </div>","null","fixation","html-keyboard-response","475","3971736","0.0-6.0-0.67","5582817","co38119","norming","","","","","","",""
"null","../img/tt/1190tt.jpg","null","mooney1","image-keyboard-response","476","3974738","0.0-6.0-1.67","5582817","co38119","norming","","","","","","",""
"6911.659999983385","","","post_mooney1_questions","survey-likert","477","3981654","0.0-6.0-2.67","5582817","co38119","norming","","","{""curiosity"":6,""confidence"":0}","[0,1]","../img/tt/1190tt.jpg","",""
"2727.834999910556","","","recognition","survey-text","478","3984385","0.0-6.0-3.67","5582817","co38119","norming","","","{""guess"":"" ""}","","../img/tt/1190tt.jpg","",""
"null","../img/gs/1190gs.jpg","null","reveal","image-keyboard-response","479","3986388","0.0-6.0-4.67","5582817","co38119","norming","","","","","","",""
"null","../img/tt/1190tt.jpg","null","mooney2","image-keyboard-response","480","3988391","0.0-6.0-5.67","5582817","co38119","norming","","","","","","",""
"2673.725000000559","","","post_reveal_questions","survey-likert","481","3991067","0.0-6.0-6.67","5582817","co38119","norming","","","{""aha"":3}","[0]","../img/tt/1190tt.jpg","",""
"null","<div style=""font-size:60px;""> </div>","null","fixation","html-keyboard-response","482","3991272","0.0-6.0-0.68","5582817","co38119","norming","","","","","","",""
"null","../img/tt/1130tt.jpg","null","mooney1","image-keyboard-response","483","3994276","0.0-6.0-1.68","5582817","co38119","norming","","","","","","",""
"5915.060000028461","","","post_mooney1_questions","survey-likert","484","4000195","0.0-6.0-2.68","5582817","co38119","norming","","","{""curiosity"":0,""confidence"":6}","[0,1]","../img/tt/1130tt.jpg","",""
"3186.7300000740215","","","recognition","survey-text","485","4003386","0.0-6.0-3.68","5582817","co38119","norming","","","{""guess"":""fietser""}","","../img/tt/1130tt.jpg","",""
"null","../img/gs/1130gs.jpg","null","reveal","image-keyboard-response","486","4005388","0.0-6.0-4.68","5582817","co38119","norming","","","","","","",""
"null","../img/tt/1130tt.jpg","null","mooney2","image-keyboard-response","487","4007391","0.0-6.0-5.68","5582817","co38119","norming","","","","","","",""
"3782.429999904707","","","post_reveal_questions","survey-likert","488","4011176","0.0-6.0-6.68","5582817","co38119","norming","","","{""aha"":0}","[0]","../img/tt/1130tt.jpg","",""
"null","<div style=""font-size:60px;""> </div>","null","fixation","html-keyboard-response","489","4011378","0.0-6.0-0.69","5582817","co38119","norming","","","","","","",""
"null","../img/tt/603tt.jpg","null","mooney1","image-keyboard-response","490","4014382","0.0-6.0-1.69","5582817","co38119","norming","","","","","","",""
"5189.435000065714","","","post_mooney1_questions","survey-likert","491","4019575","0.0-6.0-2.69","5582817","co38119","norming","","","{""curiosity"":4,""confidence"":3}","[0,1]","../img/tt/603tt.jpg","",""
"2086.1250000307336","","","recognition","survey-text","492","4021665","0.0-6.0-3.69","5582817","co38119","norming","","","{""guess"":""slang""}","","../img/tt/603tt.jpg","",""
"null","../img/gs/603gs.jpg","null","reveal","image-keyboard-response","493","4023667","0.0-6.0-4.69","5582817","co38119","norming","","","","","","",""
"null","../img/tt/603tt.jpg","null","mooney2","image-keyboard-response","494","4025669","0.0-6.0-5.69","5582817","co38119","norming","","","","","","",""
"2830.155000090599","","","post_reveal_questions","survey-likert","495","4028502","0.0-6.0-6.69","5582817","co38119","norming","","","{""aha"":6}","[0]","../img/tt/603tt.jpg","",""
"null","<div style=""font-size:60px;""> </div>","null","fixation","html-keyboard-response","496","4028707","0.0-6.0-0.70","5582817","co38119","norming","","","","","","",""
"null","../img/tt/1241tt.jpg","null","mooney1","image-keyboard-response","497","4031711","0.0-6.0-1.70","5582817","co38119","norming","","","","","","",""
"5142.469999962486","","","post_mooney1_questions","survey-likert","498","4036857","0.0-6.0-2.70","5582817","co38119","norming","","","{""curiosity"":6,""confidence"":0}","[0,1]","../img/tt/1241tt.jpg","",""
"620.9500000113621","","","recognition","survey-text","499","4037481","0.0-6.0-3.70","5582817","co38119","norming","","","{""guess"":""""}","","../img/tt/1241tt.jpg","",""
"null","../img/gs/1241gs.jpg","null","reveal","image-keyboard-response","500","4039484","0.0-6.0-4.70","5582817","co38119","norming","","","","","","",""
"null","../img/tt/1241tt.jpg","null","mooney2","image-keyboard-response","501","4041486","0.0-6.0-5.70","5582817","co38119","norming","","","","","","",""
"6686.779999989085","","","post_reveal_questions","survey-likert","502","4048176","0.0-6.0-6.70","5582817","co38119","norming","","","{""aha"":3}","[0]","../img/tt/1241tt.jpg","",""
"null","<div style=""font-size:60px;""> </div>","null","fixation","html-keyboard-response","503","4048379","0.0-6.0-0.71","5582817","co38119","norming","","","","","","",""
"null","../img/tt/1048tt.jpg","null","mooney1","image-keyboard-response","504","4051383","0.0-6.0-1.71","5582817","co38119","norming","","","","","","",""
"6027.72500005085","","","post_mooney1_questions","survey-likert","505","4057414","0.0-6.0-2.71","5582817","co38119","norming","","","{""curiosity"":4,""confidence"":1}","[0,1]","../img/tt/1048tt.jpg","",""
"2932.120000012219","","","recognition","survey-text","506","4060350","0.0-6.0-3.71","5582817","co38119","norming","","","{""guess"":""ravijn""}","","../img/tt/1048tt.jpg","",""
"null","../img/gs/1048gs.jpg","null","reveal","image-keyboard-response","507","4062353","0.0-6.0-4.71","5582817","co38119","norming","","","","","","",""
"null","../img/tt/1048tt.jpg","null","mooney2","image-keyboard-response","508","4064356","0.0-6.0-5.71","5582817","co38119","norming","","","","","","",""
"4014.45000001695","","","post_reveal_questions","survey-likert","509","4068373","0.0-6.0-6.71","5582817","co38119","norming","","","{""aha"":1}","[0]","../img/tt/1048tt.jpg","",""
"null","<div style=""font-size:60px;""> </div>","null","fixation","html-keyboard-response","510","4068576","0.0-6.0-0.72","5582817","co38119","norming","","","","","","",""
"null","../img/tt/1084tt.jpg","null","mooney1","image-keyboard-response","511","4071579","0.0-6.0-1.72","5582817","co38119","norming","","","","","","",""
"5071.144999936223","","","post_mooney1_questions","survey-likert","512","4076654","0.0-6.0-2.72","5582817","co38119","norming","","","{""curiosity"":2,""confidence"":4}","[0,1]","../img/tt/1084tt.jpg","",""
"1827.4850000161678","","","recognition","survey-text","513","4078485","0.0-6.0-3.72","5582817","co38119","norming","","","{""guess"":""taart""}","","../img/tt/1084tt.jpg","",""
"null","../img/gs/1084gs.jpg","null","reveal","image-keyboard-response","514","4080488","0.0-6.0-4.72","5582817","co38119","norming","","","","","","",""
"null","../img/tt/1084tt.jpg","null","mooney2","image-keyboard-response","515","4082490","0.0-6.0-5.72","5582817","co38119","norming","","","","","","",""
"2314.350000000559","","","post_reveal_questions","survey-likert","516","4084808","0.0-6.0-6.72","5582817","co38119","norming","","","{""aha"":0}","[0]","../img/tt/1084tt.jpg","",""
"null","<div style=""font-size:60px;""> </div>","null","fixation","html-keyboard-response","517","4085011","0.0-6.0-0.73","5582817","co38119","norming","","","","","","",""
"null","../img/tt/1199tt.jpg","null","mooney1","image-keyboard-response","518","4088015","0.0-6.0-1.73","5582817","co38119","norming","","","","","","",""
"5710.540000000037","","","post_mooney1_questions","survey-likert","519","4093729","0.0-6.0-2.73","5582817","co38119","norming","","","{""curiosity"":0,""confidence"":6}","[0,1]","../img/tt/1199tt.jpg","",""
"8732.010000036098","","","recognition","survey-text","520","4102465","0.0-6.0-3.73","5582817","co38119","norming","","","{""guess"":""gymnastiek balk""}","","../img/tt/1199tt.jpg","",""
"null","../img/gs/1199gs.jpg","null","reveal","image-keyboard-response","521","4104468","0.0-6.0-4.73","5582817","co38119","norming","","","","","","",""
"null","../img/tt/1199tt.jpg","null","mooney2","image-keyboard-response","522","4106471","0.0-6.0-5.73","5582817","co38119","norming","","","","","","",""
"2290.5249999603257","","","post_reveal_questions","survey-likert","523","4108765","0.0-6.0-6.73","5582817","co38119","norming","","","{""aha"":0}","[0]","../img/tt/1199tt.jpg","",""
"null","<div style=""font-size:60px;""> </div>","null","fixation","html-keyboard-response","524","4108967","0.0-6.0-0.74","5582817","co38119","norming","","","","","","",""
"null","../img/tt/032tt.jpg","null","mooney1","image-keyboard-response","525","4111971","0.0-6.0-1.74","5582817","co38119","norming","","","","","","",""
"5777.995000011288","","","post_mooney1_questions","survey-likert","526","4117752","0.0-6.0-2.74","5582817","co38119","norming","","","{""curiosity"":4,""confidence"":3}","[0,1]","../img/tt/032tt.jpg","",""
"2096.5749999741092","","","recognition","survey-text","527","4119853","0.0-6.0-3.74","5582817","co38119","norming","","","{""guess"":""slang""}","","../img/tt/032tt.jpg","",""
"null","../img/gs/032gs.jpg","null","reveal","image-keyboard-response","528","4121856","0.0-6.0-4.74","5582817","co38119","norming","","","","","","",""
"null","../img/tt/032tt.jpg","null","mooney2","image-keyboard-response","529","4123858","0.0-6.0-5.74","5582817","co38119","norming","","","","","","",""
"3981.320000020787","","","post_reveal_questions","survey-likert","530","4127842","0.0-6.0-6.74","5582817","co38119","norming","","","{""aha"":2}","[0]","../img/tt/032tt.jpg","",""
"null","<div style=""font-size:60px;""> </div>","null","fixation","html-keyboard-response","531","4128046","0.0-6.0-0.75","5582817","co38119","norming","","","","","","",""
"null","../img/tt/534tt.jpg","null","mooney1","image-keyboard-response","532","4131050","0.0-6.0-1.75","5582817","co38119","norming","","","","","","",""
"4656.650000018999","","","post_mooney1_questions","survey-likert","533","4135710","0.0-6.0-2.75","5582817","co38119","norming","","","{""curiosity"":6,""confidence"":2}","[0,1]","../img/tt/534tt.jpg","",""
"3966.8199999723583","","","recognition","survey-text","534","4139681","0.0-6.0-3.75","5582817","co38119","norming","","","{""guess"":""vuurwerk""}","","../img/tt/534tt.jpg","",""
"null","../img/gs/534gs.jpg","null","reveal","image-keyboard-response","535","4141684","0.0-6.0-4.75","5582817","co38119","norming","","","","","","",""
"null","../img/tt/534tt.jpg","null","mooney2","image-keyboard-response","536","4143687","0.0-6.0-5.75","5582817","co38119","norming","","","","","","",""
"3332.395000034012","","","post_reveal_questions","survey-likert","537","4147022","0.0-6.0-6.75","5582817","co38119","norming","","","{""aha"":5}","[0]","../img/tt/534tt.jpg","",""
"null","<div style=""font-size:60px;""> </div>","null","fixation","html-keyboard-response","538","4147225","0.0-6.0-0.76","5582817","co38119","norming","","","","","","",""
"null","../img/tt/1242tt.jpg","null","mooney1","image-keyboard-response","539","4150228","0.0-6.0-1.76","5582817","co38119","norming","","","","","","",""
"5306.414999999106","","","post_mooney1_questions","survey-likert","540","4155538","0.0-6.0-2.76","5582817","co38119","norming","","","{""curiosity"":0,""confidence"":6}","[0,1]","../img/tt/1242tt.jpg","",""
"3049.1949999704957","","","recognition","survey-text","541","4158592","0.0-6.0-3.76","5582817","co38119","norming","","","{""guess"":""vos""}","","../img/tt/1242tt.jpg","",""
"null","../img/gs/1242gs.jpg","null","reveal","image-keyboard-response","542","4160594","0.0-6.0-4.76","5582817","co38119","norming","","","","","","",""
"null","../img/tt/1242tt.jpg","null","mooney2","image-keyboard-response","543","4162597","0.0-6.0-5.76","5582817","co38119","norming","","","","","","",""
"81120.82999991253","","","post_reveal_questions","survey-likert","544","4243719","0.0-6.0-6.76","5582817","co38119","norming","","","{""aha"":0}","[0]","../img/tt/1242tt.jpg","",""
"null","<div style=""font-size:60px;""> </div>","null","fixation","html-keyboard-response","545","4243924","0.0-6.0-0.77","5582817","co38119","norming","","","","","","",""
"null","../img/tt/418tt.jpg","null","mooney1","image-keyboard-response","546","4246928","0.0-6.0-1.77","5582817","co38119","norming","","","","","","",""
"5776.964999968186","","","post_mooney1_questions","survey-likert","547","4252709","0.0-6.0-2.77","5582817","co38119","norming","","","{""curiosity"":3,""confidence"":4}","[0,1]","../img/tt/418tt.jpg","",""
"3927.3899999679998","","","recognition","survey-text","548","4256640","0.0-6.0-3.77","5582817","co38119","norming","","","{""guess"":""tomaten""}","","../img/tt/418tt.jpg","",""
"null","../img/gs/418gs.jpg","null","reveal","image-keyboard-response","549","4258643","0.0-6.0-4.77","5582817","co38119","norming","","","","","","",""
"null","../img/tt/418tt.jpg","null","mooney2","image-keyboard-response","550","4260645","0.0-6.0-5.77","5582817","co38119","norming","","","","","","",""
