"rt","stimulus","key_press","test_part","trial_type","trial_index","time_elapsed","internal_node_id","totalTime","subject","experiment_name","button_pressed","success","responses","question_order","currentStim","old","correct"
"13186","Welcome to the experiment. This is an online experiment so please don't close the tab/window until we say goodbye.  Press any key to begin.","32","instructions","html-keyboard-response","0","13214","0.0-0.0","3454852","co38668","norming","","","","","","",""
"4475","<div style='word-wrap: break-word; width: 900px'><h3>Please consider this information carefully before deciding whether to participate in this research</h3><ul style='text-align: left; font-size: .8em;'><li><b>Purpose of the research</b>: To examine how people process images.</li><li><b>What you will do in this research</b>:  Stimuli (images) will be presented on the computer and you will be asked different questions about them.</li><li><b>Time required</b>: Participation will take between 45 and 60 minutes to complete.</li><li><b>Risks</b>:  There are no anticipated risks associated with participating in this study. The effects of participating should be comparable to those you would experience from viewing a computer monitor for 30 minutes and using a mouse or keyboard.</li><li><b>Benefits</b>:  This study provides no benefits to you individually except for the credit. The study provides important information about the nature of perception and learning.</li><li><b>Confidentiality</b>:  Your participation in this study will remain confidential. No personally identifiable information will be associated with your data. Your de-identified data may be shared with other researchers and used in future projects.</li><li><b>Participation and withdrawal</b>:  Your participation in this study is completely voluntary and you may refuse to participate or you may choose to withdraw at any time without penalty.</li><li><b>How to contact the researchers</b>: If you have questions or concerns about your participation or payment, or want to request a summary of research findings, please contact Sander Van de Cruys (KU Leuven), at sander.vandecruys@kuleuven.be.</li></ul><p>The nature and purpose of this research have been sufficiently explained and I agree to participate in this study.  I understand that I am free to withdraw at any time without incurring any penalty.</p><p>Please consent by clicking the button below to continue. Otherwise, please exit the study at this time.</p></div>","","instructions","html-button-response","1","17692","0.0-1.0","3454852","co38668","norming","0","","","","","",""
"","","","instructions","fullscreen","2","21411","0.0-2.0","3454852","co38668","norming","","true","","","","",""
"113099","","","sona","survey-html-form","3","134516","0.0-3.0","3454852","co38668","norming","","","[{""name"":""sonaid"",""value"":""38668""},{""name"":""debrief"",""value"":""yes""},{""name"":""datajoin"",""value"":""yes""}]","","","",""
"84162.00000000003","<div style='word-wrap: break-word; width: 900px'><h3>Instructions</h3><p>This experiment will have 3 parts. In the first part you will see a series of distorted images like the one below on the left. As you can see in the righthand image, the distorted images are derived from actual photographs. In what follows, you will <strong>briefly</strong> be presented with <strong>only</strong> the distorted image.</p> <div style='float: left; margin-right: 20px;'><img src='../img/018tt.jpg' height='250' width='250'></img></div><div style='float: right; margin-left: 20px;'><img src='../img/018gs.jpg' height='250' width='250'></img></div><p>Subsequently you will be asked a few questions about the image: One question on how <strong>curious</strong> you are about the solution and one on how <strong>confident</strong> you are that you know the solution.</p>Next, we ask you to make a guess on what is in the image. Note that it is OK to name just the <strong>basic level category</strong>. For example when you see a parrot in the image, 'parrot' will obviously be a correct answer but also correct is 'bird'. However, 'animal' will <strong>not</strong> be counted as a correct response. For the example above, 'rose' would be correct or 'flower', but not 'plant'. When soccer players are depicted, 'soccer', 'football', 'soccer players' will be correct, but not 'humans', 'outdoors', or 'sports'. You do not need to describe the image in full, just name the main object in it <strong>in one or two words</strong>. All images depict objects from one of the following broad level categories: animals, inanimate objects, plants, sports, vehicles, and food. Recognizing means knowing <strong>more</strong> than these broad labels for a given image. But we always encourage you to <strong>make a guess</strong> if you can. Note that you are allowed to use <strong>Dutch and English</strong> in your answers, whatever comes easiest for you.</p><p>Press any key to continue.</p></div>","32","instructions","html-keyboard-response","4","218683","0.0-4.0","3454852","co38668","norming","","","","","","",""
"8133","<div style='word-wrap: break-word; width: 900px'><h3>Instructions</h3> <p>Next, the solution image will be revealed to you and you'll be asked to indicate how strong your <strong>aha-experience</strong> was after seeing the solution. This describes the positive feeling of the 'click' you sometimes experience, when the pieces of the 'puzzle' fall together and you suddenly have 'insight' in the image.</p><img src='aha.jpg' height='188' width='250'></img><p>Note that there are no right or wrong answers. We are interested in what <strong>you</strong> see in the image and how <strong>you</strong> feel about it.</p><p>Press any key to start the experiment.</p></div>","32","instructions","html-keyboard-response","5","226816","0.0-5.0","3454852","co38668","norming","","","","","","",""
"null","<div style=""font-size:60px;""> </div>","null","fixation","html-keyboard-response","6","227018","0.0-6.0-0.0","3454852","co38668","norming","","","","","","",""
"null","../img/tt/1151tt.jpg","null","mooney1","image-keyboard-response","7","230022","0.0-6.0-1.0","3454852","co38668","norming","","","","","","",""
"10079","","","post_mooney1_questions","survey-likert","8","240105","0.0-6.0-2.0","3454852","co38668","norming","","","{""curiosity"":4,""confidence"":1}","[0,1]","../img/tt/1151tt.jpg","",""
"5283.999999999971","","","recognition","survey-text","9","245400","0.0-6.0-3.0","3454852","co38668","norming","","","{""guess"":""egel""}","","../img/tt/1151tt.jpg","",""
"null","../img/gs/1151gs.jpg","null","reveal","image-keyboard-response","10","247402","0.0-6.0-4.0","3454852","co38668","norming","","","","","","",""
"null","../img/tt/1151tt.jpg","null","mooney2","image-keyboard-response","11","249404","0.0-6.0-5.0","3454852","co38668","norming","","","","","","",""
"8541","","","post_reveal_questions","survey-likert","12","257947","0.0-6.0-6.0","3454852","co38668","norming","","","{""aha"":3}","[0]","../img/tt/1151tt.jpg","",""
"null","<div style=""font-size:60px;""> </div>","null","fixation","html-keyboard-response","13","258150","0.0-6.0-0.1","3454852","co38668","norming","","","","","","",""
"null","../img/tt/496tt.jpg","null","mooney1","image-keyboard-response","14","261153","0.0-6.0-1.1","3454852","co38668","norming","","","","","","",""
"9129","","","post_mooney1_questions","survey-likert","15","270285","0.0-6.0-2.1","3454852","co38668","norming","","","{""curiosity"":3,""confidence"":1}","[0,1]","../img/tt/496tt.jpg","",""
"3536","","","recognition","survey-text","16","273829","0.0-6.0-3.1","3454852","co38668","norming","","","{""guess"":""hond""}","","../img/tt/496tt.jpg","",""
"null","../img/gs/496gs.jpg","null","reveal","image-keyboard-response","17","275832","0.0-6.0-4.1","3454852","co38668","norming","","","","","","",""
"null","../img/tt/496tt.jpg","null","mooney2","image-keyboard-response","18","277834","0.0-6.0-5.1","3454852","co38668","norming","","","","","","",""
"12239","","","post_reveal_questions","survey-likert","19","290075","0.0-6.0-6.1","3454852","co38668","norming","","","{""aha"":3}","[0]","../img/tt/496tt.jpg","",""
"null","<div style=""font-size:60px;""> </div>","null","fixation","html-keyboard-response","20","290278","0.0-6.0-0.2","3454852","co38668","norming","","","","","","",""
"null","../img/tt/1254tt.jpg","null","mooney1","image-keyboard-response","21","293280","0.0-6.0-1.2","3454852","co38668","norming","","","","","","",""
"14532","","","post_mooney1_questions","survey-likert","22","307815","0.0-6.0-2.2","3454852","co38668","norming","","","{""curiosity"":1,""confidence"":4}","[0,1]","../img/tt/1254tt.jpg","",""
"3715","","","recognition","survey-text","23","311538","0.0-6.0-3.2","3454852","co38668","norming","","","{""guess"":""konijn""}","","../img/tt/1254tt.jpg","",""
"null","../img/gs/1254gs.jpg","null","reveal","image-keyboard-response","24","313540","0.0-6.0-4.2","3454852","co38668","norming","","","","","","",""
"null","../img/tt/1254tt.jpg","null","mooney2","image-keyboard-response","25","315543","0.0-6.0-5.2","3454852","co38668","norming","","","","","","",""
"7021","","","post_reveal_questions","survey-likert","26","322566","0.0-6.0-6.2","3454852","co38668","norming","","","{""aha"":1}","[0]","../img/tt/1254tt.jpg","",""
"null","<div style=""font-size:60px;""> </div>","null","fixation","html-keyboard-response","27","322770","0.0-6.0-0.3","3454852","co38668","norming","","","","","","",""
"null","../img/tt/416tt.jpg","null","mooney1","image-keyboard-response","28","325773","0.0-6.0-1.3","3454852","co38668","norming","","","","","","",""
"5078","","","post_mooney1_questions","survey-likert","29","330852","0.0-6.0-2.3","3454852","co38668","norming","","","{""curiosity"":4,""confidence"":0}","[0,1]","../img/tt/416tt.jpg","",""
"880","","","recognition","survey-text","30","331740","0.0-6.0-3.3","3454852","co38668","norming","","","{""guess"":""""}","","../img/tt/416tt.jpg","",""
"null","../img/gs/416gs.jpg","null","reveal","image-keyboard-response","31","333743","0.0-6.0-4.3","3454852","co38668","norming","","","","","","",""
"null","../img/tt/416tt.jpg","null","mooney2","image-keyboard-response","32","335745","0.0-6.0-5.3","3454852","co38668","norming","","","","","","",""
"52096","","","post_reveal_questions","survey-likert","33","387845","0.0-6.0-6.3","3454852","co38668","norming","","","{""aha"":2}","[0]","../img/tt/416tt.jpg","",""
"null","<div style=""font-size:60px;""> </div>","null","fixation","html-keyboard-response","34","388048","0.0-6.0-0.4","3454852","co38668","norming","","","","","","",""
"null","../img/tt/063tt.jpg","null","mooney1","image-keyboard-response","35","391050","0.0-6.0-1.4","3454852","co38668","norming","","","","","","",""
"7158","","","post_mooney1_questions","survey-likert","36","398212","0.0-6.0-2.4","3454852","co38668","norming","","","{""curiosity"":3,""confidence"":1}","[0,1]","../img/tt/063tt.jpg","",""
"11114.000000000058","","","recognition","survey-text","37","409335","0.0-6.0-3.4","3454852","co38668","norming","","","{""guess"":""typmachine""}","","../img/tt/063tt.jpg","",""
"null","../img/gs/063gs.jpg","null","reveal","image-keyboard-response","38","411336","0.0-6.0-4.4","3454852","co38668","norming","","","","","","",""
"null","../img/tt/063tt.jpg","null","mooney2","image-keyboard-response","39","413339","0.0-6.0-5.4","3454852","co38668","norming","","","","","","",""
"4559.000000000058","","","post_reveal_questions","survey-likert","40","417900","0.0-6.0-6.4","3454852","co38668","norming","","","{""aha"":4}","[0]","../img/tt/063tt.jpg","",""
"null","<div style=""font-size:60px;""> </div>","null","fixation","html-keyboard-response","41","418103","0.0-6.0-0.5","3454852","co38668","norming","","","","","","",""
"null","../img/tt/1181tt.jpg","null","mooney1","image-keyboard-response","42","421106","0.0-6.0-1.5","3454852","co38668","norming","","","","","","",""
"7042.000000000058","","","post_mooney1_questions","survey-likert","43","428150","0.0-6.0-2.5","3454852","co38668","norming","","","{""curiosity"":2,""confidence"":2}","[0,1]","../img/tt/1181tt.jpg","",""
"5847","","","recognition","survey-text","44","434006","0.0-6.0-3.5","3454852","co38668","norming","","","{""guess"":""mensen""}","","../img/tt/1181tt.jpg","",""
"null","../img/gs/1181gs.jpg","null","reveal","image-keyboard-response","45","436008","0.0-6.0-4.5","3454852","co38668","norming","","","","","","",""
"null","../img/tt/1181tt.jpg","null","mooney2","image-keyboard-response","46","438010","0.0-6.0-5.5","3454852","co38668","norming","","","","","","",""
"2498","","","post_reveal_questions","survey-likert","47","440510","0.0-6.0-6.5","3454852","co38668","norming","","","{""aha"":2}","[0]","../img/tt/1181tt.jpg","",""
"null","<div style=""font-size:60px;""> </div>","null","fixation","html-keyboard-response","48","440713","0.0-6.0-0.6","3454852","co38668","norming","","","","","","",""
"null","../img/tt/008tt.jpg","null","mooney1","image-keyboard-response","49","443715","0.0-6.0-1.6","3454852","co38668","norming","","","","","","",""
"5840.999999999942","","","post_mooney1_questions","survey-likert","50","449559","0.0-6.0-2.6","3454852","co38668","norming","","","{""curiosity"":1,""confidence"":1}","[0,1]","../img/tt/008tt.jpg","",""
"5716.000000000058","","","recognition","survey-text","51","455283","0.0-6.0-3.6","3454852","co38668","norming","","","{""guess"":""strand""}","","../img/tt/008tt.jpg","",""
"null","../img/gs/008gs.jpg","null","reveal","image-keyboard-response","52","457284","0.0-6.0-4.6","3454852","co38668","norming","","","","","","",""
"null","../img/tt/008tt.jpg","null","mooney2","image-keyboard-response","53","459287","0.0-6.0-5.6","3454852","co38668","norming","","","","","","",""
"2344","","","post_reveal_questions","survey-likert","54","461633","0.0-6.0-6.6","3454852","co38668","norming","","","{""aha"":4}","[0]","../img/tt/008tt.jpg","",""
"null","<div style=""font-size:60px;""> </div>","null","fixation","html-keyboard-response","55","461836","0.0-6.0-0.7","3454852","co38668","norming","","","","","","",""
"null","../img/tt/1069tt.jpg","null","mooney1","image-keyboard-response","56","464838","0.0-6.0-1.7","3454852","co38668","norming","","","","","","",""
"26855","","","post_mooney1_questions","survey-likert","57","491696","0.0-6.0-2.7","3454852","co38668","norming","","","{""curiosity"":1,""confidence"":0}","[0,1]","../img/tt/1069tt.jpg","",""
"1123","","","recognition","survey-text","58","492826","0.0-6.0-3.7","3454852","co38668","norming","","","{""guess"":""""}","","../img/tt/1069tt.jpg","",""
"null","../img/gs/1069gs.jpg","null","reveal","image-keyboard-response","59","494829","0.0-6.0-4.7","3454852","co38668","norming","","","","","","",""
"null","../img/tt/1069tt.jpg","null","mooney2","image-keyboard-response","60","496831","0.0-6.0-5.7","3454852","co38668","norming","","","","","","",""
"6432","","","post_reveal_questions","survey-likert","61","503264","0.0-6.0-6.7","3454852","co38668","norming","","","{""aha"":2}","[0]","../img/tt/1069tt.jpg","",""
"null","<div style=""font-size:60px;""> </div>","null","fixation","html-keyboard-response","62","503468","0.0-6.0-0.8","3454852","co38668","norming","","","","","","",""
"null","../img/tt/1247tt.jpg","null","mooney1","image-keyboard-response","63","506470","0.0-6.0-1.8","3454852","co38668","norming","","","","","","",""
"7432","","","post_mooney1_questions","survey-likert","64","513905","0.0-6.0-2.8","3454852","co38668","norming","","","{""curiosity"":2,""confidence"":2}","[0,1]","../img/tt/1247tt.jpg","",""
"2624","","","recognition","survey-text","65","516538","0.0-6.0-3.8","3454852","co38668","norming","","","{""guess"":""kat""}","","../img/tt/1247tt.jpg","",""
"null","../img/gs/1247gs.jpg","null","reveal","image-keyboard-response","66","518540","0.0-6.0-4.8","3454852","co38668","norming","","","","","","",""
"null","../img/tt/1247tt.jpg","null","mooney2","image-keyboard-response","67","520542","0.0-6.0-5.8","3454852","co38668","norming","","","","","","",""
"2529","","","post_reveal_questions","survey-likert","68","523073","0.0-6.0-6.8","3454852","co38668","norming","","","{""aha"":3}","[0]","../img/tt/1247tt.jpg","",""
"null","<div style=""font-size:60px;""> </div>","null","fixation","html-keyboard-response","69","523276","0.0-6.0-0.9","3454852","co38668","norming","","","","","","",""
"null","../img/tt/064tt.jpg","null","mooney1","image-keyboard-response","70","526279","0.0-6.0-1.9","3454852","co38668","norming","","","","","","",""
"7602","","","post_mooney1_questions","survey-likert","71","533882","0.0-6.0-2.9","3454852","co38668","norming","","","{""curiosity"":1,""confidence"":1}","[0,1]","../img/tt/064tt.jpg","",""
"3780","","","recognition","survey-text","72","537670","0.0-6.0-3.9","3454852","co38668","norming","","","{""guess"":""vlinder""}","","../img/tt/064tt.jpg","",""
"null","../img/gs/064gs.jpg","null","reveal","image-keyboard-response","73","539672","0.0-6.0-4.9","3454852","co38668","norming","","","","","","",""
"null","../img/tt/064tt.jpg","null","mooney2","image-keyboard-response","74","541675","0.0-6.0-5.9","3454852","co38668","norming","","","","","","",""
"5493","","","post_reveal_questions","survey-likert","75","547170","0.0-6.0-6.9","3454852","co38668","norming","","","{""aha"":2}","[0]","../img/tt/064tt.jpg","",""
"null","<div style=""font-size:60px;""> </div>","null","fixation","html-keyboard-response","76","547373","0.0-6.0-0.10","3454852","co38668","norming","","","","","","",""
"null","../img/tt/1226tt.jpg","null","mooney1","image-keyboard-response","77","550376","0.0-6.0-1.10","3454852","co38668","norming","","","","","","",""
"6211.000000000116","","","post_mooney1_questions","survey-likert","78","556590","0.0-6.0-2.10","3454852","co38668","norming","","","{""curiosity"":1,""confidence"":2}","[0,1]","../img/tt/1226tt.jpg","",""
"3401","","","recognition","survey-text","79","559999","0.0-6.0-3.10","3454852","co38668","norming","","","{""guess"":""kippen""}","","../img/tt/1226tt.jpg","",""
"null","../img/gs/1226gs.jpg","null","reveal","image-keyboard-response","80","562001","0.0-6.0-4.10","3454852","co38668","norming","","","","","","",""
"null","../img/tt/1226tt.jpg","null","mooney2","image-keyboard-response","81","564003","0.0-6.0-5.10","3454852","co38668","norming","","","","","","",""
"1802","","","post_reveal_questions","survey-likert","82","565806","0.0-6.0-6.10","3454852","co38668","norming","","","{""aha"":1}","[0]","../img/tt/1226tt.jpg","",""
"null","<div style=""font-size:60px;""> </div>","null","fixation","html-keyboard-response","83","566010","0.0-6.0-0.11","3454852","co38668","norming","","","","","","",""
"null","../img/tt/279tt.jpg","null","mooney1","image-keyboard-response","84","569012","0.0-6.0-1.11","3454852","co38668","norming","","","","","","",""
"5500","","","post_mooney1_questions","survey-likert","85","574515","0.0-6.0-2.11","3454852","co38668","norming","","","{""curiosity"":0,""confidence"":4}","[0,1]","../img/tt/279tt.jpg","",""
"3086","","","recognition","survey-text","86","577608","0.0-6.0-3.11","3454852","co38668","norming","","","{""guess"":""koala""}","","../img/tt/279tt.jpg","",""
"null","../img/gs/279gs.jpg","null","reveal","image-keyboard-response","87","579611","0.0-6.0-4.11","3454852","co38668","norming","","","","","","",""
"null","../img/tt/279tt.jpg","null","mooney2","image-keyboard-response","88","581613","0.0-6.0-5.11","3454852","co38668","norming","","","","","","",""
"4250","","","post_reveal_questions","survey-likert","89","585864","0.0-6.0-6.11","3454852","co38668","norming","","","{""aha"":0}","[0]","../img/tt/279tt.jpg","",""
"null","<div style=""font-size:60px;""> </div>","null","fixation","html-keyboard-response","90","586067","0.0-6.0-0.12","3454852","co38668","norming","","","","","","",""
"null","../img/tt/1006tt.jpg","null","mooney1","image-keyboard-response","91","589070","0.0-6.0-1.12","3454852","co38668","norming","","","","","","",""
"6501.999999999884","","","post_mooney1_questions","survey-likert","92","595574","0.0-6.0-2.12","3454852","co38668","norming","","","{""curiosity"":2,""confidence"":0}","[0,1]","../img/tt/1006tt.jpg","",""
"1074","","","recognition","survey-text","93","596656","0.0-6.0-3.12","3454852","co38668","norming","","","{""guess"":""""}","","../img/tt/1006tt.jpg","",""
"null","../img/gs/1006gs.jpg","null","reveal","image-keyboard-response","94","598659","0.0-6.0-4.12","3454852","co38668","norming","","","","","","",""
"null","../img/tt/1006tt.jpg","null","mooney2","image-keyboard-response","95","600661","0.0-6.0-5.12","3454852","co38668","norming","","","","","","",""
"4596","","","post_reveal_questions","survey-likert","96","605258","0.0-6.0-6.12","3454852","co38668","norming","","","{""aha"":1}","[0]","../img/tt/1006tt.jpg","",""
"null","<div style=""font-size:60px;""> </div>","null","fixation","html-keyboard-response","97","605460","0.0-6.0-0.13","3454852","co38668","norming","","","","","","",""
"null","../img/tt/306tt.jpg","null","mooney1","image-keyboard-response","98","608463","0.0-6.0-1.13","3454852","co38668","norming","","","","","","",""
"16072","","","post_mooney1_questions","survey-likert","99","624538","0.0-6.0-2.13","3454852","co38668","norming","","","{""curiosity"":3,""confidence"":0}","[0,1]","../img/tt/306tt.jpg","",""
"1212","","","recognition","survey-text","100","625758","0.0-6.0-3.13","3454852","co38668","norming","","","{""guess"":""""}","","../img/tt/306tt.jpg","",""
"null","../img/gs/306gs.jpg","null","reveal","image-keyboard-response","101","627760","0.0-6.0-4.13","3454852","co38668","norming","","","","","","",""
"null","../img/tt/306tt.jpg","null","mooney2","image-keyboard-response","102","629763","0.0-6.0-5.13","3454852","co38668","norming","","","","","","",""
"8603","","","post_reveal_questions","survey-likert","103","638367","0.0-6.0-6.13","3454852","co38668","norming","","","{""aha"":3}","[0]","../img/tt/306tt.jpg","",""
"null","<div style=""font-size:60px;""> </div>","null","fixation","html-keyboard-response","104","638570","0.0-6.0-0.14","3454852","co38668","norming","","","","","","",""
"null","../img/tt/1239tt.jpg","null","mooney1","image-keyboard-response","105","641573","0.0-6.0-1.14","3454852","co38668","norming","","","","","","",""
"10114.000000000116","","","post_mooney1_questions","survey-likert","106","651689","0.0-6.0-2.14","3454852","co38668","norming","","","{""curiosity"":2,""confidence"":4}","[0,1]","../img/tt/1239tt.jpg","",""
"2706","","","recognition","survey-text","107","654401","0.0-6.0-3.14","3454852","co38668","norming","","","{""guess"":""hond""}","","../img/tt/1239tt.jpg","",""
"null","../img/gs/1239gs.jpg","null","reveal","image-keyboard-response","108","656404","0.0-6.0-4.14","3454852","co38668","norming","","","","","","",""
"null","../img/tt/1239tt.jpg","null","mooney2","image-keyboard-response","109","658406","0.0-6.0-5.14","3454852","co38668","norming","","","","","","",""
"3519","","","post_reveal_questions","survey-likert","110","661926","0.0-6.0-6.14","3454852","co38668","norming","","","{""aha"":1}","[0]","../img/tt/1239tt.jpg","",""
"null","<div style=""font-size:60px;""> </div>","null","fixation","html-keyboard-response","111","662130","0.0-6.0-0.15","3454852","co38668","norming","","","","","","",""
"null","../img/tt/1116tt.jpg","null","mooney1","image-keyboard-response","112","665133","0.0-6.0-1.15","3454852","co38668","norming","","","","","","",""
"9123","","","post_mooney1_questions","survey-likert","113","674257","0.0-6.0-2.15","3454852","co38668","norming","","","{""curiosity"":3,""confidence"":1}","[0,1]","../img/tt/1116tt.jpg","",""
"3498","","","recognition","survey-text","114","677763","0.0-6.0-3.15","3454852","co38668","norming","","","{""guess"":""boten""}","","../img/tt/1116tt.jpg","",""
"null","../img/gs/1116gs.jpg","null","reveal","image-keyboard-response","115","679766","0.0-6.0-4.15","3454852","co38668","norming","","","","","","",""
"null","../img/tt/1116tt.jpg","null","mooney2","image-keyboard-response","116","681768","0.0-6.0-5.15","3454852","co38668","norming","","","","","","",""
"3550.0000000001164","","","post_reveal_questions","survey-likert","117","685320","0.0-6.0-6.15","3454852","co38668","norming","","","{""aha"":4}","[0]","../img/tt/1116tt.jpg","",""
"null","<div style=""font-size:60px;""> </div>","null","fixation","html-keyboard-response","118","685523","0.0-6.0-0.16","3454852","co38668","norming","","","","","","",""
"null","../img/tt/1148tt.jpg","null","mooney1","image-keyboard-response","119","688525","0.0-6.0-1.16","3454852","co38668","norming","","","","","","",""
"5932","","","post_mooney1_questions","survey-likert","120","694459","0.0-6.0-2.16","3454852","co38668","norming","","","{""curiosity"":2,""confidence"":1}","[0,1]","../img/tt/1148tt.jpg","",""
"6750","","","recognition","survey-text","121","701217","0.0-6.0-3.16","3454852","co38668","norming","","","{""guess"":""mevrouw""}","","../img/tt/1148tt.jpg","",""
"null","../img/gs/1148gs.jpg","null","reveal","image-keyboard-response","122","703219","0.0-6.0-4.16","3454852","co38668","norming","","","","","","",""
"null","../img/tt/1148tt.jpg","null","mooney2","image-keyboard-response","123","705222","0.0-6.0-5.16","3454852","co38668","norming","","","","","","",""
"5419.000000000116","","","post_reveal_questions","survey-likert","124","710642","0.0-6.0-6.16","3454852","co38668","norming","","","{""aha"":3}","[0]","../img/tt/1148tt.jpg","",""
"null","<div style=""font-size:60px;""> </div>","null","fixation","html-keyboard-response","125","710846","0.0-6.0-0.17","3454852","co38668","norming","","","","","","",""
"null","../img/tt/124tt.jpg","null","mooney1","image-keyboard-response","126","713848","0.0-6.0-1.17","3454852","co38668","norming","","","","","","",""
"8387.999999999884","","","post_mooney1_questions","survey-likert","127","722238","0.0-6.0-2.17","3454852","co38668","norming","","","{""curiosity"":3,""confidence"":2}","[0,1]","../img/tt/124tt.jpg","",""
"2691","","","recognition","survey-text","128","724936","0.0-6.0-3.17","3454852","co38668","norming","","","{""guess"":""eend""}","","../img/tt/124tt.jpg","",""
"null","../img/gs/124gs.jpg","null","reveal","image-keyboard-response","129","726938","0.0-6.0-4.17","3454852","co38668","norming","","","","","","",""
"null","../img/tt/124tt.jpg","null","mooney2","image-keyboard-response","130","728940","0.0-6.0-5.17","3454852","co38668","norming","","","","","","",""
"2605.0000000001164","","","post_reveal_questions","survey-likert","131","731547","0.0-6.0-6.17","3454852","co38668","norming","","","{""aha"":2}","[0]","../img/tt/124tt.jpg","",""
"null","<div style=""font-size:60px;""> </div>","null","fixation","html-keyboard-response","132","731750","0.0-6.0-0.18","3454852","co38668","norming","","","","","","",""
"null","../img/tt/1154tt.jpg","null","mooney1","image-keyboard-response","133","734752","0.0-6.0-1.18","3454852","co38668","norming","","","","","","",""
"6243","","","post_mooney1_questions","survey-likert","134","740998","0.0-6.0-2.18","3454852","co38668","norming","","","{""curiosity"":2,""confidence"":0}","[0,1]","../img/tt/1154tt.jpg","",""
"2108","","","recognition","survey-text","135","743113","0.0-6.0-3.18","3454852","co38668","norming","","","{""guess"":""""}","","../img/tt/1154tt.jpg","",""
"null","../img/gs/1154gs.jpg","null","reveal","image-keyboard-response","136","745116","0.0-6.0-4.18","3454852","co38668","norming","","","","","","",""
"null","../img/tt/1154tt.jpg","null","mooney2","image-keyboard-response","137","747119","0.0-6.0-5.18","3454852","co38668","norming","","","","","","",""
"2992","","","post_reveal_questions","survey-likert","138","750113","0.0-6.0-6.18","3454852","co38668","norming","","","{""aha"":2}","[0]","../img/tt/1154tt.jpg","",""
"null","<div style=""font-size:60px;""> </div>","null","fixation","html-keyboard-response","139","750316","0.0-6.0-0.19","3454852","co38668","norming","","","","","","",""
"null","../img/tt/1366tt.jpg","null","mooney1","image-keyboard-response","140","753318","0.0-6.0-1.19","3454852","co38668","norming","","","","","","",""
"5348.000000000116","","","post_mooney1_questions","survey-likert","141","758668","0.0-6.0-2.19","3454852","co38668","norming","","","{""curiosity"":2,""confidence"":2}","[0,1]","../img/tt/1366tt.jpg","",""
"2045","","","recognition","survey-text","142","760722","0.0-6.0-3.19","3454852","co38668","norming","","","{""guess"":""eten""}","","../img/tt/1366tt.jpg","",""
"null","../img/gs/1366gs.jpg","null","reveal","image-keyboard-response","143","762724","0.0-6.0-4.19","3454852","co38668","norming","","","","","","",""
"null","../img/tt/1366tt.jpg","null","mooney2","image-keyboard-response","144","764726","0.0-6.0-5.19","3454852","co38668","norming","","","","","","",""
"3646","","","post_reveal_questions","survey-likert","145","768375","0.0-6.0-6.19","3454852","co38668","norming","","","{""aha"":1}","[0]","../img/tt/1366tt.jpg","",""
"null","<div style=""font-size:60px;""> </div>","null","fixation","html-keyboard-response","146","768579","0.0-6.0-0.20","3454852","co38668","norming","","","","","","",""
"null","../img/tt/435tt.jpg","null","mooney1","image-keyboard-response","147","771581","0.0-6.0-1.20","3454852","co38668","norming","","","","","","",""
"6031","","","post_mooney1_questions","survey-likert","148","777614","0.0-6.0-2.20","3454852","co38668","norming","","","{""curiosity"":1,""confidence"":0}","[0,1]","../img/tt/435tt.jpg","",""
"1003.0000000001164","","","recognition","survey-text","149","778625","0.0-6.0-3.20","3454852","co38668","norming","","","{""guess"":""""}","","../img/tt/435tt.jpg","",""
"null","../img/gs/435gs.jpg","null","reveal","image-keyboard-response","150","780627","0.0-6.0-4.20","3454852","co38668","norming","","","","","","",""
"null","../img/tt/435tt.jpg","null","mooney2","image-keyboard-response","151","782630","0.0-6.0-5.20","3454852","co38668","norming","","","","","","",""
"2198","","","post_reveal_questions","survey-likert","152","784830","0.0-6.0-6.20","3454852","co38668","norming","","","{""aha"":2}","[0]","../img/tt/435tt.jpg","",""
"null","<div style=""font-size:60px;""> </div>","null","fixation","html-keyboard-response","153","785032","0.0-6.0-0.21","3454852","co38668","norming","","","","","","",""
"null","../img/tt/056tt.jpg","null","mooney1","image-keyboard-response","154","788034","0.0-6.0-1.21","3454852","co38668","norming","","","","","","",""
"4599","","","post_mooney1_questions","survey-likert","155","792635","0.0-6.0-2.21","3454852","co38668","norming","","","{""curiosity"":2,""confidence"":3}","[0,1]","../img/tt/056tt.jpg","",""
"5172","","","recognition","survey-text","156","797815","0.0-6.0-3.21","3454852","co38668","norming","","","{""guess"":""wolf""}","","../img/tt/056tt.jpg","",""
"null","../img/gs/056gs.jpg","null","reveal","image-keyboard-response","157","799818","0.0-6.0-4.21","3454852","co38668","norming","","","","","","",""
"null","../img/tt/056tt.jpg","null","mooney2","image-keyboard-response","158","801820","0.0-6.0-5.21","3454852","co38668","norming","","","","","","",""
"2528","","","post_reveal_questions","survey-likert","159","804349","0.0-6.0-6.21","3454852","co38668","norming","","","{""aha"":1}","[0]","../img/tt/056tt.jpg","",""
"null","<div style=""font-size:60px;""> </div>","null","fixation","html-keyboard-response","160","804552","0.0-6.0-0.22","3454852","co38668","norming","","","","","","",""
"null","../img/tt/1228tt.jpg","null","mooney1","image-keyboard-response","161","807555","0.0-6.0-1.22","3454852","co38668","norming","","","","","","",""
"7462","","","post_mooney1_questions","survey-likert","162","815018","0.0-6.0-2.22","3454852","co38668","norming","","","{""curiosity"":1,""confidence"":1}","[0,1]","../img/tt/1228tt.jpg","",""
"5299","","","recognition","survey-text","163","820325","0.0-6.0-3.22","3454852","co38668","norming","","","{""guess"":""vogel""}","","../img/tt/1228tt.jpg","",""
"null","../img/gs/1228gs.jpg","null","reveal","image-keyboard-response","164","822328","0.0-6.0-4.22","3454852","co38668","norming","","","","","","",""
"null","../img/tt/1228tt.jpg","null","mooney2","image-keyboard-response","165","824330","0.0-6.0-5.22","3454852","co38668","norming","","","","","","",""
"4239","","","post_reveal_questions","survey-likert","166","828571","0.0-6.0-6.22","3454852","co38668","norming","","","{""aha"":1}","[0]","../img/tt/1228tt.jpg","",""
"null","<div style=""font-size:60px;""> </div>","null","fixation","html-keyboard-response","167","828774","0.0-6.0-0.23","3454852","co38668","norming","","","","","","",""
"null","../img/tt/1227tt.jpg","null","mooney1","image-keyboard-response","168","831777","0.0-6.0-1.23","3454852","co38668","norming","","","","","","",""
"7286.000000000116","","","post_mooney1_questions","survey-likert","169","839064","0.0-6.0-2.23","3454852","co38668","norming","","","{""curiosity"":2,""confidence"":4}","[0,1]","../img/tt/1227tt.jpg","",""
"2633.0000000001164","","","recognition","survey-text","170","841704","0.0-6.0-3.23","3454852","co38668","norming","","","{""guess"":""kippen""}","","../img/tt/1227tt.jpg","",""
"null","../img/gs/1227gs.jpg","null","reveal","image-keyboard-response","171","843706","0.0-6.0-4.23","3454852","co38668","norming","","","","","","",""
"null","../img/tt/1227tt.jpg","null","mooney2","image-keyboard-response","172","845708","0.0-6.0-5.23","3454852","co38668","norming","","","","","","",""
"4200","","","post_reveal_questions","survey-likert","173","849909","0.0-6.0-6.23","3454852","co38668","norming","","","{""aha"":0}","[0]","../img/tt/1227tt.jpg","",""
"null","<div style=""font-size:60px;""> </div>","null","fixation","html-keyboard-response","174","850112","0.0-6.0-0.24","3454852","co38668","norming","","","","","","",""
"null","../img/tt/300tt.jpg","null","mooney1","image-keyboard-response","175","853115","0.0-6.0-1.24","3454852","co38668","norming","","","","","","",""
"6016","","","post_mooney1_questions","survey-likert","176","859133","0.0-6.0-2.24","3454852","co38668","norming","","","{""curiosity"":2,""confidence"":3}","[0,1]","../img/tt/300tt.jpg","",""
"6671","","","recognition","survey-text","177","865811","0.0-6.0-3.24","3454852","co38668","norming","","","{""guess"":""oude man""}","","../img/tt/300tt.jpg","",""
"null","../img/gs/300gs.jpg","null","reveal","image-keyboard-response","178","867813","0.0-6.0-4.24","3454852","co38668","norming","","","","","","",""
"null","../img/tt/300tt.jpg","null","mooney2","image-keyboard-response","179","869815","0.0-6.0-5.24","3454852","co38668","norming","","","","","","",""
"7233","","","post_reveal_questions","survey-likert","180","877049","0.0-6.0-6.24","3454852","co38668","norming","","","{""aha"":3}","[0]","../img/tt/300tt.jpg","",""
"null","<div style=""font-size:60px;""> </div>","null","fixation","html-keyboard-response","181","877252","0.0-6.0-0.25","3454852","co38668","norming","","","","","","",""
"null","../img/tt/357tt.jpg","null","mooney1","image-keyboard-response","182","880255","0.0-6.0-1.25","3454852","co38668","norming","","","","","","",""
"5047","","","post_mooney1_questions","survey-likert","183","885304","0.0-6.0-2.25","3454852","co38668","norming","","","{""curiosity"":3,""confidence"":0}","[0,1]","../img/tt/357tt.jpg","",""
"952","","","recognition","survey-text","184","886265","0.0-6.0-3.25","3454852","co38668","norming","","","{""guess"":""""}","","../img/tt/357tt.jpg","",""
"null","../img/gs/357gs.jpg","null","reveal","image-keyboard-response","185","888267","0.0-6.0-4.25","3454852","co38668","norming","","","","","","",""
"null","../img/tt/357tt.jpg","null","mooney2","image-keyboard-response","186","890269","0.0-6.0-5.25","3454852","co38668","norming","","","","","","",""
"2012","","","post_reveal_questions","survey-likert","187","892283","0.0-6.0-6.25","3454852","co38668","norming","","","{""aha"":3}","[0]","../img/tt/357tt.jpg","",""
"null","<div style=""font-size:60px;""> </div>","null","fixation","html-keyboard-response","188","892487","0.0-6.0-0.26","3454852","co38668","norming","","","","","","",""
"null","../img/tt/031tt.jpg","null","mooney1","image-keyboard-response","189","895489","0.0-6.0-1.26","3454852","co38668","norming","","","","","","",""
"9596","","","post_mooney1_questions","survey-likert","190","905087","0.0-6.0-2.26","3454852","co38668","norming","","","{""curiosity"":2,""confidence"":1}","[0,1]","../img/tt/031tt.jpg","",""
"1270.0000000001164","","","recognition","survey-text","191","906364","0.0-6.0-3.26","3454852","co38668","norming","","","{""guess"":""""}","","../img/tt/031tt.jpg","",""
"null","../img/gs/031gs.jpg","null","reveal","image-keyboard-response","192","908365","0.0-6.0-4.26","3454852","co38668","norming","","","","","","",""
"null","../img/tt/031tt.jpg","null","mooney2","image-keyboard-response","193","910368","0.0-6.0-5.26","3454852","co38668","norming","","","","","","",""
"4526.999999999884","","","post_reveal_questions","survey-likert","194","914896","0.0-6.0-6.26","3454852","co38668","norming","","","{""aha"":3}","[0]","../img/tt/031tt.jpg","",""
"null","<div style=""font-size:60px;""> </div>","null","fixation","html-keyboard-response","195","915100","0.0-6.0-0.27","3454852","co38668","norming","","","","","","",""
"null","../img/tt/1102tt.jpg","null","mooney1","image-keyboard-response","196","918102","0.0-6.0-1.27","3454852","co38668","norming","","","","","","",""
"7865","","","post_mooney1_questions","survey-likert","197","925969","0.0-6.0-2.27","3454852","co38668","norming","","","{""curiosity"":2,""confidence"":0}","[0,1]","../img/tt/1102tt.jpg","",""
"1181.9999999998836","","","recognition","survey-text","198","927157","0.0-6.0-3.27","3454852","co38668","norming","","","{""guess"":""""}","","../img/tt/1102tt.jpg","",""
"null","../img/gs/1102gs.jpg","null","reveal","image-keyboard-response","199","929160","0.0-6.0-4.27","3454852","co38668","norming","","","","","","",""
"null","../img/tt/1102tt.jpg","null","mooney2","image-keyboard-response","200","931162","0.0-6.0-5.27","3454852","co38668","norming","","","","","","",""
"3381","","","post_reveal_questions","survey-likert","201","934545","0.0-6.0-6.27","3454852","co38668","norming","","","{""aha"":3}","[0]","../img/tt/1102tt.jpg","",""
"null","<div style=""font-size:60px;""> </div>","null","fixation","html-keyboard-response","202","934748","0.0-6.0-0.28","3454852","co38668","norming","","","","","","",""
"null","../img/tt/1126tt.jpg","null","mooney1","image-keyboard-response","203","937750","0.0-6.0-1.28","3454852","co38668","norming","","","","","","",""
"5523","","","post_mooney1_questions","survey-likert","204","943277","0.0-6.0-2.28","3454852","co38668","norming","","","{""curiosity"":2,""confidence"":6}","[0,1]","../img/tt/1126tt.jpg","",""
"5292.000000000116","","","recognition","survey-text","205","948578","0.0-6.0-3.28","3454852","co38668","norming","","","{""guess"":""bergbeklimmer""}","","../img/tt/1126tt.jpg","",""
"null","../img/gs/1126gs.jpg","null","reveal","image-keyboard-response","206","950580","0.0-6.0-4.28","3454852","co38668","norming","","","","","","",""
"null","../img/tt/1126tt.jpg","null","mooney2","image-keyboard-response","207","952583","0.0-6.0-5.28","3454852","co38668","norming","","","","","","",""
"4058","","","post_reveal_questions","survey-likert","208","956642","0.0-6.0-6.28","3454852","co38668","norming","","","{""aha"":1}","[0]","../img/tt/1126tt.jpg","",""
"null","<div style=""font-size:60px;""> </div>","null","fixation","html-keyboard-response","209","956845","0.0-6.0-0.29","3454852","co38668","norming","","","","","","",""
"null","../img/tt/1084tt.jpg","null","mooney1","image-keyboard-response","210","959847","0.0-6.0-1.29","3454852","co38668","norming","","","","","","",""
"4889","","","post_mooney1_questions","survey-likert","211","964738","0.0-6.0-2.29","3454852","co38668","norming","","","{""curiosity"":1,""confidence"":2}","[0,1]","../img/tt/1084tt.jpg","",""
"3802","","","recognition","survey-text","212","968547","0.0-6.0-3.29","3454852","co38668","norming","","","{""guess"":""druiven""}","","../img/tt/1084tt.jpg","",""
"null","../img/gs/1084gs.jpg","null","reveal","image-keyboard-response","213","970549","0.0-6.0-4.29","3454852","co38668","norming","","","","","","",""
"null","../img/tt/1084tt.jpg","null","mooney2","image-keyboard-response","214","972552","0.0-6.0-5.29","3454852","co38668","norming","","","","","","",""
"4295","","","post_reveal_questions","survey-likert","215","976848","0.0-6.0-6.29","3454852","co38668","norming","","","{""aha"":1}","[0]","../img/tt/1084tt.jpg","",""
"null","<div style=""font-size:60px;""> </div>","null","fixation","html-keyboard-response","216","977051","0.0-6.0-0.30","3454852","co38668","norming","","","","","","",""
"null","../img/tt/517tt.jpg","null","mooney1","image-keyboard-response","217","980054","0.0-6.0-1.30","3454852","co38668","norming","","","","","","",""
"7628","","","post_mooney1_questions","survey-likert","218","987683","0.0-6.0-2.30","3454852","co38668","norming","","","{""curiosity"":1,""confidence"":1}","[0,1]","../img/tt/517tt.jpg","",""
"2988","","","recognition","survey-text","219","990677","0.0-6.0-3.30","3454852","co38668","norming","","","{""guess"":""beer""}","","../img/tt/517tt.jpg","",""
"null","../img/gs/517gs.jpg","null","reveal","image-keyboard-response","220","992680","0.0-6.0-4.30","3454852","co38668","norming","","","","","","",""
"null","../img/tt/517tt.jpg","null","mooney2","image-keyboard-response","221","994683","0.0-6.0-5.30","3454852","co38668","norming","","","","","","",""
"4921","","","post_reveal_questions","survey-likert","222","999605","0.0-6.0-6.30","3454852","co38668","norming","","","{""aha"":2}","[0]","../img/tt/517tt.jpg","",""
"null","<div style=""font-size:60px;""> </div>","null","fixation","html-keyboard-response","223","999809","0.0-6.0-0.31","3454852","co38668","norming","","","","","","",""
"null","../img/tt/1002tt.jpg","null","mooney1","image-keyboard-response","224","1002811","0.0-6.0-1.31","3454852","co38668","norming","","","","","","",""
"6566.000000000116","","","post_mooney1_questions","survey-likert","225","1009380","0.0-6.0-2.31","3454852","co38668","norming","","","{""curiosity"":3,""confidence"":5}","[0,1]","../img/tt/1002tt.jpg","",""
"2786","","","recognition","survey-text","226","1012174","0.0-6.0-3.31","3454852","co38668","norming","","","{""guess"":""olifant""}","","../img/tt/1002tt.jpg","",""
"null","../img/gs/1002gs.jpg","null","reveal","image-keyboard-response","227","1014176","0.0-6.0-4.31","3454852","co38668","norming","","","","","","",""
"null","../img/tt/1002tt.jpg","null","mooney2","image-keyboard-response","228","1016179","0.0-6.0-5.31","3454852","co38668","norming","","","","","","",""
"6634","","","post_reveal_questions","survey-likert","229","1022815","0.0-6.0-6.31","3454852","co38668","norming","","","{""aha"":2}","[0]","../img/tt/1002tt.jpg","",""
"null","<div style=""font-size:60px;""> </div>","null","fixation","html-keyboard-response","230","1023019","0.0-6.0-0.32","3454852","co38668","norming","","","","","","",""
"null","../img/tt/189tt.jpg","null","mooney1","image-keyboard-response","231","1026020","0.0-6.0-1.32","3454852","co38668","norming","","","","","","",""
"5308.000000000116","","","post_mooney1_questions","survey-likert","232","1031331","0.0-6.0-2.32","3454852","co38668","norming","","","{""curiosity"":2,""confidence"":3}","[0,1]","../img/tt/189tt.jpg","",""
"5175","","","recognition","survey-text","233","1036514","0.0-6.0-3.32","3454852","co38668","norming","","","{""guess"":""jongen""}","","../img/tt/189tt.jpg","",""
"null","../img/gs/189gs.jpg","null","reveal","image-keyboard-response","234","1038516","0.0-6.0-4.32","3454852","co38668","norming","","","","","","",""
"null","../img/tt/189tt.jpg","null","mooney2","image-keyboard-response","235","1040518","0.0-6.0-5.32","3454852","co38668","norming","","","","","","",""
"4453","","","post_reveal_questions","survey-likert","236","1044972","0.0-6.0-6.32","3454852","co38668","norming","","","{""aha"":1}","[0]","../img/tt/189tt.jpg","",""
"null","<div style=""font-size:60px;""> </div>","null","fixation","html-keyboard-response","237","1045174","0.0-6.0-0.33","3454852","co38668","norming","","","","","","",""
"null","../img/tt/1275tt.jpg","null","mooney1","image-keyboard-response","238","1048176","0.0-6.0-1.33","3454852","co38668","norming","","","","","","",""
"4550","","","post_mooney1_questions","survey-likert","239","1052727","0.0-6.0-2.33","3454852","co38668","norming","","","{""curiosity"":2,""confidence"":0}","[0,1]","../img/tt/1275tt.jpg","",""
"1389","","","recognition","survey-text","240","1054125","0.0-6.0-3.33","3454852","co38668","norming","","","{""guess"":""""}","","../img/tt/1275tt.jpg","",""
"null","../img/gs/1275gs.jpg","null","reveal","image-keyboard-response","241","1056128","0.0-6.0-4.33","3454852","co38668","norming","","","","","","",""
"null","../img/tt/1275tt.jpg","null","mooney2","image-keyboard-response","242","1058130","0.0-6.0-5.33","3454852","co38668","norming","","","","","","",""
"6136","","","post_reveal_questions","survey-likert","243","1064268","0.0-6.0-6.33","3454852","co38668","norming","","","{""aha"":4}","[0]","../img/tt/1275tt.jpg","",""
"null","<div style=""font-size:60px;""> </div>","null","fixation","html-keyboard-response","244","1064472","0.0-6.0-0.34","3454852","co38668","norming","","","","","","",""
"null","../img/tt/319tt.jpg","null","mooney1","image-keyboard-response","245","1067474","0.0-6.0-1.34","3454852","co38668","norming","","","","","","",""
"4553","","","post_mooney1_questions","survey-likert","246","1072030","0.0-6.0-2.34","3454852","co38668","norming","","","{""curiosity"":2,""confidence"":1}","[0,1]","../img/tt/319tt.jpg","",""
"2616","","","recognition","survey-text","247","1074653","0.0-6.0-3.34","3454852","co38668","norming","","","{""guess"":""""}","","../img/tt/319tt.jpg","",""
"null","../img/gs/319gs.jpg","null","reveal","image-keyboard-response","248","1076655","0.0-6.0-4.34","3454852","co38668","norming","","","","","","",""
"null","../img/tt/319tt.jpg","null","mooney2","image-keyboard-response","249","1078658","0.0-6.0-5.34","3454852","co38668","norming","","","","","","",""
"4122","","","post_reveal_questions","survey-likert","250","1082782","0.0-6.0-6.34","3454852","co38668","norming","","","{""aha"":3}","[0]","../img/tt/319tt.jpg","",""
"null","<div style=""font-size:60px;""> </div>","null","fixation","html-keyboard-response","251","1082985","0.0-6.0-0.35","3454852","co38668","norming","","","","","","",""
"null","../img/tt/091tt.jpg","null","mooney1","image-keyboard-response","252","1085988","0.0-6.0-1.35","3454852","co38668","norming","","","","","","",""
"5642.000000000233","","","post_mooney1_questions","survey-likert","253","1091632","0.0-6.0-2.35","3454852","co38668","norming","","","{""curiosity"":2,""confidence"":0}","[0,1]","../img/tt/091tt.jpg","",""
"1109.0000000002328","","","recognition","survey-text","254","1092747","0.0-6.0-3.35","3454852","co38668","norming","","","{""guess"":""""}","","../img/tt/091tt.jpg","",""
"null","../img/gs/091gs.jpg","null","reveal","image-keyboard-response","255","1094750","0.0-6.0-4.35","3454852","co38668","norming","","","","","","",""
"null","../img/tt/091tt.jpg","null","mooney2","image-keyboard-response","256","1096751","0.0-6.0-5.35","3454852","co38668","norming","","","","","","",""
"2963","","","post_reveal_questions","survey-likert","257","1099716","0.0-6.0-6.35","3454852","co38668","norming","","","{""aha"":2}","[0]","../img/tt/091tt.jpg","",""
"null","<div style=""font-size:60px;""> </div>","null","fixation","html-keyboard-response","258","1099919","0.0-6.0-0.36","3454852","co38668","norming","","","","","","",""
"null","../img/tt/111tt.jpg","null","mooney1","image-keyboard-response","259","1102921","0.0-6.0-1.36","3454852","co38668","norming","","","","","","",""
"6277","","","post_mooney1_questions","survey-likert","260","1109201","0.0-6.0-2.36","3454852","co38668","norming","","","{""curiosity"":2,""confidence"":0}","[0,1]","../img/tt/111tt.jpg","",""
"1138","","","recognition","survey-text","261","1110345","0.0-6.0-3.36","3454852","co38668","norming","","","{""guess"":""""}","","../img/tt/111tt.jpg","",""
"null","../img/gs/111gs.jpg","null","reveal","image-keyboard-response","262","1112347","0.0-6.0-4.36","3454852","co38668","norming","","","","","","",""
"null","../img/tt/111tt.jpg","null","mooney2","image-keyboard-response","263","1114349","0.0-6.0-5.36","3454852","co38668","norming","","","","","","",""
"4919","","","post_reveal_questions","survey-likert","264","1119269","0.0-6.0-6.36","3454852","co38668","norming","","","{""aha"":1}","[0]","../img/tt/111tt.jpg","",""
"null","<div style=""font-size:60px;""> </div>","null","fixation","html-keyboard-response","265","1119472","0.0-6.0-0.37","3454852","co38668","norming","","","","","","",""
"null","../img/tt/1269tt.jpg","null","mooney1","image-keyboard-response","266","1122474","0.0-6.0-1.37","3454852","co38668","norming","","","","","","",""
"9314","","","post_mooney1_questions","survey-likert","267","1131790","0.0-6.0-2.37","3454852","co38668","norming","","","{""curiosity"":3,""confidence"":4}","[0,1]","../img/tt/1269tt.jpg","",""
"1772","","","recognition","survey-text","268","1133570","0.0-6.0-3.37","3454852","co38668","norming","","","{""guess"":""kat""}","","../img/tt/1269tt.jpg","",""
"null","../img/gs/1269gs.jpg","null","reveal","image-keyboard-response","269","1135573","0.0-6.0-4.37","3454852","co38668","norming","","","","","","",""
"null","../img/tt/1269tt.jpg","null","mooney2","image-keyboard-response","270","1137575","0.0-6.0-5.37","3454852","co38668","norming","","","","","","",""
"3054","","","post_reveal_questions","survey-likert","271","1140630","0.0-6.0-6.37","3454852","co38668","norming","","","{""aha"":2}","[0]","../img/tt/1269tt.jpg","",""
"null","<div style=""font-size:60px;""> </div>","null","fixation","html-keyboard-response","272","1140833","0.0-6.0-0.38","3454852","co38668","norming","","","","","","",""
"null","../img/tt/007tt.jpg","null","mooney1","image-keyboard-response","273","1143835","0.0-6.0-1.38","3454852","co38668","norming","","","","","","",""
"5340","","","post_mooney1_questions","survey-likert","274","1149177","0.0-6.0-2.38","3454852","co38668","norming","","","{""curiosity"":2,""confidence"":4}","[0,1]","../img/tt/007tt.jpg","",""
"2489","","","recognition","survey-text","275","1151674","0.0-6.0-3.38","3454852","co38668","norming","","","{""guess"":""mamoet""}","","../img/tt/007tt.jpg","",""
"null","../img/gs/007gs.jpg","null","reveal","image-keyboard-response","276","1153676","0.0-6.0-4.38","3454852","co38668","norming","","","","","","",""
"null","../img/tt/007tt.jpg","null","mooney2","image-keyboard-response","277","1155679","0.0-6.0-5.38","3454852","co38668","norming","","","","","","",""
"4654","","","post_reveal_questions","survey-likert","278","1160335","0.0-6.0-6.38","3454852","co38668","norming","","","{""aha"":1}","[0]","../img/tt/007tt.jpg","",""
"null","<div style=""font-size:60px;""> </div>","null","fixation","html-keyboard-response","279","1160539","0.0-6.0-0.39","3454852","co38668","norming","","","","","","",""
"null","../img/tt/1130tt.jpg","null","mooney1","image-keyboard-response","280","1163541","0.0-6.0-1.39","3454852","co38668","norming","","","","","","",""
"6600","","","post_mooney1_questions","survey-likert","281","1170142","0.0-6.0-2.39","3454852","co38668","norming","","","{""curiosity"":1,""confidence"":5}","[0,1]","../img/tt/1130tt.jpg","",""
"1874","","","recognition","survey-text","282","1172024","0.0-6.0-3.39","3454852","co38668","norming","","","{""guess"":""man""}","","../img/tt/1130tt.jpg","",""
"null","../img/gs/1130gs.jpg","null","reveal","image-keyboard-response","283","1174026","0.0-6.0-4.39","3454852","co38668","norming","","","","","","",""
"null","../img/tt/1130tt.jpg","null","mooney2","image-keyboard-response","284","1176028","0.0-6.0-5.39","3454852","co38668","norming","","","","","","",""
"3952","","","post_reveal_questions","survey-likert","285","1179982","0.0-6.0-6.39","3454852","co38668","norming","","","{""aha"":1}","[0]","../img/tt/1130tt.jpg","",""
"null","<div style=""font-size:60px;""> </div>","null","fixation","html-keyboard-response","286","1180185","0.0-6.0-0.40","3454852","co38668","norming","","","","","","",""
"null","../img/tt/085tt.jpg","null","mooney1","image-keyboard-response","287","1183187","0.0-6.0-1.40","3454852","co38668","norming","","","","","","",""
"6300","","","post_mooney1_questions","survey-likert","288","1189490","0.0-6.0-2.40","3454852","co38668","norming","","","{""curiosity"":1,""confidence"":0}","[0,1]","../img/tt/085tt.jpg","",""
"1212","","","recognition","survey-text","289","1190709","0.0-6.0-3.40","3454852","co38668","norming","","","{""guess"":""""}","","../img/tt/085tt.jpg","",""
"null","../img/gs/085gs.jpg","null","reveal","image-keyboard-response","290","1192711","0.0-6.0-4.40","3454852","co38668","norming","","","","","","",""
"null","../img/tt/085tt.jpg","null","mooney2","image-keyboard-response","291","1194713","0.0-6.0-5.40","3454852","co38668","norming","","","","","","",""
"4732","","","post_reveal_questions","survey-likert","292","1199447","0.0-6.0-6.40","3454852","co38668","norming","","","{""aha"":3}","[0]","../img/tt/085tt.jpg","",""
"null","<div style=""font-size:60px;""> </div>","null","fixation","html-keyboard-response","293","1199649","0.0-6.0-0.41","3454852","co38668","norming","","","","","","",""
"null","../img/tt/052tt.jpg","null","mooney1","image-keyboard-response","294","1202651","0.0-6.0-1.41","3454852","co38668","norming","","","","","","",""
"7125","","","post_mooney1_questions","survey-likert","295","1209779","0.0-6.0-2.41","3454852","co38668","norming","","","{""curiosity"":4,""confidence"":3}","[0,1]","../img/tt/052tt.jpg","",""
"5902","","","recognition","survey-text","296","1215689","0.0-6.0-3.41","3454852","co38668","norming","","","{""guess"":""trommel""}","","../img/tt/052tt.jpg","",""
"null","../img/gs/052gs.jpg","null","reveal","image-keyboard-response","297","1217691","0.0-6.0-4.41","3454852","co38668","norming","","","","","","",""
"null","../img/tt/052tt.jpg","null","mooney2","image-keyboard-response","298","1219693","0.0-6.0-5.41","3454852","co38668","norming","","","","","","",""
"3955","","","post_reveal_questions","survey-likert","299","1223650","0.0-6.0-6.41","3454852","co38668","norming","","","{""aha"":1}","[0]","../img/tt/052tt.jpg","",""
"null","<div style=""font-size:60px;""> </div>","null","fixation","html-keyboard-response","300","1223853","0.0-6.0-0.42","3454852","co38668","norming","","","","","","",""
"null","../img/tt/1272tt.jpg","null","mooney1","image-keyboard-response","301","1226856","0.0-6.0-1.42","3454852","co38668","norming","","","","","","",""
"7092","","","post_mooney1_questions","survey-likert","302","1233950","0.0-6.0-2.42","3454852","co38668","norming","","","{""curiosity"":2,""confidence"":2}","[0,1]","../img/tt/1272tt.jpg","",""
"1734","","","recognition","survey-text","303","1235692","0.0-6.0-3.42","3454852","co38668","norming","","","{""guess"":""kat""}","","../img/tt/1272tt.jpg","",""
"null","../img/gs/1272gs.jpg","null","reveal","image-keyboard-response","304","1237695","0.0-6.0-4.42","3454852","co38668","norming","","","","","","",""
"null","../img/tt/1272tt.jpg","null","mooney2","image-keyboard-response","305","1239697","0.0-6.0-5.42","3454852","co38668","norming","","","","","","",""
"3784.000000000233","","","post_reveal_questions","survey-likert","306","1243483","0.0-6.0-6.42","3454852","co38668","norming","","","{""aha"":1}","[0]","../img/tt/1272tt.jpg","",""
"null","<div style=""font-size:60px;""> </div>","null","fixation","html-keyboard-response","307","1243686","0.0-6.0-0.43","3454852","co38668","norming","","","","","","",""
"null","../img/tt/1290tt.jpg","null","mooney1","image-keyboard-response","308","1246688","0.0-6.0-1.43","3454852","co38668","norming","","","","","","",""
"4265","","","post_mooney1_questions","survey-likert","309","1250956","0.0-6.0-2.43","3454852","co38668","norming","","","{""curiosity"":2,""confidence"":2}","[0,1]","../img/tt/1290tt.jpg","",""
"3285.999999999767","","","recognition","survey-text","310","1254250","0.0-6.0-3.43","3454852","co38668","norming","","","{""guess"":""granaat""}","","../img/tt/1290tt.jpg","",""
"null","../img/gs/1290gs.jpg","null","reveal","image-keyboard-response","311","1256252","0.0-6.0-4.43","3454852","co38668","norming","","","","","","",""
"null","../img/tt/1290tt.jpg","null","mooney2","image-keyboard-response","312","1258254","0.0-6.0-5.43","3454852","co38668","norming","","","","","","",""
"3318","","","post_reveal_questions","survey-likert","313","1261574","0.0-6.0-6.43","3454852","co38668","norming","","","{""aha"":3}","[0]","../img/tt/1290tt.jpg","",""
"null","<div style=""font-size:60px;""> </div>","null","fixation","html-keyboard-response","314","1261777","0.0-6.0-0.44","3454852","co38668","norming","","","","","","",""
"null","../img/tt/534tt.jpg","null","mooney1","image-keyboard-response","315","1264779","0.0-6.0-1.44","3454852","co38668","norming","","","","","","",""
"5222","","","post_mooney1_questions","survey-likert","316","1270003","0.0-6.0-2.44","3454852","co38668","norming","","","{""curiosity"":3,""confidence"":0}","[0,1]","../img/tt/534tt.jpg","",""
"1113.9999999997672","","","recognition","survey-text","317","1271126","0.0-6.0-3.44","3454852","co38668","norming","","","{""guess"":""""}","","../img/tt/534tt.jpg","",""
"null","../img/gs/534gs.jpg","null","reveal","image-keyboard-response","318","1273129","0.0-6.0-4.44","3454852","co38668","norming","","","","","","",""
"null","../img/tt/534tt.jpg","null","mooney2","image-keyboard-response","319","1275131","0.0-6.0-5.44","3454852","co38668","norming","","","","","","",""
"2277","","","post_reveal_questions","survey-likert","320","1277411","0.0-6.0-6.44","3454852","co38668","norming","","","{""aha"":2}","[0]","../img/tt/534tt.jpg","",""
"null","<div style=""font-size:60px;""> </div>","null","fixation","html-keyboard-response","321","1277614","0.0-6.0-0.45","3454852","co38668","norming","","","","","","",""
"null","../img/tt/1278tt.jpg","null","mooney1","image-keyboard-response","322","1280616","0.0-6.0-1.45","3454852","co38668","norming","","","","","","",""
"5894","","","post_mooney1_questions","survey-likert","323","1286513","0.0-6.0-2.45","3454852","co38668","norming","","","{""curiosity"":2,""confidence"":2}","[0,1]","../img/tt/1278tt.jpg","",""
"2313.999999999767","","","recognition","survey-text","324","1288837","0.0-6.0-3.45","3454852","co38668","norming","","","{""guess"":""vtouw""}","","../img/tt/1278tt.jpg","",""
"null","../img/gs/1278gs.jpg","null","reveal","image-keyboard-response","325","1290783","0.0-6.0-4.45","3454852","co38668","norming","","","","","","",""
"null","../img/tt/1278tt.jpg","null","mooney2","image-keyboard-response","326","1292785","0.0-6.0-5.45","3454852","co38668","norming","","","","","","",""
"5052","","","post_reveal_questions","survey-likert","327","1297840","0.0-6.0-6.45","3454852","co38668","norming","","","{""aha"":2}","[0]","../img/tt/1278tt.jpg","",""
"null","<div style=""font-size:60px;""> </div>","null","fixation","html-keyboard-response","328","1298043","0.0-6.0-0.46","3454852","co38668","norming","","","","","","",""
"null","../img/tt/044tt.jpg","null","mooney1","image-keyboard-response","329","1301046","0.0-6.0-1.46","3454852","co38668","norming","","","","","","",""
"5266.000000000233","","","post_mooney1_questions","survey-likert","330","1306314","0.0-6.0-2.46","3454852","co38668","norming","","","{""curiosity"":2,""confidence"":0}","[0,1]","../img/tt/044tt.jpg","",""
"1343","","","recognition","survey-text","331","1307665","0.0-6.0-3.46","3454852","co38668","norming","","","{""guess"":""""}","","../img/tt/044tt.jpg","",""
"null","../img/gs/044gs.jpg","null","reveal","image-keyboard-response","332","1309667","0.0-6.0-4.46","3454852","co38668","norming","","","","","","",""
"null","../img/tt/044tt.jpg","null","mooney2","image-keyboard-response","333","1311670","0.0-6.0-5.46","3454852","co38668","norming","","","","","","",""
"6232","","","post_reveal_questions","survey-likert","334","1317903","0.0-6.0-6.46","3454852","co38668","norming","","","{""aha"":4}","[0]","../img/tt/044tt.jpg","",""
"null","<div style=""font-size:60px;""> </div>","null","fixation","html-keyboard-response","335","1318106","0.0-6.0-0.47","3454852","co38668","norming","","","","","","",""
"null","../img/tt/418tt.jpg","null","mooney1","image-keyboard-response","336","1321108","0.0-6.0-1.47","3454852","co38668","norming","","","","","","",""
"5985","","","post_mooney1_questions","survey-likert","337","1327096","0.0-6.0-2.47","3454852","co38668","norming","","","{""curiosity"":2,""confidence"":3}","[0,1]","../img/tt/418tt.jpg","",""
"3556.000000000233","","","recognition","survey-text","338","1330660","0.0-6.0-3.47","3454852","co38668","norming","","","{""guess"":""buffet""}","","../img/tt/418tt.jpg","",""
"null","../img/gs/418gs.jpg","null","reveal","image-keyboard-response","339","1332663","0.0-6.0-4.47","3454852","co38668","norming","","","","","","",""
"null","../img/tt/418tt.jpg","null","mooney2","image-keyboard-response","340","1334665","0.0-6.0-5.47","3454852","co38668","norming","","","","","","",""
"2989","","","post_reveal_questions","survey-likert","341","1337656","0.0-6.0-6.47","3454852","co38668","norming","","","{""aha"":2}","[0]","../img/tt/418tt.jpg","",""
"null","<div style=""font-size:60px;""> </div>","null","fixation","html-keyboard-response","342","1337861","0.0-6.0-0.48","3454852","co38668","norming","","","","","","",""
"null","../img/tt/1362tt.jpg","null","mooney1","image-keyboard-response","343","1340864","0.0-6.0-1.48","3454852","co38668","norming","","","","","","",""
"6824.000000000233","","","post_mooney1_questions","survey-likert","344","1347690","0.0-6.0-2.48","3454852","co38668","norming","","","{""curiosity"":1,""confidence"":3}","[0,1]","../img/tt/1362tt.jpg","",""
"3318","","","recognition","survey-text","345","1351016","0.0-6.0-3.48","3454852","co38668","norming","","","{""guess"":""pannen""}","","../img/tt/1362tt.jpg","",""
"null","../img/gs/1362gs.jpg","null","reveal","image-keyboard-response","346","1353019","0.0-6.0-4.48","3454852","co38668","norming","","","","","","",""
"null","../img/tt/1362tt.jpg","null","mooney2","image-keyboard-response","347","1355021","0.0-6.0-5.48","3454852","co38668","norming","","","","","","",""
"4170","","","post_reveal_questions","survey-likert","348","1359193","0.0-6.0-6.48","3454852","co38668","norming","","","{""aha"":0}","[0]","../img/tt/1362tt.jpg","",""
"null","<div style=""font-size:60px;""> </div>","null","fixation","html-keyboard-response","349","1359396","0.0-6.0-0.49","3454852","co38668","norming","","","","","","",""
"null","../img/tt/1232tt.jpg","null","mooney1","image-keyboard-response","350","1362398","0.0-6.0-1.49","3454852","co38668","norming","","","","","","",""
"4848.000000000233","","","post_mooney1_questions","survey-likert","351","1367249","0.0-6.0-2.49","3454852","co38668","norming","","","{""curiosity"":1,""confidence"":2}","[0,1]","../img/tt/1232tt.jpg","",""
"5671","","","recognition","survey-text","352","1372927","0.0-6.0-3.49","3454852","co38668","norming","","","{""guess"":""stoep""}","","../img/tt/1232tt.jpg","",""
"null","../img/gs/1232gs.jpg","null","reveal","image-keyboard-response","353","1374930","0.0-6.0-4.49","3454852","co38668","norming","","","","","","",""
"null","../img/tt/1232tt.jpg","null","mooney2","image-keyboard-response","354","1376932","0.0-6.0-5.49","3454852","co38668","norming","","","","","","",""
"3105","","","post_reveal_questions","survey-likert","355","1380039","0.0-6.0-6.49","3454852","co38668","norming","","","{""aha"":2}","[0]","../img/tt/1232tt.jpg","",""
"null","<div style=""font-size:60px;""> </div>","null","fixation","html-keyboard-response","356","1380242","0.0-6.0-0.50","3454852","co38668","norming","","","","","","",""
"null","../img/tt/1268tt.jpg","null","mooney1","image-keyboard-response","357","1383245","0.0-6.0-1.50","3454852","co38668","norming","","","","","","",""
"4578.000000000233","","","post_mooney1_questions","survey-likert","358","1387826","0.0-6.0-2.50","3454852","co38668","norming","","","{""curiosity"":2,""confidence"":0}","[0,1]","../img/tt/1268tt.jpg","",""
"985","","","recognition","survey-text","359","1388819","0.0-6.0-3.50","3454852","co38668","norming","","","{""guess"":""""}","","../img/tt/1268tt.jpg","",""
"null","../img/gs/1268gs.jpg","null","reveal","image-keyboard-response","360","1390821","0.0-6.0-4.50","3454852","co38668","norming","","","","","","",""
"null","../img/tt/1268tt.jpg","null","mooney2","image-keyboard-response","361","1392824","0.0-6.0-5.50","3454852","co38668","norming","","","","","","",""
"4529","","","post_reveal_questions","survey-likert","362","1397355","0.0-6.0-6.50","3454852","co38668","norming","","","{""aha"":1}","[0]","../img/tt/1268tt.jpg","",""
"null","<div style=""font-size:60px;""> </div>","null","fixation","html-keyboard-response","363","1397558","0.0-6.0-0.51","3454852","co38668","norming","","","","","","",""
"null","../img/tt/1033tt.jpg","null","mooney1","image-keyboard-response","364","1400561","0.0-6.0-1.51","3454852","co38668","norming","","","","","","",""
"5797","","","post_mooney1_questions","survey-likert","365","1406360","0.0-6.0-2.51","3454852","co38668","norming","","","{""curiosity"":2,""confidence"":3}","[0,1]","../img/tt/1033tt.jpg","",""
"3687","","","recognition","survey-text","366","1410056","0.0-6.0-3.51","3454852","co38668","norming","","","{""guess"":""jager""}","","../img/tt/1033tt.jpg","",""
"null","../img/gs/1033gs.jpg","null","reveal","image-keyboard-response","367","1412058","0.0-6.0-4.51","3454852","co38668","norming","","","","","","",""
"null","../img/tt/1033tt.jpg","null","mooney2","image-keyboard-response","368","1414061","0.0-6.0-5.51","3454852","co38668","norming","","","","","","",""
"3843","","","post_reveal_questions","survey-likert","369","1417905","0.0-6.0-6.51","3454852","co38668","norming","","","{""aha"":2}","[0]","../img/tt/1033tt.jpg","",""
"null","<div style=""font-size:60px;""> </div>","null","fixation","html-keyboard-response","370","1418108","0.0-6.0-0.52","3454852","co38668","norming","","","","","","",""
"null","../img/tt/096tt.jpg","null","mooney1","image-keyboard-response","371","1421110","0.0-6.0-1.52","3454852","co38668","norming","","","","","","",""
"4879","","","post_mooney1_questions","survey-likert","372","1425991","0.0-6.0-2.52","3454852","co38668","norming","","","{""curiosity"":1,""confidence"":0}","[0,1]","../img/tt/096tt.jpg","",""
"1033","","","recognition","survey-text","373","1427032","0.0-6.0-3.52","3454852","co38668","norming","","","{""guess"":""""}","","../img/tt/096tt.jpg","",""
"null","../img/gs/096gs.jpg","null","reveal","image-keyboard-response","374","1429033","0.0-6.0-4.52","3454852","co38668","norming","","","","","","",""
"null","../img/tt/096tt.jpg","null","mooney2","image-keyboard-response","375","1431035","0.0-6.0-5.52","3454852","co38668","norming","","","","","","",""
"3127","","","post_reveal_questions","survey-likert","376","1434165","0.0-6.0-6.52","3454852","co38668","norming","","","{""aha"":1}","[0]","../img/tt/096tt.jpg","",""
"null","<div style=""font-size:60px;""> </div>","null","fixation","html-keyboard-response","377","1434368","0.0-6.0-0.53","3454852","co38668","norming","","","","","","",""
"null","../img/tt/049tt.jpg","null","mooney1","image-keyboard-response","378","1437370","0.0-6.0-1.53","3454852","co38668","norming","","","","","","",""
"5188","","","post_mooney1_questions","survey-likert","379","1442559","0.0-6.0-2.53","3454852","co38668","norming","","","{""curiosity"":1,""confidence"":0}","[0,1]","../img/tt/049tt.jpg","",""
"1923","","","recognition","survey-text","380","1444490","0.0-6.0-3.53","3454852","co38668","norming","","","{""guess"":""""}","","../img/tt/049tt.jpg","",""
"null","../img/gs/049gs.jpg","null","reveal","image-keyboard-response","381","1446492","0.0-6.0-4.53","3454852","co38668","norming","","","","","","",""
"null","../img/tt/049tt.jpg","null","mooney2","image-keyboard-response","382","1448495","0.0-6.0-5.53","3454852","co38668","norming","","","","","","",""
"2624","","","post_reveal_questions","survey-likert","383","1451120","0.0-6.0-6.53","3454852","co38668","norming","","","{""aha"":1}","[0]","../img/tt/049tt.jpg","",""
"null","<div style=""font-size:60px;""> </div>","null","fixation","html-keyboard-response","384","1451323","0.0-6.0-0.54","3454852","co38668","norming","","","","","","",""
"null","../img/tt/1080tt.jpg","null","mooney1","image-keyboard-response","385","1454324","0.0-6.0-1.54","3454852","co38668","norming","","","","","","",""
"4466","","","post_mooney1_questions","survey-likert","386","1458793","0.0-6.0-2.54","3454852","co38668","norming","","","{""curiosity"":1,""confidence"":0}","[0,1]","../img/tt/1080tt.jpg","",""
"1042","","","recognition","survey-text","387","1459842","0.0-6.0-3.54","3454852","co38668","norming","","","{""guess"":""""}","","../img/tt/1080tt.jpg","",""
"null","../img/gs/1080gs.jpg","null","reveal","image-keyboard-response","388","1461845","0.0-6.0-4.54","3454852","co38668","norming","","","","","","",""
"null","../img/tt/1080tt.jpg","null","mooney2","image-keyboard-response","389","1463847","0.0-6.0-5.54","3454852","co38668","norming","","","","","","",""
"3019","","","post_reveal_questions","survey-likert","390","1466867","0.0-6.0-6.54","3454852","co38668","norming","","","{""aha"":1}","[0]","../img/tt/1080tt.jpg","",""
"null","<div style=""font-size:60px;""> </div>","null","fixation","html-keyboard-response","391","1467070","0.0-6.0-0.55","3454852","co38668","norming","","","","","","",""
"null","../img/tt/603tt.jpg","null","mooney1","image-keyboard-response","392","1470073","0.0-6.0-1.55","3454852","co38668","norming","","","","","","",""
"7098","","","post_mooney1_questions","survey-likert","393","1477174","0.0-6.0-2.55","3454852","co38668","norming","","","{""curiosity"":2,""confidence"":2}","[0,1]","../img/tt/603tt.jpg","",""
"2831","","","recognition","survey-text","394","1480013","0.0-6.0-3.55","3454852","co38668","norming","","","{""guess"":""uil""}","","../img/tt/603tt.jpg","",""
"null","../img/gs/603gs.jpg","null","reveal","image-keyboard-response","395","1482016","0.0-6.0-4.55","3454852","co38668","norming","","","","","","",""
"null","../img/tt/603tt.jpg","null","mooney2","image-keyboard-response","396","1484018","0.0-6.0-5.55","3454852","co38668","norming","","","","","","",""
"3684.000000000233","","","post_reveal_questions","survey-likert","397","1487704","0.0-6.0-6.55","3454852","co38668","norming","","","{""aha"":4}","[0]","../img/tt/603tt.jpg","",""
"null","<div style=""font-size:60px;""> </div>","null","fixation","html-keyboard-response","398","1487907","0.0-6.0-0.56","3454852","co38668","norming","","","","","","",""
"null","../img/tt/1044tt.jpg","null","mooney1","image-keyboard-response","399","1490910","0.0-6.0-1.56","3454852","co38668","norming","","","","","","",""
"13926","","","post_mooney1_questions","survey-likert","400","1504837","0.0-6.0-2.56","3454852","co38668","norming","","","{""curiosity"":2,""confidence"":5}","[0,1]","../img/tt/1044tt.jpg","",""
"9206","","","recognition","survey-text","401","1514052","0.0-6.0-3.56","3454852","co38668","norming","","","{""guess"":""giraf""}","","../img/tt/1044tt.jpg","",""
"null","../img/gs/1044gs.jpg","null","reveal","image-keyboard-response","402","1516054","0.0-6.0-4.56","3454852","co38668","norming","","","","","","",""
"null","../img/tt/1044tt.jpg","null","mooney2","image-keyboard-response","403","1518056","0.0-6.0-5.56","3454852","co38668","norming","","","","","","",""
"18569","","","post_reveal_questions","survey-likert","404","1536626","0.0-6.0-6.56","3454852","co38668","norming","","","{""aha"":4}","[0]","../img/tt/1044tt.jpg","",""
"null","<div style=""font-size:60px;""> </div>","null","fixation","html-keyboard-response","405","1536829","0.0-6.0-0.57","3454852","co38668","norming","","","","","","",""
"null","../img/tt/036tt.jpg","null","mooney1","image-keyboard-response","406","1539832","0.0-6.0-1.57","3454852","co38668","norming","","","","","","",""
"9571","","","post_mooney1_questions","survey-likert","407","1549405","0.0-6.0-2.57","3454852","co38668","norming","","","{""curiosity"":2,""confidence"":0}","[0,1]","../img/tt/036tt.jpg","",""
"2835","","","recognition","survey-text","408","1552248","0.0-6.0-3.57","3454852","co38668","norming","","","{""guess"":""tijger""}","","../img/tt/036tt.jpg","",""
"null","../img/gs/036gs.jpg","null","reveal","image-keyboard-response","409","1554249","0.0-6.0-4.57","3454852","co38668","norming","","","","","","",""
"null","../img/tt/036tt.jpg","null","mooney2","image-keyboard-response","410","1556252","0.0-6.0-5.57","3454852","co38668","norming","","","","","","",""
"4444.999999999767","","","post_reveal_questions","survey-likert","411","1560698","0.0-6.0-6.57","3454852","co38668","norming","","","{""aha"":4}","[0]","../img/tt/036tt.jpg","",""
"null","<div style=""font-size:60px;""> </div>","null","fixation","html-keyboard-response","412","1560901","0.0-6.0-0.58","3454852","co38668","norming","","","","","","",""
"null","../img/tt/1159tt.jpg","null","mooney1","image-keyboard-response","413","1563904","0.0-6.0-1.58","3454852","co38668","norming","","","","","","",""
"14105","","","post_mooney1_questions","survey-likert","414","1578010","0.0-6.0-2.58","3454852","co38668","norming","","","{""curiosity"":4,""confidence"":1}","[0,1]","../img/tt/1159tt.jpg","",""
"2014.0000000002328","","","recognition","survey-text","415","1580033","0.0-6.0-3.58","3454852","co38668","norming","","","{""guess"":""muur""}","","../img/tt/1159tt.jpg","",""
"null","../img/gs/1159gs.jpg","null","reveal","image-keyboard-response","416","1582035","0.0-6.0-4.58","3454852","co38668","norming","","","","","","",""
"null","../img/tt/1159tt.jpg","null","mooney2","image-keyboard-response","417","1584038","0.0-6.0-5.58","3454852","co38668","norming","","","","","","",""
"4486","","","post_reveal_questions","survey-likert","418","1588526","0.0-6.0-6.58","3454852","co38668","norming","","","{""aha"":2}","[0]","../img/tt/1159tt.jpg","",""
"null","<div style=""font-size:60px;""> </div>","null","fixation","html-keyboard-response","419","1588728","0.0-6.0-0.59","3454852","co38668","norming","","","","","","",""
"null","../img/tt/082tt.jpg","null","mooney1","image-keyboard-response","420","1591729","0.0-6.0-1.59","3454852","co38668","norming","","","","","","",""
"7926","","","post_mooney1_questions","survey-likert","421","1599658","0.0-6.0-2.59","3454852","co38668","norming","","","{""curiosity"":4,""confidence"":2}","[0,1]","../img/tt/082tt.jpg","",""
"2651","","","recognition","survey-text","422","1602315","0.0-6.0-3.59","3454852","co38668","norming","","","{""guess"":""circus""}","","../img/tt/082tt.jpg","",""
"null","../img/gs/082gs.jpg","null","reveal","image-keyboard-response","423","1604317","0.0-6.0-4.59","3454852","co38668","norming","","","","","","",""
"null","../img/tt/082tt.jpg","null","mooney2","image-keyboard-response","424","1606319","0.0-6.0-5.59","3454852","co38668","norming","","","","","","",""
"1818","","","post_reveal_questions","survey-likert","425","1608139","0.0-6.0-6.59","3454852","co38668","norming","","","{""aha"":4}","[0]","../img/tt/082tt.jpg","",""
"null","<div style=""font-size:60px;""> </div>","null","fixation","html-keyboard-response","426","1608342","0.0-6.0-0.60","3454852","co38668","norming","","","","","","",""
"null","../img/tt/1237tt.jpg","null","mooney1","image-keyboard-response","427","1611343","0.0-6.0-1.60","3454852","co38668","norming","","","","","","",""
"5632.000000000233","","","post_mooney1_questions","survey-likert","428","1616977","0.0-6.0-2.60","3454852","co38668","norming","","","{""curiosity"":2,""confidence"":4}","[0,1]","../img/tt/1237tt.jpg","",""
"3296","","","recognition","survey-text","429","1620280","0.0-6.0-3.60","3454852","co38668","norming","","","{""guess"":""eend""}","","../img/tt/1237tt.jpg","",""
"null","../img/gs/1237gs.jpg","null","reveal","image-keyboard-response","430","1622283","0.0-6.0-4.60","3454852","co38668","norming","","","","","","",""
"null","../img/tt/1237tt.jpg","null","mooney2","image-keyboard-response","431","1624285","0.0-6.0-5.60","3454852","co38668","norming","","","","","","",""
"4057","","","post_reveal_questions","survey-likert","432","1628343","0.0-6.0-6.60","3454852","co38668","norming","","","{""aha"":3}","[0]","../img/tt/1237tt.jpg","",""
"null","<div style=""font-size:60px;""> </div>","null","fixation","html-keyboard-response","433","1628547","0.0-6.0-0.61","3454852","co38668","norming","","","","","","",""
"null","../img/tt/1072tt.jpg","null","mooney1","image-keyboard-response","434","1631550","0.0-6.0-1.61","3454852","co38668","norming","","","","","","",""
"24056","","","post_mooney1_questions","survey-likert","435","1655608","0.0-6.0-2.61","3454852","co38668","norming","","","{""curiosity"":5,""confidence"":0}","[0,1]","../img/tt/1072tt.jpg","",""
"7145","","","recognition","survey-text","436","1662760","0.0-6.0-3.61","3454852","co38668","norming","","","{""guess"":""luipaard""}","","../img/tt/1072tt.jpg","",""
"null","../img/gs/1072gs.jpg","null","reveal","image-keyboard-response","437","1664762","0.0-6.0-4.61","3454852","co38668","norming","","","","","","",""
"null","../img/tt/1072tt.jpg","null","mooney2","image-keyboard-response","438","1666765","0.0-6.0-5.61","3454852","co38668","norming","","","","","","",""
"4400.999999999767","","","post_reveal_questions","survey-likert","439","1671167","0.0-6.0-6.61","3454852","co38668","norming","","","{""aha"":4}","[0]","../img/tt/1072tt.jpg","",""
"null","<div style=""font-size:60px;""> </div>","null","fixation","html-keyboard-response","440","1671369","0.0-6.0-0.62","3454852","co38668","norming","","","","","","",""
"null","../img/tt/580tt.jpg","null","mooney1","image-keyboard-response","441","1674371","0.0-6.0-1.62","3454852","co38668","norming","","","","","","",""
"6202","","","post_mooney1_questions","survey-likert","442","1680575","0.0-6.0-2.62","3454852","co38668","norming","","","{""curiosity"":4,""confidence"":0}","[0,1]","../img/tt/580tt.jpg","",""
"6453.000000000233","","","recognition","survey-text","443","1687037","0.0-6.0-3.62","3454852","co38668","norming","","","{""guess"":""mevrouw""}","","../img/tt/580tt.jpg","",""
"null","../img/gs/580gs.jpg","null","reveal","image-keyboard-response","444","1689039","0.0-6.0-4.62","3454852","co38668","norming","","","","","","",""
"null","../img/tt/580tt.jpg","null","mooney2","image-keyboard-response","445","1691041","0.0-6.0-5.62","3454852","co38668","norming","","","","","","",""
"6819","","","post_reveal_questions","survey-likert","446","1697862","0.0-6.0-6.62","3454852","co38668","norming","","","{""aha"":3}","[0]","../img/tt/580tt.jpg","",""
"null","<div style=""font-size:60px;""> </div>","null","fixation","html-keyboard-response","447","1698065","0.0-6.0-0.63","3454852","co38668","norming","","","","","","",""
"null","../img/tt/552tt.jpg","null","mooney1","image-keyboard-response","448","1701068","0.0-6.0-1.63","3454852","co38668","norming","","","","","","",""
"9919.000000000233","","","post_mooney1_questions","survey-likert","449","1710989","0.0-6.0-2.63","3454852","co38668","norming","","","{""curiosity"":3,""confidence"":4}","[0,1]","../img/tt/552tt.jpg","",""
"1575","","","recognition","survey-text","450","1712572","0.0-6.0-3.63","3454852","co38668","norming","","","{""guess"":""aap""}","","../img/tt/552tt.jpg","",""
"null","../img/gs/552gs.jpg","null","reveal","image-keyboard-response","451","1714574","0.0-6.0-4.63","3454852","co38668","norming","","","","","","",""
"null","../img/tt/552tt.jpg","null","mooney2","image-keyboard-response","452","1716577","0.0-6.0-5.63","3454852","co38668","norming","","","","","","",""
"3486","","","post_reveal_questions","survey-likert","453","1720064","0.0-6.0-6.63","3454852","co38668","norming","","","{""aha"":4}","[0]","../img/tt/552tt.jpg","",""
"null","<div style=""font-size:60px;""> </div>","null","fixation","html-keyboard-response","454","1720267","0.0-6.0-0.64","3454852","co38668","norming","","","","","","",""
"null","../img/tt/080tt.jpg","null","mooney1","image-keyboard-response","455","1723270","0.0-6.0-1.64","3454852","co38668","norming","","","","","","",""
"11123","","","post_mooney1_questions","survey-likert","456","1734396","0.0-6.0-2.64","3454852","co38668","norming","","","{""curiosity"":5,""confidence"":2}","[0,1]","../img/tt/080tt.jpg","",""
"2156.999999999767","","","recognition","survey-text","457","1736561","0.0-6.0-3.64","3454852","co38668","norming","","","{""guess"":""kikker""}","","../img/tt/080tt.jpg","",""
"null","../img/gs/080gs.jpg","null","reveal","image-keyboard-response","458","1738563","0.0-6.0-4.64","3454852","co38668","norming","","","","","","",""
"null","../img/tt/080tt.jpg","null","mooney2","image-keyboard-response","459","1740565","0.0-6.0-5.64","3454852","co38668","norming","","","","","","",""
"2766.999999999767","","","post_reveal_questions","survey-likert","460","1743333","0.0-6.0-6.64","3454852","co38668","norming","","","{""aha"":5}","[0]","../img/tt/080tt.jpg","",""
"null","<div style=""font-size:60px;""> </div>","null","fixation","html-keyboard-response","461","1743537","0.0-6.0-0.65","3454852","co38668","norming","","","","","","",""
"null","../img/tt/1191tt.jpg","null","mooney1","image-keyboard-response","462","1746539","0.0-6.0-1.65","3454852","co38668","norming","","","","","","",""
"14986","","","post_mooney1_questions","survey-likert","463","1761527","0.0-6.0-2.65","3454852","co38668","norming","","","{""curiosity"":2,""confidence"":2}","[0,1]","../img/tt/1191tt.jpg","",""
"1752","","","recognition","survey-text","464","1763287","0.0-6.0-3.65","3454852","co38668","norming","","","{""guess"":""kameel""}","","../img/tt/1191tt.jpg","",""
"null","../img/gs/1191gs.jpg","null","reveal","image-keyboard-response","465","1765290","0.0-6.0-4.65","3454852","co38668","norming","","","","","","",""
"null","../img/tt/1191tt.jpg","null","mooney2","image-keyboard-response","466","1767293","0.0-6.0-5.65","3454852","co38668","norming","","","","","","",""
"1488","","","post_reveal_questions","survey-likert","467","1768782","0.0-6.0-6.65","3454852","co38668","norming","","","{""aha"":4}","[0]","../img/tt/1191tt.jpg","",""
"null","<div style=""font-size:60px;""> </div>","null","fixation","html-keyboard-response","468","1768985","0.0-6.0-0.66","3454852","co38668","norming","","","","","","",""
"null","../img/tt/1128tt.jpg","null","mooney1","image-keyboard-response","469","1771988","0.0-6.0-1.66","3454852","co38668","norming","","","","","","",""
"9276","","","post_mooney1_questions","survey-likert","470","1781266","0.0-6.0-2.66","3454852","co38668","norming","","","{""curiosity"":2,""confidence"":0}","[0,1]","../img/tt/1128tt.jpg","",""
"2327","","","recognition","survey-text","471","1783601","0.0-6.0-3.66","3454852","co38668","norming","","","{""guess"":""vogel""}","","../img/tt/1128tt.jpg","",""
"null","../img/gs/1128gs.jpg","null","reveal","image-keyboard-response","472","1785603","0.0-6.0-4.66","3454852","co38668","norming","","","","","","",""
"null","../img/tt/1128tt.jpg","null","mooney2","image-keyboard-response","473","1787605","0.0-6.0-5.66","3454852","co38668","norming","","","","","","",""
"7831.999999999767","","","post_reveal_questions","survey-likert","474","1795439","0.0-6.0-6.66","3454852","co38668","norming","","","{""aha"":5}","[0]","../img/tt/1128tt.jpg","",""
"null","<div style=""font-size:60px;""> </div>","null","fixation","html-keyboard-response","475","1795642","0.0-6.0-0.67","3454852","co38668","norming","","","","","","",""
"null","../img/tt/1236tt.jpg","null","mooney1","image-keyboard-response","476","1798645","0.0-6.0-1.67","3454852","co38668","norming","","","","","","",""
"11312","","","post_mooney1_questions","survey-likert","477","1809959","0.0-6.0-2.67","3454852","co38668","norming","","","{""curiosity"":4,""confidence"":2}","[0,1]","../img/tt/1236tt.jpg","",""
"3877","","","recognition","survey-text","478","1813844","0.0-6.0-3.67","3454852","co38668","norming","","","{""guess"":""beek""}","","../img/tt/1236tt.jpg","",""
"null","../img/gs/1236gs.jpg","null","reveal","image-keyboard-response","479","1815847","0.0-6.0-4.67","3454852","co38668","norming","","","","","","",""
"null","../img/tt/1236tt.jpg","null","mooney2","image-keyboard-response","480","1817849","0.0-6.0-5.67","3454852","co38668","norming","","","","","","",""
"2276.000000000233","","","post_reveal_questions","survey-likert","481","1820127","0.0-6.0-6.67","3454852","co38668","norming","","","{""aha"":4}","[0]","../img/tt/1236tt.jpg","",""
"null","<div style=""font-size:60px;""> </div>","null","fixation","html-keyboard-response","482","1820329","0.0-6.0-0.68","3454852","co38668","norming","","","","","","",""
"null","../img/tt/1243tt.jpg","null","mooney1","image-keyboard-response","483","1823332","0.0-6.0-1.68","3454852","co38668","norming","","","","","","",""
"8799","","","post_mooney1_questions","survey-likert","484","1832133","0.0-6.0-2.68","3454852","co38668","norming","","","{""curiosity"":4,""confidence"":3}","[0,1]","../img/tt/1243tt.jpg","",""
"2869","","","recognition","survey-text","485","1835009","0.0-6.0-3.68","3454852","co38668","norming","","","{""guess"":""beer""}","","../img/tt/1243tt.jpg","",""
"null","../img/gs/1243gs.jpg","null","reveal","image-keyboard-response","486","1837011","0.0-6.0-4.68","3454852","co38668","norming","","","","","","",""
"null","../img/tt/1243tt.jpg","null","mooney2","image-keyboard-response","487","1839014","0.0-6.0-5.68","3454852","co38668","norming","","","","","","",""
"5048","","","post_reveal_questions","survey-likert","488","1844064","0.0-6.0-6.68","3454852","co38668","norming","","","{""aha"":2}","[0]","../img/tt/1243tt.jpg","",""
"null","<div style=""font-size:60px;""> </div>","null","fixation","html-keyboard-response","489","1844268","0.0-6.0-0.69","3454852","co38668","norming","","","","","","",""
"null","../img/tt/1251tt.jpg","null","mooney1","image-keyboard-response","490","1847270","0.0-6.0-1.69","3454852","co38668","norming","","","","","","",""
"9804","","","post_mooney1_questions","survey-likert","491","1857077","0.0-6.0-2.69","3454852","co38668","norming","","","{""curiosity"":4,""confidence"":0}","[0,1]","../img/tt/1251tt.jpg","",""
"4202","","","recognition","survey-text","492","1861290","0.0-6.0-3.69","3454852","co38668","norming","","","{""guess"":""beer""}","","../img/tt/1251tt.jpg","",""
"null","../img/gs/1251gs.jpg","null","reveal","image-keyboard-response","493","1863291","0.0-6.0-4.69","3454852","co38668","norming","","","","","","",""
"null","../img/tt/1251tt.jpg","null","mooney2","image-keyboard-response","494","1865293","0.0-6.0-5.69","3454852","co38668","norming","","","","","","",""
"8233","","","post_reveal_questions","survey-likert","495","1873528","0.0-6.0-6.69","3454852","co38668","norming","","","{""aha"":5}","[0]","../img/tt/1251tt.jpg","",""
"null","<div style=""font-size:60px;""> </div>","null","fixation","html-keyboard-response","496","1873730","0.0-6.0-0.70","3454852","co38668","norming","","","","","","",""
"null","../img/tt/1307tt.jpg","null","mooney1","image-keyboard-response","497","1876731","0.0-6.0-1.70","3454852","co38668","norming","","","","","","",""
"5109","","","post_mooney1_questions","survey-likert","498","1881842","0.0-6.0-2.70","3454852","co38668","norming","","","{""curiosity"":4,""confidence"":2}","[0,1]","../img/tt/1307tt.jpg","",""
"2836","","","recognition","survey-text","499","1884685","0.0-6.0-3.70","3454852","co38668","norming","","","{""guess"":""pauw""}","","../img/tt/1307tt.jpg","",""
"null","../img/gs/1307gs.jpg","null","reveal","image-keyboard-response","500","1886688","0.0-6.0-4.70","3454852","co38668","norming","","","","","","",""
"null","../img/tt/1307tt.jpg","null","mooney2","image-keyboard-response","501","1888689","0.0-6.0-5.70","3454852","co38668","norming","","","","","","",""
"2978","","","post_reveal_questions","survey-likert","502","1891668","0.0-6.0-6.70","3454852","co38668","norming","","","{""aha"":5}","[0]","../img/tt/1307tt.jpg","",""
"null","<div style=""font-size:60px;""> </div>","null","fixation","html-keyboard-response","503","1891869","0.0-6.0-0.71","3454852","co38668","norming","","","","","","",""
"null","../img/tt/1127tt.jpg","null","mooney1","image-keyboard-response","504","1894871","0.0-6.0-1.71","3454852","co38668","norming","","","","","","",""
"8512","","","post_mooney1_questions","survey-likert","505","1903386","0.0-6.0-2.71","3454852","co38668","norming","","","{""curiosity"":4,""confidence"":2}","[0,1]","../img/tt/1127tt.jpg","",""
"2416","","","recognition","survey-text","506","1905810","0.0-6.0-3.71","3454852","co38668","norming","","","{""guess"":""persoon""}","","../img/tt/1127tt.jpg","",""
"null","../img/gs/1127gs.jpg","null","reveal","image-keyboard-response","507","1907812","0.0-6.0-4.71","3454852","co38668","norming","","","","","","",""
"null","../img/tt/1127tt.jpg","null","mooney2","image-keyboard-response","508","1909815","0.0-6.0-5.71","3454852","co38668","norming","","","","","","",""
"2183","","","post_reveal_questions","survey-likert","509","1911999","0.0-6.0-6.71","3454852","co38668","norming","","","{""aha"":5}","[0]","../img/tt/1127tt.jpg","",""
"null","<div style=""font-size:60px;""> </div>","null","fixation","html-keyboard-response","510","1912202","0.0-6.0-0.72","3454852","co38668","norming","","","","","","",""
"null","../img/tt/456tt.jpg","null","mooney1","image-keyboard-response","511","1915204","0.0-6.0-1.72","3454852","co38668","norming","","","","","","",""
"6296","","","post_mooney1_questions","survey-likert","512","1921501","0.0-6.0-2.72","3454852","co38668","norming","","","{""curiosity"":4,""confidence"":1}","[0,1]","../img/tt/456tt.jpg","",""
"3539","","","recognition","survey-text","513","1925046","0.0-6.0-3.72","3454852","co38668","norming","","","{""guess"":""krokodil ""}","","../img/tt/456tt.jpg","",""
"null","../img/gs/456gs.jpg","null","reveal","image-keyboard-response","514","1927048","0.0-6.0-4.72","3454852","co38668","norming","","","","","","",""
"null","../img/tt/456tt.jpg","null","mooney2","image-keyboard-response","515","1929051","0.0-6.0-5.72","3454852","co38668","norming","","","","","","",""
"2503","","","post_reveal_questions","survey-likert","516","1931556","0.0-6.0-6.72","3454852","co38668","norming","","","{""aha"":4}","[0]","../img/tt/456tt.jpg","",""
"null","<div style=""font-size:60px;""> </div>","null","fixation","html-keyboard-response","517","1931759","0.0-6.0-0.73","3454852","co38668","norming","","","","","","",""
"null","../img/tt/108tt.jpg","null","mooney1","image-keyboard-response","518","1934761","0.0-6.0-1.73","3454852","co38668","norming","","","","","","",""
"7460","","","post_mooney1_questions","survey-likert","519","1942224","0.0-6.0-2.73","3454852","co38668","norming","","","{""curiosity"":5,""confidence"":0}","[0,1]","../img/tt/108tt.jpg","",""
"6037","","","recognition","survey-text","520","1948268","0.0-6.0-3.73","3454852","co38668","norming","","","{""guess"":""""}","","../img/tt/108tt.jpg","",""
"null","../img/gs/108gs.jpg","null","reveal","image-keyboard-response","521","1950270","0.0-6.0-4.73","3454852","co38668","norming","","","","","","",""
"null","../img/tt/108tt.jpg","null","mooney2","image-keyboard-response","522","1952273","0.0-6.0-5.73","3454852","co38668","norming","","","","","","",""
"3183","","","post_reveal_questions","survey-likert","523","1955458","0.0-6.0-6.73","3454852","co38668","norming","","","{""aha"":4}","[0]","../img/tt/108tt.jpg","",""
"null","<div style=""font-size:60px;""> </div>","null","fixation","html-keyboard-response","524","1955661","0.0-6.0-0.74","3454852","co38668","norming","","","","","","",""
"null","../img/tt/126tt.jpg","null","mooney1","image-keyboard-response","525","1958663","0.0-6.0-1.74","3454852","co38668","norming","","","","","","",""
"6813","","","post_mooney1_questions","survey-likert","526","1965479","0.0-6.0-2.74","3454852","co38668","norming","","","{""curiosity"":2,""confidence"":5}","[0,1]","../img/tt/126tt.jpg","",""
"1436","","","recognition","survey-text","527","1966921","0.0-6.0-3.74","3454852","co38668","norming","","","{""guess"":""koe""}","","../img/tt/126tt.jpg","",""
"null","../img/gs/126gs.jpg","null","reveal","image-keyboard-response","528","1968924","0.0-6.0-4.74","3454852","co38668","norming","","","","","","",""
"null","../img/tt/126tt.jpg","null","mooney2","image-keyboard-response","529","1970926","0.0-6.0-5.74","3454852","co38668","norming","","","","","","",""
"1756","","","post_reveal_questions","survey-likert","530","1972684","0.0-6.0-6.74","3454852","co38668","norming","","","{""aha"":3}","[0]","../img/tt/126tt.jpg","",""
"null","<div style=""font-size:60px;""> </div>","null","fixation","html-keyboard-response","531","1972886","0.0-6.0-0.75","3454852","co38668","norming","","","","","","",""
"null","../img/tt/222tt.jpg","null","mooney1","image-keyboard-response","532","1975888","0.0-6.0-1.75","3454852","co38668","norming","","","","","","",""
"8890.999999999767","","","post_mooney1_questions","survey-likert","533","1984782","0.0-6.0-2.75","3454852","co38668","norming","","","{""curiosity"":4,""confidence"":2}","[0,1]","../img/tt/222tt.jpg","",""
"5892","","","recognition","survey-text","534","1990681","0.0-6.0-3.75","3454852","co38668","norming","","","{""guess"":""bood""}","","../img/tt/222tt.jpg","",""
"null","../img/gs/222gs.jpg","null","reveal","image-keyboard-response","535","1992683","0.0-6.0-4.75","3454852","co38668","norming","","","","","","",""
"null","../img/tt/222tt.jpg","null","mooney2","image-keyboard-response","536","1994685","0.0-6.0-5.75","3454852","co38668","norming","","","","","","",""
"8201","","","post_reveal_questions","survey-likert","537","2002889","0.0-6.0-6.75","3454852","co38668","norming","","","{""aha"":4}","[0]","../img/tt/222tt.jpg","",""
"null","<div style=""font-size:60px;""> </div>","null","fixation","html-keyboard-response","538","2003092","0.0-6.0-0.76","3454852","co38668","norming","","","","","","",""
"null","../img/tt/1122tt.jpg","null","mooney1","image-keyboard-response","539","2006094","0.0-6.0-1.76","3454852","co38668","norming","","","","","","",""
"6436","","","post_mooney1_questions","survey-likert","540","2012532","0.0-6.0-2.76","3454852","co38668","norming","","","{""curiosity"":4,""confidence"":2}","[0,1]","../img/tt/1122tt.jpg","",""
"5963","","","recognition","survey-text","541","2018504","0.0-6.0-3.76","3454852","co38668","norming","","","{""guess"":""racewagen ""}","","../img/tt/1122tt.jpg","",""
"null","../img/gs/1122gs.jpg","null","reveal","image-keyboard-response","542","2020506","0.0-6.0-4.76","3454852","co38668","norming","","","","","","",""
"null","../img/tt/1122tt.jpg","null","mooney2","image-keyboard-response","543","2022509","0.0-6.0-5.76","3454852","co38668","norming","","","","","","",""
"3480","","","post_reveal_questions","survey-likert","544","2025990","0.0-6.0-6.76","3454852","co38668","norming","","","{""aha"":4}","[0]","../img/tt/1122tt.jpg","",""
"null","<div style=""font-size:60px;""> </div>","null","fixation","html-keyboard-response","545","2026193","0.0-6.0-0.77","3454852","co38668","norming","","","","","","",""
"null","../img/tt/405tt.jpg","null","mooney1","image-keyboard-response","546","2029196","0.0-6.0-1.77","3454852","co38668","norming","","","","","","",""
"4823.999999999767","","","post_mooney1_questions","survey-likert","547","2034022","0.0-6.0-2.77","3454852","co38668","norming","","","{""curiosity"":4,""confidence"":2}","[0,1]","../img/tt/405tt.jpg","",""
"1750","","","recognition","survey-text","548","2035779","0.0-6.0-3.77","3454852","co38668","norming","","","{""guess"":""poes""}","","../img/tt/405tt.jpg","",""
"null","../img/gs/405gs.jpg","null","reveal","image-keyboard-response","549","2037782","0.0-6.0-4.77","3454852","co38668","norming","","","","","","",""
"null","../img/tt/405tt.jpg","null","mooney2","image-keyboard-response","550","2039784","0.0-6.0-5.77","3454852","co38668","norming","","","","","","",""
"4676","","","post_reveal_questions","survey-likert","551","2044461","0.0-6.0-6.77","3454852","co38668","norming","","","{""aha"":2}","[0]","../img/tt/405tt.jpg","",""
"null","<div style=""font-size:60px;""> </div>","null","fixation","html-keyboard-response","552","2044664","0.0-6.0-0.78","3454852","co38668","norming","","","","","","",""
"null","../img/tt/1363tt.jpg","null","mooney1","image-keyboard-response","553","2047666","0.0-6.0-1.78","3454852","co38668","norming","","","","","","",""
"9707","","","post_mooney1_questions","survey-likert","554","2057375","0.0-6.0-2.78","3454852","co38668","norming","","","{""curiosity"":4,""confidence"":2}","[0,1]","../img/tt/1363tt.jpg","",""
"2065","","","recognition","survey-text","555","2059448","0.0-6.0-3.78","3454852","co38668","norming","","","{""guess"":""vogel""}","","../img/tt/1363tt.jpg","",""
"null","../img/gs/1363gs.jpg","null","reveal","image-keyboard-response","556","2061450","0.0-6.0-4.78","3454852","co38668","norming","","","","","","",""
"null","../img/tt/1363tt.jpg","null","mooney2","image-keyboard-response","557","2063453","0.0-6.0-5.78","3454852","co38668","norming","","","","","","",""
"4141.000000000233","","","post_reveal_questions","survey-likert","558","2067596","0.0-6.0-6.78","3454852","co38668","norming","","","{""aha"":4}","[0]","../img/tt/1363tt.jpg","",""
"null","<div style=""font-size:60px;""> </div>","null","fixation","html-keyboard-response","559","2067799","0.0-6.0-0.79","3454852","co38668","norming","","","","","","",""
"null","../img/tt/1040tt.jpg","null","mooney1","image-keyboard-response","560","2070802","0.0-6.0-1.79","3454852","co38668","norming","","","","","","",""
"9681.000000000233","","","post_mooney1_questions","survey-likert","561","2080485","0.0-6.0-2.79","3454852","co38668","norming","","","{""curiosity"":2,""confidence"":4}","[0,1]","../img/tt/1040tt.jpg","",""
"2948","","","recognition","survey-text","562","2083441","0.0-6.0-3.79","3454852","co38668","norming","","","{""guess"":""olifant""}","","../img/tt/1040tt.jpg","",""
"null","../img/gs/1040gs.jpg","null","reveal","image-keyboard-response","563","2085442","0.0-6.0-4.79","3454852","co38668","norming","","","","","","",""
"null","../img/tt/1040tt.jpg","null","mooney2","image-keyboard-response","564","2087445","0.0-6.0-5.79","3454852","co38668","norming","","","","","","",""
"5833","","","post_reveal_questions","survey-likert","565","2093279","0.0-6.0-6.79","3454852","co38668","norming","","","{""aha"":4}","[0]","../img/tt/1040tt.jpg","",""
