"rt","stimulus","key_press","test_part","trial_type","trial_index","time_elapsed","internal_node_id","totalTime","subject","experiment_name","button_pressed","success","responses","question_order","currentStim","old","correct"
"5436.045000329614","Welcome to the experiment. This is an online experiment so please don't close the tab/window until we say goodbye.  Press any key to begin.","32","instructions","html-keyboard-response","0","5494","0.0-0.0","2559605","co38284","norming","","","","","","",""
"2234.1499999165535","<div style='word-wrap: break-word; width: 900px'><h3>Please consider this information carefully before deciding whether to participate in this research</h3><ul style='text-align: left; font-size: .8em;'><li><b>Purpose of the research</b>: To examine how people process images.</li><li><b>What you will do in this research</b>:  Stimuli (images) will be presented on the computer and you will be asked different questions about them.</li><li><b>Time required</b>: Participation will take between 45 and 60 minutes to complete.</li><li><b>Risks</b>:  There are no anticipated risks associated with participating in this study. The effects of participating should be comparable to those you would experience from viewing a computer monitor for 30 minutes and using a mouse or keyboard.</li><li><b>Benefits</b>:  This study provides no benefits to you individually except for the credit. The study provides important information about the nature of perception and learning.</li><li><b>Confidentiality</b>:  Your participation in this study will remain confidential. No personally identifiable information will be associated with your data. Your de-identified data may be shared with other researchers and used in future projects.</li><li><b>Participation and withdrawal</b>:  Your participation in this study is completely voluntary and you may refuse to participate or you may choose to withdraw at any time without penalty.</li><li><b>How to contact the researchers</b>: If you have questions or concerns about your participation or payment, or want to request a summary of research findings, please contact Sander Van de Cruys (KU Leuven), at sander.vandecruys@kuleuven.be.</li></ul><p>The nature and purpose of this research have been sufficiently explained and I agree to participate in this study.  I understand that I am free to withdraw at any time without incurring any penalty.</p><p>Please consent by clicking the button below to continue. Otherwise, please exit the study at this time.</p></div>","","instructions","html-button-response","1","7733","0.0-1.0","2559605","co38284","norming","0","","","","","",""
"","","","instructions","fullscreen","2","10280","0.0-2.0","2559605","co38284","norming","","true","","","","",""
"11826.349999755621","","","sona","survey-html-form","3","22112","0.0-3.0","2559605","co38284","norming","","","[{""name"":""sonaid"",""value"":""38284""},{""name"":""debrief"",""value"":""yes""},{""name"":""datajoin"",""value"":""yes""}]","","","",""
"5082.914998754859","<div style='word-wrap: break-word; width: 900px'><h3>Instructions</h3><p>This experiment will have 3 parts. In the first part you will see a series of distorted images like the one below on the left. As you can see in the righthand image, the distorted images are derived from actual photographs. In what follows, you will <strong>briefly</strong> be presented with <strong>only</strong> the distorted image.</p> <div style='float: left; margin-right: 20px;'><img src='../img/018tt.jpg' height='250' width='250'></img></div><div style='float: right; margin-left: 20px;'><img src='../img/018gs.jpg' height='250' width='250'></img></div><p>Subsequently you will be asked a few questions about the image: One question on how <strong>curious</strong> you are about the solution and one on how <strong>confident</strong> you are that you know the solution.</p>Next, we ask you to make a guess on what is in the image. Note that it is OK to name just the <strong>basic level category</strong>. For example when you see a parrot in the image, 'parrot' will obviously be a correct answer but also correct is 'bird'. However, 'animal' will <strong>not</strong> be counted as a correct response. For the example above, 'rose' would be correct or 'flower', but not 'plant'. When soccer players are depicted, 'soccer', 'football', 'soccer players' will be correct, but not 'humans', 'outdoors', or 'sports'. You do not need to describe the image in full, just name the main object in it <strong>in one or two words</strong>. All images depict objects from one of the following broad level categories: animals, inanimate objects, plants, sports, vehicles, and food. Recognizing means knowing <strong>more</strong> than these broad labels for a given image. But we always encourage you to <strong>make a guess</strong> if you can. Note that you are allowed to use <strong>Dutch and English</strong> in your answers, whatever comes easiest for you.</p><p>Press any key to continue.</p></div>","75","instructions","html-keyboard-response","4","27200","0.0-4.0","2559605","co38284","norming","","","","","","",""
"97.43000008165836","<div style='word-wrap: break-word; width: 900px'><h3>Instructions</h3> <p>Next, the solution image will be revealed to you and you'll be asked to indicate how strong your <strong>aha-experience</strong> was after seeing the solution. This describes the positive feeling of the 'click' you sometimes experience, when the pieces of the 'puzzle' fall together and you suddenly have 'insight' in the image.</p><img src='aha.jpg' height='188' width='250'></img><p>Note that there are no right or wrong answers. We are interested in what <strong>you</strong> see in the image and how <strong>you</strong> feel about it.</p><p>Press any key to start the experiment.</p></div>","74","instructions","html-keyboard-response","5","27300","0.0-5.0","2559605","co38284","norming","","","","","","",""
"null","<div style=""font-size:60px;""> </div>","null","fixation","html-keyboard-response","6","27513","0.0-6.0-0.0","2559605","co38284","norming","","","","","","",""
"null","../img/tt/1024tt.jpg","null","mooney1","image-keyboard-response","7","30521","0.0-6.0-1.0","2559605","co38284","norming","","","","","","",""
"4436.645001173019","","","post_mooney1_questions","survey-likert","8","34968","0.0-6.0-2.0","2559605","co38284","norming","","","{""curiosity"":4,""confidence"":2}","[0,1]","../img/tt/1024tt.jpg","",""
"2208.56000110507","","","recognition","survey-text","9","37189","0.0-6.0-3.0","2559605","co38284","norming","","","{""guess"":""tennis""}","","../img/tt/1024tt.jpg","",""
"null","../img/gs/1024gs.jpg","null","reveal","image-keyboard-response","10","39208","0.0-6.0-4.0","2559605","co38284","norming","","","","","","",""
"null","../img/tt/1024tt.jpg","null","mooney2","image-keyboard-response","11","41226","0.0-6.0-5.0","2559605","co38284","norming","","","","","","",""
"3028.2300002872944","","","post_reveal_questions","survey-likert","12","44257","0.0-6.0-6.0","2559605","co38284","norming","","","{""aha"":3}","[0]","../img/tt/1024tt.jpg","",""
"null","<div style=""font-size:60px;""> </div>","null","fixation","html-keyboard-response","13","44479","0.0-6.0-0.1","2559605","co38284","norming","","","","","","",""
"null","../img/tt/079tt.jpg","null","mooney1","image-keyboard-response","14","47484","0.0-6.0-1.1","2559605","co38284","norming","","","","","","",""
"5063.125001266599","","","post_mooney1_questions","survey-likert","15","52550","0.0-6.0-2.1","2559605","co38284","norming","","","{""curiosity"":2,""confidence"":3}","[0,1]","../img/tt/079tt.jpg","",""
"1459.6900008618832","","","recognition","survey-text","16","54019","0.0-6.0-3.1","2559605","co38284","norming","","","{""guess"":""beer""}","","../img/tt/079tt.jpg","",""
"null","../img/gs/079gs.jpg","null","reveal","image-keyboard-response","17","56030","0.0-6.0-4.1","2559605","co38284","norming","","","","","","",""
"null","../img/tt/079tt.jpg","null","mooney2","image-keyboard-response","18","58041","0.0-6.0-5.1","2559605","co38284","norming","","","","","","",""
"3029.330000281334","","","post_reveal_questions","survey-likert","19","61075","0.0-6.0-6.1","2559605","co38284","norming","","","{""aha"":1}","[0]","../img/tt/079tt.jpg","",""
"null","<div style=""font-size:60px;""> </div>","null","fixation","html-keyboard-response","20","61292","0.0-6.0-0.2","2559605","co38284","norming","","","","","","",""
"null","../img/tt/270tt.jpg","null","mooney1","image-keyboard-response","21","64309","0.0-6.0-1.2","2559605","co38284","norming","","","","","","",""
"4466.125000268221","","","post_mooney1_questions","survey-likert","22","68778","0.0-6.0-2.2","2559605","co38284","norming","","","{""curiosity"":4,""confidence"":2}","[0,1]","../img/tt/270tt.jpg","",""
"5444.405000656843","","","recognition","survey-text","23","74230","0.0-6.0-3.2","2559605","co38284","norming","","","{""guess"":""vleermuis""}","","../img/tt/270tt.jpg","",""
"null","../img/gs/270gs.jpg","null","reveal","image-keyboard-response","24","76245","0.0-6.0-4.2","2559605","co38284","norming","","","","","","",""
"null","../img/tt/270tt.jpg","null","mooney2","image-keyboard-response","25","78247","0.0-6.0-5.2","2559605","co38284","norming","","","","","","",""
"4673.680000007153","","","post_reveal_questions","survey-likert","26","82923","0.0-6.0-6.2","2559605","co38284","norming","","","{""aha"":5}","[0]","../img/tt/270tt.jpg","",""
"null","<div style=""font-size:60px;""> </div>","null","fixation","html-keyboard-response","27","83146","0.0-6.0-0.3","2559605","co38284","norming","","","","","","",""
"null","../img/tt/1254tt.jpg","null","mooney1","image-keyboard-response","28","86162","0.0-6.0-1.3","2559605","co38284","norming","","","","","","",""
"4936.285000294447","","","post_mooney1_questions","survey-likert","29","91101","0.0-6.0-2.3","2559605","co38284","norming","","","{""curiosity"":4,""confidence"":2}","[0,1]","../img/tt/1254tt.jpg","",""
"1977.140000090003","","","recognition","survey-text","30","93089","0.0-6.0-3.3","2559605","co38284","norming","","","{""guess"":""konijn""}","","../img/tt/1254tt.jpg","",""
"null","../img/gs/1254gs.jpg","null","reveal","image-keyboard-response","31","95097","0.0-6.0-4.3","2559605","co38284","norming","","","","","","",""
"null","../img/tt/1254tt.jpg","null","mooney2","image-keyboard-response","32","97112","0.0-6.0-5.3","2559605","co38284","norming","","","","","","",""
"2061.209999024868","","","post_reveal_questions","survey-likert","33","99177","0.0-6.0-6.3","2559605","co38284","norming","","","{""aha"":4}","[0]","../img/tt/1254tt.jpg","",""
"null","<div style=""font-size:60px;""> </div>","null","fixation","html-keyboard-response","34","99387","0.0-6.0-0.4","2559605","co38284","norming","","","","","","",""
"null","../img/tt/1235tt.jpg","null","mooney1","image-keyboard-response","35","102405","0.0-6.0-1.4","2559605","co38284","norming","","","","","","",""
"4515.7549995929","","","post_mooney1_questions","survey-likert","36","106925","0.0-6.0-2.4","2559605","co38284","norming","","","{""curiosity"":3,""confidence"":0}","[0,1]","../img/tt/1235tt.jpg","",""
"1421.6350000351667","","","recognition","survey-text","37","108355","0.0-6.0-3.4","2559605","co38284","norming","","","{""guess"":""""}","","../img/tt/1235tt.jpg","",""
"null","../img/gs/1235gs.jpg","null","reveal","image-keyboard-response","38","110358","0.0-6.0-4.4","2559605","co38284","norming","","","","","","",""
"null","../img/tt/1235tt.jpg","null","mooney2","image-keyboard-response","39","112369","0.0-6.0-5.4","2559605","co38284","norming","","","","","","",""
"2455.025000497699","","","post_reveal_questions","survey-likert","40","114827","0.0-6.0-6.4","2559605","co38284","norming","","","{""aha"":4}","[0]","../img/tt/1235tt.jpg","",""
"null","<div style=""font-size:60px;""> </div>","null","fixation","html-keyboard-response","41","115037","0.0-6.0-0.5","2559605","co38284","norming","","","","","","",""
"null","../img/tt/307tt.jpg","null","mooney1","image-keyboard-response","42","118041","0.0-6.0-1.5","2559605","co38284","norming","","","","","","",""
"6155.514998361468","","","post_mooney1_questions","survey-likert","43","124200","0.0-6.0-2.5","2559605","co38284","norming","","","{""curiosity"":4,""confidence"":3}","[0,1]","../img/tt/307tt.jpg","",""
"2556.4500000327826","","","recognition","survey-text","44","126764","0.0-6.0-3.5","2559605","co38284","norming","","","{""guess"":""schildpad""}","","../img/tt/307tt.jpg","",""
"null","../img/gs/307gs.jpg","null","reveal","image-keyboard-response","45","128780","0.0-6.0-4.5","2559605","co38284","norming","","","","","","",""
"null","../img/tt/307tt.jpg","null","mooney2","image-keyboard-response","46","130794","0.0-6.0-5.5","2559605","co38284","norming","","","","","","",""
"2789.6800003945827","","","post_reveal_questions","survey-likert","47","133587","0.0-6.0-6.5","2559605","co38284","norming","","","{""aha"":2}","[0]","../img/tt/307tt.jpg","",""
"null","<div style=""font-size:60px;""> </div>","null","fixation","html-keyboard-response","48","133801","0.0-6.0-0.6","2559605","co38284","norming","","","","","","",""
"null","../img/tt/1004tt.jpg","null","mooney1","image-keyboard-response","49","136809","0.0-6.0-1.6","2559605","co38284","norming","","","","","","",""
"4457.679999992251","","","post_mooney1_questions","survey-likert","50","141271","0.0-6.0-2.6","2559605","co38284","norming","","","{""curiosity"":3,""confidence"":4}","[0,1]","../img/tt/1004tt.jpg","",""
"1790.3150003403425","","","recognition","survey-text","51","143070","0.0-6.0-3.6","2559605","co38284","norming","","","{""guess"":""paard""}","","../img/tt/1004tt.jpg","",""
"null","../img/gs/1004gs.jpg","null","reveal","image-keyboard-response","52","145088","0.0-6.0-4.6","2559605","co38284","norming","","","","","","",""
"null","../img/tt/1004tt.jpg","null","mooney2","image-keyboard-response","53","147090","0.0-6.0-5.6","2559605","co38284","norming","","","","","","",""
"2525.8600004017353","","","post_reveal_questions","survey-likert","54","149620","0.0-6.0-6.6","2559605","co38284","norming","","","{""aha"":4}","[0]","../img/tt/1004tt.jpg","",""
"null","<div style=""font-size:60px;""> </div>","null","fixation","html-keyboard-response","55","149833","0.0-6.0-0.7","2559605","co38284","norming","","","","","","",""
"null","../img/tt/279tt.jpg","null","mooney1","image-keyboard-response","56","152838","0.0-6.0-1.7","2559605","co38284","norming","","","","","","",""
"4692.804999649525","","","post_mooney1_questions","survey-likert","57","157534","0.0-6.0-2.7","2559605","co38284","norming","","","{""curiosity"":5,""confidence"":4}","[0,1]","../img/tt/279tt.jpg","",""
"2110.8999997377396","","","recognition","survey-text","58","159656","0.0-6.0-3.7","2559605","co38284","norming","","","{""guess"":""koala""}","","../img/tt/279tt.jpg","",""
"null","../img/gs/279gs.jpg","null","reveal","image-keyboard-response","59","161671","0.0-6.0-4.7","2559605","co38284","norming","","","","","","",""
"null","../img/tt/279tt.jpg","null","mooney2","image-keyboard-response","60","163677","0.0-6.0-5.7","2559605","co38284","norming","","","","","","",""
"4514.314999803901","","","post_reveal_questions","survey-likert","61","168194","0.0-6.0-6.7","2559605","co38284","norming","","","{""aha"":0}","[0]","../img/tt/279tt.jpg","",""
"null","<div style=""font-size:60px;""> </div>","null","fixation","html-keyboard-response","62","168413","0.0-6.0-0.8","2559605","co38284","norming","","","","","","",""
"null","../img/tt/1126tt.jpg","null","mooney1","image-keyboard-response","63","171416","0.0-6.0-1.8","2559605","co38284","norming","","","","","","",""
"4286.164999008179","","","post_mooney1_questions","survey-likert","64","175707","0.0-6.0-2.8","2559605","co38284","norming","","","{""curiosity"":6,""confidence"":1}","[0,1]","../img/tt/1126tt.jpg","",""
"5581.584999337792","","","recognition","survey-text","65","181283","0.0-6.0-3.8","2559605","co38284","norming","","","{""guess"":""slang""}","","../img/tt/1126tt.jpg","",""
"null","../img/gs/1126gs.jpg","null","reveal","image-keyboard-response","66","183298","0.0-6.0-4.8","2559605","co38284","norming","","","","","","",""
"null","../img/tt/1126tt.jpg","null","mooney2","image-keyboard-response","67","185301","0.0-6.0-5.8","2559605","co38284","norming","","","","","","",""
"2515.7050006091595","","","post_reveal_questions","survey-likert","68","187819","0.0-6.0-6.8","2559605","co38284","norming","","","{""aha"":6}","[0]","../img/tt/1126tt.jpg","",""
"null","<div style=""font-size:60px;""> </div>","null","fixation","html-keyboard-response","69","188031","0.0-6.0-0.9","2559605","co38284","norming","","","","","","",""
"null","../img/tt/1072tt.jpg","null","mooney1","image-keyboard-response","70","191048","0.0-6.0-1.9","2559605","co38284","norming","","","","","","",""
"5784.104999154806","","","post_mooney1_questions","survey-likert","71","196835","0.0-6.0-2.9","2559605","co38284","norming","","","{""curiosity"":6,""confidence"":0}","[0,1]","../img/tt/1072tt.jpg","",""
"802.2699989378452","","","recognition","survey-text","72","197647","0.0-6.0-3.9","2559605","co38284","norming","","","{""guess"":""""}","","../img/tt/1072tt.jpg","",""
"null","../img/gs/1072gs.jpg","null","reveal","image-keyboard-response","73","199659","0.0-6.0-4.9","2559605","co38284","norming","","","","","","",""
"null","../img/tt/1072tt.jpg","null","mooney2","image-keyboard-response","74","201663","0.0-6.0-5.9","2559605","co38284","norming","","","","","","",""
"12973.145000636578","","","post_reveal_questions","survey-likert","75","214639","0.0-6.0-6.9","2559605","co38284","norming","","","{""aha"":3}","[0]","../img/tt/1072tt.jpg","",""
"null","<div style=""font-size:60px;""> </div>","null","fixation","html-keyboard-response","76","214844","0.0-6.0-0.10","2559605","co38284","norming","","","","","","",""
"null","../img/tt/1156tt.jpg","null","mooney1","image-keyboard-response","77","217860","0.0-6.0-1.10","2559605","co38284","norming","","","","","","",""
"4515.114998444915","","","post_mooney1_questions","survey-likert","78","222378","0.0-6.0-2.10","2559605","co38284","norming","","","{""curiosity"":6,""confidence"":1}","[0,1]","../img/tt/1156tt.jpg","",""
"2396.8449998646975","","","recognition","survey-text","79","224791","0.0-6.0-3.10","2559605","co38284","norming","","","{""guess"":""zwemmen""}","","../img/tt/1156tt.jpg","",""
"null","../img/gs/1156gs.jpg","null","reveal","image-keyboard-response","80","226810","0.0-6.0-4.10","2559605","co38284","norming","","","","","","",""
"null","../img/tt/1156tt.jpg","null","mooney2","image-keyboard-response","81","228822","0.0-6.0-5.10","2559605","co38284","norming","","","","","","",""
"2859.6599996089935","","","post_reveal_questions","survey-likert","82","231685","0.0-6.0-6.10","2559605","co38284","norming","","","{""aha"":4}","[0]","../img/tt/1156tt.jpg","",""
"null","<div style=""font-size:60px;""> </div>","null","fixation","html-keyboard-response","83","231900","0.0-6.0-0.11","2559605","co38284","norming","","","","","","",""
"null","../img/tt/060tt.jpg","null","mooney1","image-keyboard-response","84","234903","0.0-6.0-1.11","2559605","co38284","norming","","","","","","",""
"3507.999999448657","","","post_mooney1_questions","survey-likert","85","238415","0.0-6.0-2.11","2559605","co38284","norming","","","{""curiosity"":5,""confidence"":2}","[0,1]","../img/tt/060tt.jpg","",""
"1947.2399987280369","","","recognition","survey-text","86","240376","0.0-6.0-3.11","2559605","co38284","norming","","","{""guess"":""kever""}","","../img/tt/060tt.jpg","",""
"null","../img/gs/060gs.jpg","null","reveal","image-keyboard-response","87","242379","0.0-6.0-4.11","2559605","co38284","norming","","","","","","",""
"null","../img/tt/060tt.jpg","null","mooney2","image-keyboard-response","88","244395","0.0-6.0-5.11","2559605","co38284","norming","","","","","","",""
"3954.2749989777803","","","post_reveal_questions","survey-likert","89","248352","0.0-6.0-6.11","2559605","co38284","norming","","","{""aha"":5}","[0]","../img/tt/060tt.jpg","",""
"null","<div style=""font-size:60px;""> </div>","null","fixation","html-keyboard-response","90","248573","0.0-6.0-0.12","2559605","co38284","norming","","","","","","",""
"null","../img/tt/1143tt.jpg","null","mooney1","image-keyboard-response","91","251580","0.0-6.0-1.12","2559605","co38284","norming","","","","","","",""
"3419.139999896288","","","post_mooney1_questions","survey-likert","92","255003","0.0-6.0-2.12","2559605","co38284","norming","","","{""curiosity"":5,""confidence"":4}","[0,1]","../img/tt/1143tt.jpg","",""
"2414.6250002086163","","","recognition","survey-text","93","257425","0.0-6.0-3.12","2559605","co38284","norming","","","{""guess"":""lopen""}","","../img/tt/1143tt.jpg","",""
"null","../img/gs/1143gs.jpg","null","reveal","image-keyboard-response","94","259439","0.0-6.0-4.12","2559605","co38284","norming","","","","","","",""
"null","../img/tt/1143tt.jpg","null","mooney2","image-keyboard-response","95","261443","0.0-6.0-5.12","2559605","co38284","norming","","","","","","",""
"4601.624999195337","","","post_reveal_questions","survey-likert","96","266047","0.0-6.0-6.12","2559605","co38284","norming","","","{""aha"":5}","[0]","../img/tt/1143tt.jpg","",""
"null","<div style=""font-size:60px;""> </div>","null","fixation","html-keyboard-response","97","266258","0.0-6.0-0.13","2559605","co38284","norming","","","","","","",""
"null","../img/tt/052tt.jpg","null","mooney1","image-keyboard-response","98","269261","0.0-6.0-1.13","2559605","co38284","norming","","","","","","",""
"3775.110000744462","","","post_mooney1_questions","survey-likert","99","273040","0.0-6.0-2.13","2559605","co38284","norming","","","{""curiosity"":5,""confidence"":3}","[0,1]","../img/tt/052tt.jpg","",""
"4163.279999047518","","","recognition","survey-text","100","277212","0.0-6.0-3.13","2559605","co38284","norming","","","{""guess"":""broodje""}","","../img/tt/052tt.jpg","",""
"null","../img/gs/052gs.jpg","null","reveal","image-keyboard-response","101","279220","0.0-6.0-4.13","2559605","co38284","norming","","","","","","",""
"null","../img/tt/052tt.jpg","null","mooney2","image-keyboard-response","102","281223","0.0-6.0-5.13","2559605","co38284","norming","","","","","","",""
"4418.855000287294","","","post_reveal_questions","survey-likert","103","285645","0.0-6.0-6.13","2559605","co38284","norming","","","{""aha"":6}","[0]","../img/tt/052tt.jpg","",""
"null","<div style=""font-size:60px;""> </div>","null","fixation","html-keyboard-response","104","285857","0.0-6.0-0.14","2559605","co38284","norming","","","","","","",""
"null","../img/tt/1127tt.jpg","null","mooney1","image-keyboard-response","105","288865","0.0-6.0-1.14","2559605","co38284","norming","","","","","","",""
"4063.51999938488","","","post_mooney1_questions","survey-likert","106","292933","0.0-6.0-2.14","2559605","co38284","norming","","","{""curiosity"":5,""confidence"":5}","[0,1]","../img/tt/1127tt.jpg","",""
"1680.0849996507168","","","recognition","survey-text","107","294621","0.0-6.0-3.14","2559605","co38284","norming","","","{""guess"":""judo""}","","../img/tt/1127tt.jpg","",""
"null","../img/gs/1127gs.jpg","null","reveal","image-keyboard-response","108","296631","0.0-6.0-4.14","2559605","co38284","norming","","","","","","",""
"null","../img/tt/1127tt.jpg","null","mooney2","image-keyboard-response","109","298634","0.0-6.0-5.14","2559605","co38284","norming","","","","","","",""
"4175.400000065565","","","post_reveal_questions","survey-likert","110","302821","0.0-6.0-6.14","2559605","co38284","norming","","","{""aha"":6}","[0]","../img/tt/1127tt.jpg","",""
"null","<div style=""font-size:60px;""> </div>","null","fixation","html-keyboard-response","111","303034","0.0-6.0-0.15","2559605","co38284","norming","","","","","","",""
"null","../img/tt/044tt.jpg","null","mooney1","image-keyboard-response","112","306069","0.0-6.0-1.15","2559605","co38284","norming","","","","","","",""
"5871.774999424815","","","post_mooney1_questions","survey-likert","113","311944","0.0-6.0-2.15","2559605","co38284","norming","","","{""curiosity"":5,""confidence"":2}","[0,1]","../img/tt/044tt.jpg","",""
"1491.4100002497435","","","recognition","survey-text","114","313444","0.0-6.0-3.15","2559605","co38284","norming","","","{""guess"":""dj""}","","../img/tt/044tt.jpg","",""
"null","../img/gs/044gs.jpg","null","reveal","image-keyboard-response","115","315450","0.0-6.0-4.15","2559605","co38284","norming","","","","","","",""
"null","../img/tt/044tt.jpg","null","mooney2","image-keyboard-response","116","317459","0.0-6.0-5.15","2559605","co38284","norming","","","","","","",""
"3517.6849998533726","","","post_reveal_questions","survey-likert","117","320979","0.0-6.0-6.15","2559605","co38284","norming","","","{""aha"":6}","[0]","../img/tt/044tt.jpg","",""
"null","<div style=""font-size:60px;""> </div>","null","fixation","html-keyboard-response","118","321193","0.0-6.0-0.16","2559605","co38284","norming","","","","","","",""
"null","../img/tt/1191tt.jpg","null","mooney1","image-keyboard-response","119","324207","0.0-6.0-1.16","2559605","co38284","norming","","","","","","",""
"5200.530000030994","","","post_mooney1_questions","survey-likert","120","329411","0.0-6.0-2.16","2559605","co38284","norming","","","{""curiosity"":5,""confidence"":4}","[0,1]","../img/tt/1191tt.jpg","",""
"2011.6949994117022","","","recognition","survey-text","121","331431","0.0-6.0-3.16","2559605","co38284","norming","","","{""guess"":""dansen""}","","../img/tt/1191tt.jpg","",""
"null","../img/gs/1191gs.jpg","null","reveal","image-keyboard-response","122","333441","0.0-6.0-4.16","2559605","co38284","norming","","","","","","",""
"null","../img/tt/1191tt.jpg","null","mooney2","image-keyboard-response","123","335457","0.0-6.0-5.16","2559605","co38284","norming","","","","","","",""
"2531.859999522567","","","post_reveal_questions","survey-likert","124","337992","0.0-6.0-6.16","2559605","co38284","norming","","","{""aha"":6}","[0]","../img/tt/1191tt.jpg","",""
"null","<div style=""font-size:60px;""> </div>","null","fixation","html-keyboard-response","125","338207","0.0-6.0-0.17","2559605","co38284","norming","","","","","","",""
"null","../img/tt/1278tt.jpg","null","mooney1","image-keyboard-response","126","341225","0.0-6.0-1.17","2559605","co38284","norming","","","","","","",""
"4764.419998973608","","","post_mooney1_questions","survey-likert","127","345993","0.0-6.0-2.17","2559605","co38284","norming","","","{""curiosity"":6,""confidence"":0}","[0,1]","../img/tt/1278tt.jpg","",""
"1579.9749996513128","","","recognition","survey-text","128","347585","0.0-6.0-3.17","2559605","co38284","norming","","","{""guess"":""""}","","../img/tt/1278tt.jpg","",""
"null","../img/gs/1278gs.jpg","null","reveal","image-keyboard-response","129","349589","0.0-6.0-4.17","2559605","co38284","norming","","","","","","",""
"null","../img/tt/1278tt.jpg","null","mooney2","image-keyboard-response","130","351598","0.0-6.0-5.17","2559605","co38284","norming","","","","","","",""
"1957.7799998223782","","","post_reveal_questions","survey-likert","131","353559","0.0-6.0-6.17","2559605","co38284","norming","","","{""aha"":6}","[0]","../img/tt/1278tt.jpg","",""
"null","<div style=""font-size:60px;""> </div>","null","fixation","html-keyboard-response","132","353773","0.0-6.0-0.18","2559605","co38284","norming","","","","","","",""
"null","../img/tt/515tt.jpg","null","mooney1","image-keyboard-response","133","356785","0.0-6.0-1.18","2559605","co38284","norming","","","","","","",""
"4909.605000168085","","","post_mooney1_questions","survey-likert","134","361692","0.0-6.0-2.18","2559605","co38284","norming","","","{""curiosity"":4,""confidence"":2}","[0,1]","../img/tt/515tt.jpg","",""
"1515.5100002884865","","","recognition","survey-text","135","363217","0.0-6.0-3.18","2559605","co38284","norming","","","{""guess"":""vogle""}","","../img/tt/515tt.jpg","",""
"null","../img/gs/515gs.jpg","null","reveal","image-keyboard-response","136","365234","0.0-6.0-4.18","2559605","co38284","norming","","","","","","",""
"null","../img/tt/515tt.jpg","null","mooney2","image-keyboard-response","137","367249","0.0-6.0-5.18","2559605","co38284","norming","","","","","","",""
"2543.315000832081","","","post_reveal_questions","survey-likert","138","369795","0.0-6.0-6.18","2559605","co38284","norming","","","{""aha"":2}","[0]","../img/tt/515tt.jpg","",""
"null","<div style=""font-size:60px;""> </div>","null","fixation","html-keyboard-response","139","370015","0.0-6.0-0.19","2559605","co38284","norming","","","","","","",""
"null","../img/tt/163tt.jpg","null","mooney1","image-keyboard-response","140","373018","0.0-6.0-1.19","2559605","co38284","norming","","","","","","",""
"3719.835000112653","","","post_mooney1_questions","survey-likert","141","376742","0.0-6.0-2.19","2559605","co38284","norming","","","{""curiosity"":5,""confidence"":5}","[0,1]","../img/tt/163tt.jpg","",""
"1911.574998870492","","","recognition","survey-text","142","378663","0.0-6.0-3.19","2559605","co38284","norming","","","{""guess"":""kikker""}","","../img/tt/163tt.jpg","",""
"null","../img/gs/163gs.jpg","null","reveal","image-keyboard-response","143","380681","0.0-6.0-4.19","2559605","co38284","norming","","","","","","",""
"null","../img/tt/163tt.jpg","null","mooney2","image-keyboard-response","144","382713","0.0-6.0-5.19","2559605","co38284","norming","","","","","","",""
"2326.9299995154142","","","post_reveal_questions","survey-likert","145","385042","0.0-6.0-6.19","2559605","co38284","norming","","","{""aha"":2}","[0]","../img/tt/163tt.jpg","",""
"null","<div style=""font-size:60px;""> </div>","null","fixation","html-keyboard-response","146","385247","0.0-6.0-0.20","2559605","co38284","norming","","","","","","",""
"null","../img/tt/091tt.jpg","null","mooney1","image-keyboard-response","147","388263","0.0-6.0-1.20","2559605","co38284","norming","","","","","","",""
"4242.404999211431","","","post_mooney1_questions","survey-likert","148","392510","0.0-6.0-2.20","2559605","co38284","norming","","","{""curiosity"":6,""confidence"":0}","[0,1]","../img/tt/091tt.jpg","",""
"916.4249990135431","","","recognition","survey-text","149","393491","0.0-6.0-3.20","2559605","co38284","norming","","","{""guess"":""""}","","../img/tt/091tt.jpg","",""
"null","../img/gs/091gs.jpg","null","reveal","image-keyboard-response","150","395507","0.0-6.0-4.20","2559605","co38284","norming","","","","","","",""
"null","../img/tt/091tt.jpg","null","mooney2","image-keyboard-response","151","397521","0.0-6.0-5.20","2559605","co38284","norming","","","","","","",""
"3926.714999601245","","","post_reveal_questions","survey-likert","152","401450","0.0-6.0-6.20","2559605","co38284","norming","","","{""aha"":0}","[0]","../img/tt/091tt.jpg","",""
"null","<div style=""font-size:60px;""> </div>","null","fixation","html-keyboard-response","153","401658","0.0-6.0-0.21","2559605","co38284","norming","","","","","","",""
"null","../img/tt/1283tt.jpg","null","mooney1","image-keyboard-response","154","404665","0.0-6.0-1.21","2559605","co38284","norming","","","","","","",""
"4567.370001226664","","","post_mooney1_questions","survey-likert","155","409237","0.0-6.0-2.21","2559605","co38284","norming","","","{""curiosity"":4,""confidence"":0}","[0,1]","../img/tt/1283tt.jpg","",""
"817.1050008386374","","","recognition","survey-text","156","410063","0.0-6.0-3.21","2559605","co38284","norming","","","{""guess"":""""}","","../img/tt/1283tt.jpg","",""
"null","../img/gs/1283gs.jpg","null","reveal","image-keyboard-response","157","412078","0.0-6.0-4.21","2559605","co38284","norming","","","","","","",""
"null","../img/tt/1283tt.jpg","null","mooney2","image-keyboard-response","158","414116","0.0-6.0-5.21","2559605","co38284","norming","","","","","","",""
"4075.9999994188547","","","post_reveal_questions","survey-likert","159","418196","0.0-6.0-6.21","2559605","co38284","norming","","","{""aha"":4}","[0]","../img/tt/1283tt.jpg","",""
"null","<div style=""font-size:60px;""> </div>","null","fixation","html-keyboard-response","160","418409","0.0-6.0-0.22","2559605","co38284","norming","","","","","","",""
"null","../img/tt/105tt.jpg","null","mooney1","image-keyboard-response","161","421412","0.0-6.0-1.22","2559605","co38284","norming","","","","","","",""
"5503.039998933673","","","post_mooney1_questions","survey-likert","162","426920","0.0-6.0-2.22","2559605","co38284","norming","","","{""curiosity"":4,""confidence"":5}","[0,1]","../img/tt/105tt.jpg","",""
"3776.0499995201826","","","recognition","survey-text","163","430708","0.0-6.0-3.22","2559605","co38284","norming","","","{""guess"":""paperclip""}","","../img/tt/105tt.jpg","",""
"null","../img/gs/105gs.jpg","null","reveal","image-keyboard-response","164","432713","0.0-6.0-4.22","2559605","co38284","norming","","","","","","",""
"null","../img/tt/105tt.jpg","null","mooney2","image-keyboard-response","165","434731","0.0-6.0-5.22","2559605","co38284","norming","","","","","","",""
"3578.440001234412","","","post_reveal_questions","survey-likert","166","438312","0.0-6.0-6.22","2559605","co38284","norming","","","{""aha"":2}","[0]","../img/tt/105tt.jpg","",""
"null","<div style=""font-size:60px;""> </div>","null","fixation","html-keyboard-response","167","438524","0.0-6.0-0.23","2559605","co38284","norming","","","","","","",""
"null","../img/tt/135tt.jpg","null","mooney1","image-keyboard-response","168","441534","0.0-6.0-1.23","2559605","co38284","norming","","","","","","",""
"4006.4150001853704","","","post_mooney1_questions","survey-likert","169","445544","0.0-6.0-2.23","2559605","co38284","norming","","","{""curiosity"":4,""confidence"":3}","[0,1]","../img/tt/135tt.jpg","",""
"1426.9900005310774","","","recognition","survey-text","170","446987","0.0-6.0-3.23","2559605","co38284","norming","","","{""guess"":""ring""}","","../img/tt/135tt.jpg","",""
"null","../img/gs/135gs.jpg","null","reveal","image-keyboard-response","171","448995","0.0-6.0-4.23","2559605","co38284","norming","","","","","","",""
"null","../img/tt/135tt.jpg","null","mooney2","image-keyboard-response","172","451009","0.0-6.0-5.23","2559605","co38284","norming","","","","","","",""
"2930.7549986988306","","","post_reveal_questions","survey-likert","173","453942","0.0-6.0-6.23","2559605","co38284","norming","","","{""aha"":3}","[0]","../img/tt/135tt.jpg","",""
"null","<div style=""font-size:60px;""> </div>","null","fixation","html-keyboard-response","174","454156","0.0-6.0-0.24","2559605","co38284","norming","","","","","","",""
"null","../img/tt/1097tt.jpg","null","mooney1","image-keyboard-response","175","457162","0.0-6.0-1.24","2559605","co38284","norming","","","","","","",""
"6781.015001237392","","","post_mooney1_questions","survey-likert","176","463948","0.0-6.0-2.24","2559605","co38284","norming","","","{""curiosity"":6,""confidence"":3}","[0,1]","../img/tt/1097tt.jpg","",""
"1941.499998793006","","","recognition","survey-text","177","465899","0.0-6.0-3.24","2559605","co38284","norming","","","{""guess"":""honkbal""}","","../img/tt/1097tt.jpg","",""
"null","../img/gs/1097gs.jpg","null","reveal","image-keyboard-response","178","467906","0.0-6.0-4.24","2559605","co38284","norming","","","","","","",""
"null","../img/tt/1097tt.jpg","null","mooney2","image-keyboard-response","179","469924","0.0-6.0-5.24","2559605","co38284","norming","","","","","","",""
"2590.7399989664555","","","post_reveal_questions","survey-likert","180","472517","0.0-6.0-6.24","2559605","co38284","norming","","","{""aha"":6}","[0]","../img/tt/1097tt.jpg","",""
"null","<div style=""font-size:60px;""> </div>","null","fixation","html-keyboard-response","181","472726","0.0-6.0-0.25","2559605","co38284","norming","","","","","","",""
"null","../img/tt/121tt.jpg","null","mooney1","image-keyboard-response","182","475734","0.0-6.0-1.25","2559605","co38284","norming","","","","","","",""
"3781.8149998784065","","","post_mooney1_questions","survey-likert","183","479522","0.0-6.0-2.25","2559605","co38284","norming","","","{""curiosity"":5,""confidence"":1}","[0,1]","../img/tt/121tt.jpg","",""
"1885.2349985390902","","","recognition","survey-text","184","481417","0.0-6.0-3.25","2559605","co38284","norming","","","{""guess"":""springen""}","","../img/tt/121tt.jpg","",""
"null","../img/gs/121gs.jpg","null","reveal","image-keyboard-response","185","483440","0.0-6.0-4.25","2559605","co38284","norming","","","","","","",""
"null","../img/tt/121tt.jpg","null","mooney2","image-keyboard-response","186","485443","0.0-6.0-5.25","2559605","co38284","norming","","","","","","",""
"3914.495000615716","","","post_reveal_questions","survey-likert","187","489363","0.0-6.0-6.25","2559605","co38284","norming","","","{""aha"":6}","[0]","../img/tt/121tt.jpg","",""
"null","<div style=""font-size:60px;""> </div>","null","fixation","html-keyboard-response","188","489585","0.0-6.0-0.26","2559605","co38284","norming","","","","","","",""
"null","../img/tt/1123tt.jpg","null","mooney1","image-keyboard-response","189","492589","0.0-6.0-1.26","2559605","co38284","norming","","","","","","",""
"7789.224999025464","","","post_mooney1_questions","survey-likert","190","500383","0.0-6.0-2.26","2559605","co38284","norming","","","{""curiosity"":5,""confidence"":2}","[0,1]","../img/tt/1123tt.jpg","",""
"5612.789999693632","","","recognition","survey-text","191","506007","0.0-6.0-3.26","2559605","co38284","norming","","","{""guess"":""sport""}","","../img/tt/1123tt.jpg","",""
"null","../img/gs/1123gs.jpg","null","reveal","image-keyboard-response","192","508014","0.0-6.0-4.26","2559605","co38284","norming","","","","","","",""
"null","../img/tt/1123tt.jpg","null","mooney2","image-keyboard-response","193","510040","0.0-6.0-5.26","2559605","co38284","norming","","","","","","",""
"4639.699999243021","","","post_reveal_questions","survey-likert","194","514682","0.0-6.0-6.26","2559605","co38284","norming","","","{""aha"":4}","[0]","../img/tt/1123tt.jpg","",""
"null","<div style=""font-size:60px;""> </div>","null","fixation","html-keyboard-response","195","514889","0.0-6.0-0.27","2559605","co38284","norming","","","","","","",""
"null","../img/tt/1070tt.jpg","null","mooney1","image-keyboard-response","196","517900","0.0-6.0-1.27","2559605","co38284","norming","","","","","","",""
"3981.939999386668","","","post_mooney1_questions","survey-likert","197","521886","0.0-6.0-2.27","2559605","co38284","norming","","","{""curiosity"":4,""confidence"":2}","[0,1]","../img/tt/1070tt.jpg","",""
"1793.4550009667873","","","recognition","survey-text","198","523692","0.0-6.0-3.27","2559605","co38284","norming","","","{""guess"":""broodje""}","","../img/tt/1070tt.jpg","",""
"null","../img/gs/1070gs.jpg","null","reveal","image-keyboard-response","199","525701","0.0-6.0-4.27","2559605","co38284","norming","","","","","","",""
"null","../img/tt/1070tt.jpg","null","mooney2","image-keyboard-response","200","527713","0.0-6.0-5.27","2559605","co38284","norming","","","","","","",""
"2335.9500002115965","","","post_reveal_questions","survey-likert","201","530053","0.0-6.0-6.27","2559605","co38284","norming","","","{""aha"":6}","[0]","../img/tt/1070tt.jpg","",""
"null","<div style=""font-size:60px;""> </div>","null","fixation","html-keyboard-response","202","530268","0.0-6.0-0.28","2559605","co38284","norming","","","","","","",""
"null","../img/tt/049tt.jpg","null","mooney1","image-keyboard-response","203","533276","0.0-6.0-1.28","2559605","co38284","norming","","","","","","",""
"4500.269999727607","","","post_mooney1_questions","survey-likert","204","537783","0.0-6.0-2.28","2559605","co38284","norming","","","{""curiosity"":5,""confidence"":2}","[0,1]","../img/tt/049tt.jpg","",""
"1568.5699991881847","","","recognition","survey-text","205","539362","0.0-6.0-3.28","2559605","co38284","norming","","","{""guess"":""kikker""}","","../img/tt/049tt.jpg","",""
"null","../img/gs/049gs.jpg","null","reveal","image-keyboard-response","206","541367","0.0-6.0-4.28","2559605","co38284","norming","","","","","","",""
"null","../img/tt/049tt.jpg","null","mooney2","image-keyboard-response","207","543369","0.0-6.0-5.28","2559605","co38284","norming","","","","","","",""
"2020.4700008034706","","","post_reveal_questions","survey-likert","208","545394","0.0-6.0-6.28","2559605","co38284","norming","","","{""aha"":5}","[0]","../img/tt/049tt.jpg","",""
"null","<div style=""font-size:60px;""> </div>","null","fixation","html-keyboard-response","209","545615","0.0-6.0-0.29","2559605","co38284","norming","","","","","","",""
"null","../img/tt/1241tt.jpg","null","mooney1","image-keyboard-response","210","548633","0.0-6.0-1.29","2559605","co38284","norming","","","","","","",""
"6029.6499989926815","","","post_mooney1_questions","survey-likert","211","554666","0.0-6.0-2.29","2559605","co38284","norming","","","{""curiosity"":1,""confidence"":1}","[0,1]","../img/tt/1241tt.jpg","",""
"1273.769998922944","","","recognition","survey-text","212","555948","0.0-6.0-3.29","2559605","co38284","norming","","","{""guess"":""""}","","../img/tt/1241tt.jpg","",""
"null","../img/gs/1241gs.jpg","null","reveal","image-keyboard-response","213","557961","0.0-6.0-4.29","2559605","co38284","norming","","","","","","",""
"null","../img/tt/1241tt.jpg","null","mooney2","image-keyboard-response","214","559970","0.0-6.0-5.29","2559605","co38284","norming","","","","","","",""
"10851.47999972105","","","post_reveal_questions","survey-likert","215","570825","0.0-6.0-6.29","2559605","co38284","norming","","","{""aha"":3}","[0]","../img/tt/1241tt.jpg","",""
"null","<div style=""font-size:60px;""> </div>","null","fixation","html-keyboard-response","216","571036","0.0-6.0-0.30","2559605","co38284","norming","","","","","","",""
"null","../img/tt/1200tt.jpg","null","mooney1","image-keyboard-response","217","574051","0.0-6.0-1.30","2559605","co38284","norming","","","","","","",""
"4060.905000194907","","","post_mooney1_questions","survey-likert","218","578116","0.0-6.0-2.30","2559605","co38284","norming","","","{""curiosity"":3,""confidence"":0}","[0,1]","../img/tt/1200tt.jpg","",""
"740.2400001883507","","","recognition","survey-text","219","578866","0.0-6.0-3.30","2559605","co38284","norming","","","{""guess"":""""}","","../img/tt/1200tt.jpg","",""
"null","../img/gs/1200gs.jpg","null","reveal","image-keyboard-response","220","580881","0.0-6.0-4.30","2559605","co38284","norming","","","","","","",""
"null","../img/tt/1200tt.jpg","null","mooney2","image-keyboard-response","221","582892","0.0-6.0-5.30","2559605","co38284","norming","","","","","","",""
"3926.3799991458654","","","post_reveal_questions","survey-likert","222","586823","0.0-6.0-6.30","2559605","co38284","norming","","","{""aha"":5}","[0]","../img/tt/1200tt.jpg","",""
"null","<div style=""font-size:60px;""> </div>","null","fixation","html-keyboard-response","223","587028","0.0-6.0-0.31","2559605","co38284","norming","","","","","","",""
"null","../img/tt/300tt.jpg","null","mooney1","image-keyboard-response","224","590031","0.0-6.0-1.31","2559605","co38284","norming","","","","","","",""
"3915.6350009143353","","","post_mooney1_questions","survey-likert","225","593950","0.0-6.0-2.31","2559605","co38284","norming","","","{""curiosity"":3,""confidence"":3}","[0,1]","../img/tt/300tt.jpg","",""
"1095.7650002092123","","","recognition","survey-text","226","595056","0.0-6.0-3.31","2559605","co38284","norming","","","{""guess"":""aap""}","","../img/tt/300tt.jpg","",""
"null","../img/gs/300gs.jpg","null","reveal","image-keyboard-response","227","597061","0.0-6.0-4.31","2559605","co38284","norming","","","","","","",""
"null","../img/tt/300tt.jpg","null","mooney2","image-keyboard-response","228","599077","0.0-6.0-5.31","2559605","co38284","norming","","","","","","",""
"6388.3350007236","","","post_reveal_questions","survey-likert","229","605469","0.0-6.0-6.31","2559605","co38284","norming","","","{""aha"":6}","[0]","../img/tt/300tt.jpg","",""
"null","<div style=""font-size:60px;""> </div>","null","fixation","html-keyboard-response","230","605677","0.0-6.0-0.32","2559605","co38284","norming","","","","","","",""
"null","../img/tt/194tt.jpg","null","mooney1","image-keyboard-response","231","608681","0.0-6.0-1.32","2559605","co38284","norming","","","","","","",""
"7203.734999522567","","","post_mooney1_questions","survey-likert","232","615887","0.0-6.0-2.32","2559605","co38284","norming","","","{""curiosity"":5,""confidence"":4}","[0,1]","../img/tt/194tt.jpg","",""
"4900.074999779463","","","recognition","survey-text","233","620797","0.0-6.0-3.32","2559605","co38284","norming","","","{""guess"":""instrument bespelen""}","","../img/tt/194tt.jpg","",""
"null","../img/gs/194gs.jpg","null","reveal","image-keyboard-response","234","622812","0.0-6.0-4.32","2559605","co38284","norming","","","","","","",""
"null","../img/tt/194tt.jpg","null","mooney2","image-keyboard-response","235","624814","0.0-6.0-5.32","2559605","co38284","norming","","","","","","",""
"2814.40999917686","","","post_reveal_questions","survey-likert","236","627632","0.0-6.0-6.32","2559605","co38284","norming","","","{""aha"":3}","[0]","../img/tt/194tt.jpg","",""
"null","<div style=""font-size:60px;""> </div>","null","fixation","html-keyboard-response","237","627840","0.0-6.0-0.33","2559605","co38284","norming","","","","","","",""
"null","../img/tt/1080tt.jpg","null","mooney1","image-keyboard-response","238","630843","0.0-6.0-1.33","2559605","co38284","norming","","","","","","",""
"4548.975000157952","","","post_mooney1_questions","survey-likert","239","635395","0.0-6.0-2.33","2559605","co38284","norming","","","{""curiosity"":3,""confidence"":2}","[0,1]","../img/tt/1080tt.jpg","",""
"3323.045000433922","","","recognition","survey-text","240","638736","0.0-6.0-3.33","2559605","co38284","norming","","","{""guess"":""zwemmen""}","","../img/tt/1080tt.jpg","",""
"null","../img/gs/1080gs.jpg","null","reveal","image-keyboard-response","241","640751","0.0-6.0-4.33","2559605","co38284","norming","","","","","","",""
"null","../img/tt/1080tt.jpg","null","mooney2","image-keyboard-response","242","642765","0.0-6.0-5.33","2559605","co38284","norming","","","","","","",""
"2364.225000143051","","","post_reveal_questions","survey-likert","243","645132","0.0-6.0-6.33","2559605","co38284","norming","","","{""aha"":5}","[0]","../img/tt/1080tt.jpg","",""
"null","<div style=""font-size:60px;""> </div>","null","fixation","html-keyboard-response","244","645338","0.0-6.0-0.34","2559605","co38284","norming","","","","","","",""
"null","../img/tt/598tt.jpg","null","mooney1","image-keyboard-response","245","648349","0.0-6.0-1.34","2559605","co38284","norming","","","","","","",""
"4286.22000105679","","","post_mooney1_questions","survey-likert","246","652639","0.0-6.0-2.34","2559605","co38284","norming","","","{""curiosity"":4,""confidence"":2}","[0,1]","../img/tt/598tt.jpg","",""
"1585.2600000798702","","","recognition","survey-text","247","654238","0.0-6.0-3.34","2559605","co38284","norming","","","{""guess"":""beker""}","","../img/tt/598tt.jpg","",""
"null","../img/gs/598gs.jpg","null","reveal","image-keyboard-response","248","656250","0.0-6.0-4.34","2559605","co38284","norming","","","","","","",""
"null","../img/tt/598tt.jpg","null","mooney2","image-keyboard-response","249","658265","0.0-6.0-5.34","2559605","co38284","norming","","","","","","",""
"10396.174998953938","","","post_reveal_questions","survey-likert","250","668663","0.0-6.0-6.34","2559605","co38284","norming","","","{""aha"":6}","[0]","../img/tt/598tt.jpg","",""
"null","<div style=""font-size:60px;""> </div>","null","fixation","html-keyboard-response","251","668870","0.0-6.0-0.35","2559605","co38284","norming","","","","","","",""
"null","../img/tt/1130tt.jpg","null","mooney1","image-keyboard-response","252","671881","0.0-6.0-1.35","2559605","co38284","norming","","","","","","",""
"7844.715001061559","","","post_mooney1_questions","survey-likert","253","679729","0.0-6.0-2.35","2559605","co38284","norming","","","{""curiosity"":4,""confidence"":2}","[0,1]","../img/tt/1130tt.jpg","",""
"3608.754999935627","","","recognition","survey-text","254","683348","0.0-6.0-3.35","2559605","co38284","norming","","","{""guess"":""baseball""}","","../img/tt/1130tt.jpg","",""
"null","../img/gs/1130gs.jpg","null","reveal","image-keyboard-response","255","685352","0.0-6.0-4.35","2559605","co38284","norming","","","","","","",""
"null","../img/tt/1130tt.jpg","null","mooney2","image-keyboard-response","256","687354","0.0-6.0-5.35","2559605","co38284","norming","","","","","","",""
"4068.505000323057","","","post_reveal_questions","survey-likert","257","691426","0.0-6.0-6.35","2559605","co38284","norming","","","{""aha"":3}","[0]","../img/tt/1130tt.jpg","",""
"null","<div style=""font-size:60px;""> </div>","null","fixation","html-keyboard-response","258","691633","0.0-6.0-0.36","2559605","co38284","norming","","","","","","",""
"null","../img/tt/1066tt.jpg","null","mooney1","image-keyboard-response","259","694641","0.0-6.0-1.36","2559605","co38284","norming","","","","","","",""
"5200.939999893308","","","post_mooney1_questions","survey-likert","260","699845","0.0-6.0-2.36","2559605","co38284","norming","","","{""curiosity"":4,""confidence"":4}","[0,1]","../img/tt/1066tt.jpg","",""
"1183.9550007134676","","","recognition","survey-text","261","701037","0.0-6.0-3.36","2559605","co38284","norming","","","{""guess"":""bus""}","","../img/tt/1066tt.jpg","",""
"null","../img/gs/1066gs.jpg","null","reveal","image-keyboard-response","262","703047","0.0-6.0-4.36","2559605","co38284","norming","","","","","","",""
"null","../img/tt/1066tt.jpg","null","mooney2","image-keyboard-response","263","705070","0.0-6.0-5.36","2559605","co38284","norming","","","","","","",""
"3779.3350014835596","","","post_reveal_questions","survey-likert","264","708852","0.0-6.0-6.36","2559605","co38284","norming","","","{""aha"":2}","[0]","../img/tt/1066tt.jpg","",""
"null","<div style=""font-size:60px;""> </div>","null","fixation","html-keyboard-response","265","709064","0.0-6.0-0.37","2559605","co38284","norming","","","","","","",""
"null","../img/tt/329tt.jpg","null","mooney1","image-keyboard-response","266","712077","0.0-6.0-1.37","2559605","co38284","norming","","","","","","",""
"3837.415000423789","","","post_mooney1_questions","survey-likert","267","715918","0.0-6.0-2.37","2559605","co38284","norming","","","{""curiosity"":5,""confidence"":3}","[0,1]","../img/tt/329tt.jpg","",""
"3625.9049996733665","","","recognition","survey-text","268","719553","0.0-6.0-3.37","2559605","co38284","norming","","","{""guess"":""octopus""}","","../img/tt/329tt.jpg","",""
"null","../img/gs/329gs.jpg","null","reveal","image-keyboard-response","269","721562","0.0-6.0-4.37","2559605","co38284","norming","","","","","","",""
"null","../img/tt/329tt.jpg","null","mooney2","image-keyboard-response","270","723573","0.0-6.0-5.37","2559605","co38284","norming","","","","","","",""
"2193.3900006115437","","","post_reveal_questions","survey-likert","271","725771","0.0-6.0-6.37","2559605","co38284","norming","","","{""aha"":6}","[0]","../img/tt/329tt.jpg","",""
"null","<div style=""font-size:60px;""> </div>","null","fixation","html-keyboard-response","272","725977","0.0-6.0-0.38","2559605","co38284","norming","","","","","","",""
"null","../img/tt/435tt.jpg","null","mooney1","image-keyboard-response","273","728995","0.0-6.0-1.38","2559605","co38284","norming","","","","","","",""
"13672.444999217987","","","post_mooney1_questions","survey-likert","274","742671","0.0-6.0-2.38","2559605","co38284","norming","","","{""curiosity"":5,""confidence"":3}","[0,1]","../img/tt/435tt.jpg","",""
"810.4550000280142","","","recognition","survey-text","275","743490","0.0-6.0-3.38","2559605","co38284","norming","","","{""guess"":""""}","","../img/tt/435tt.jpg","",""
"null","../img/gs/435gs.jpg","null","reveal","image-keyboard-response","276","745499","0.0-6.0-4.38","2559605","co38284","norming","","","","","","",""
"null","../img/tt/435tt.jpg","null","mooney2","image-keyboard-response","277","747514","0.0-6.0-5.38","2559605","co38284","norming","","","","","","",""
"2389.1449999064207","","","post_reveal_questions","survey-likert","278","749906","0.0-6.0-6.38","2559605","co38284","norming","","","{""aha"":0}","[0]","../img/tt/435tt.jpg","",""
"null","<div style=""font-size:60px;""> </div>","null","fixation","html-keyboard-response","279","750118","0.0-6.0-0.39","2559605","co38284","norming","","","","","","",""
"null","../img/tt/1236tt.jpg","null","mooney1","image-keyboard-response","280","753124","0.0-6.0-1.39","2559605","co38284","norming","","","","","","",""
"5670.100001618266","","","post_mooney1_questions","survey-likert","281","758798","0.0-6.0-2.39","2559605","co38284","norming","","","{""curiosity"":5,""confidence"":2}","[0,1]","../img/tt/1236tt.jpg","",""
"2256.870001554489","","","recognition","survey-text","282","761063","0.0-6.0-3.39","2559605","co38284","norming","","","{""guess"":""vijver""}","","../img/tt/1236tt.jpg","",""
"null","../img/gs/1236gs.jpg","null","reveal","image-keyboard-response","283","763075","0.0-6.0-4.39","2559605","co38284","norming","","","","","","",""
"null","../img/tt/1236tt.jpg","null","mooney2","image-keyboard-response","284","765077","0.0-6.0-5.39","2559605","co38284","norming","","","","","","",""
"1841.3450010120869","","","post_reveal_questions","survey-likert","285","766922","0.0-6.0-6.39","2559605","co38284","norming","","","{""aha"":1}","[0]","../img/tt/1236tt.jpg","",""
"null","<div style=""font-size:60px;""> </div>","null","fixation","html-keyboard-response","286","767138","0.0-6.0-0.40","2559605","co38284","norming","","","","","","",""
"null","../img/tt/1196tt.jpg","null","mooney1","image-keyboard-response","287","770148","0.0-6.0-1.40","2559605","co38284","norming","","","","","","",""
"3963.1599988788366","","","post_mooney1_questions","survey-likert","288","774116","0.0-6.0-2.40","2559605","co38284","norming","","","{""curiosity"":5,""confidence"":0}","[0,1]","../img/tt/1196tt.jpg","",""
"1295.2650003135204","","","recognition","survey-text","289","775420","0.0-6.0-3.40","2559605","co38284","norming","","","{""guess"":""""}","","../img/tt/1196tt.jpg","",""
"null","../img/gs/1196gs.jpg","null","reveal","image-keyboard-response","290","777426","0.0-6.0-4.40","2559605","co38284","norming","","","","","","",""
"null","../img/tt/1196tt.jpg","null","mooney2","image-keyboard-response","291","779443","0.0-6.0-5.40","2559605","co38284","norming","","","","","","",""
"2855.034999549389","","","post_reveal_questions","survey-likert","292","782301","0.0-6.0-6.40","2559605","co38284","norming","","","{""aha"":0}","[0]","../img/tt/1196tt.jpg","",""
"null","<div style=""font-size:60px;""> </div>","null","fixation","html-keyboard-response","293","782520","0.0-6.0-0.41","2559605","co38284","norming","","","","","","",""
"null","../img/tt/1101tt.jpg","null","mooney1","image-keyboard-response","294","785524","0.0-6.0-1.41","2559605","co38284","norming","","","","","","",""
"6316.770000383258","","","post_mooney1_questions","survey-likert","295","791837","0.0-6.0-2.41","2559605","co38284","norming","","","{""curiosity"":4,""confidence"":4}","[0,1]","../img/tt/1101tt.jpg","",""
"1904.8699997365475","","","recognition","survey-text","296","793751","0.0-6.0-3.41","2559605","co38284","norming","","","{""guess"":""vechten""}","","../img/tt/1101tt.jpg","",""
"null","../img/gs/1101gs.jpg","null","reveal","image-keyboard-response","297","795757","0.0-6.0-4.41","2559605","co38284","norming","","","","","","",""
"null","../img/tt/1101tt.jpg","null","mooney2","image-keyboard-response","298","797776","0.0-6.0-5.41","2559605","co38284","norming","","","","","","",""
"1706.030000001192","","","post_reveal_questions","survey-likert","299","799486","0.0-6.0-6.41","2559605","co38284","norming","","","{""aha"":4}","[0]","../img/tt/1101tt.jpg","",""
"null","<div style=""font-size:60px;""> </div>","null","fixation","html-keyboard-response","300","799694","0.0-6.0-0.42","2559605","co38284","norming","","","","","","",""
"null","../img/tt/1043tt.jpg","null","mooney1","image-keyboard-response","301","802699","0.0-6.0-1.42","2559605","co38284","norming","","","","","","",""
"6139.045000076294","","","post_mooney1_questions","survey-likert","302","808841","0.0-6.0-2.42","2559605","co38284","norming","","","{""curiosity"":4,""confidence"":0}","[0,1]","../img/tt/1043tt.jpg","",""
"1185.2250006049871","","","recognition","survey-text","303","810034","0.0-6.0-3.42","2559605","co38284","norming","","","{""guess"":""""}","","../img/tt/1043tt.jpg","",""
"null","../img/gs/1043gs.jpg","null","reveal","image-keyboard-response","304","812041","0.0-6.0-4.42","2559605","co38284","norming","","","","","","",""
"null","../img/tt/1043tt.jpg","null","mooney2","image-keyboard-response","305","814057","0.0-6.0-5.42","2559605","co38284","norming","","","","","","",""
"2953.04000005126","","","post_reveal_questions","survey-likert","306","817014","0.0-6.0-6.42","2559605","co38284","norming","","","{""aha"":0}","[0]","../img/tt/1043tt.jpg","",""
"null","<div style=""font-size:60px;""> </div>","null","fixation","html-keyboard-response","307","817227","0.0-6.0-0.43","2559605","co38284","norming","","","","","","",""
"null","../img/tt/1078tt.jpg","null","mooney1","image-keyboard-response","308","820237","0.0-6.0-1.43","2559605","co38284","norming","","","","","","",""
"6164.734998717904","","","post_mooney1_questions","survey-likert","309","826405","0.0-6.0-2.43","2559605","co38284","norming","","","{""curiosity"":4,""confidence"":4}","[0,1]","../img/tt/1078tt.jpg","",""
"3068.9349994063377","","","recognition","survey-text","310","829483","0.0-6.0-3.43","2559605","co38284","norming","","","{""guess"":""skatboarden""}","","../img/tt/1078tt.jpg","",""
"null","../img/gs/1078gs.jpg","null","reveal","image-keyboard-response","311","831499","0.0-6.0-4.43","2559605","co38284","norming","","","","","","",""
"null","../img/tt/1078tt.jpg","null","mooney2","image-keyboard-response","312","833512","0.0-6.0-5.43","2559605","co38284","norming","","","","","","",""
"3234.5150001347065","","","post_reveal_questions","survey-likert","313","836750","0.0-6.0-6.43","2559605","co38284","norming","","","{""aha"":6}","[0]","../img/tt/1078tt.jpg","",""
"null","<div style=""font-size:60px;""> </div>","null","fixation","html-keyboard-response","314","836957","0.0-6.0-0.44","2559605","co38284","norming","","","","","","",""
"null","../img/tt/082tt.jpg","null","mooney1","image-keyboard-response","315","839965","0.0-6.0-1.44","2559605","co38284","norming","","","","","","",""
"9042.169999331236","","","post_mooney1_questions","survey-likert","316","849012","0.0-6.0-2.44","2559605","co38284","norming","","","{""curiosity"":2,""confidence"":6}","[0,1]","../img/tt/082tt.jpg","",""
"13820.809999480844","","","recognition","survey-text","317","862835","0.0-6.0-3.44","2559605","co38284","norming","","","{""guess"":""papegaai""}","","../img/tt/082tt.jpg","",""
"null","../img/gs/082gs.jpg","null","reveal","image-keyboard-response","318","864844","0.0-6.0-4.44","2559605","co38284","norming","","","","","","",""
"null","../img/tt/082tt.jpg","null","mooney2","image-keyboard-response","319","866854","0.0-6.0-5.44","2559605","co38284","norming","","","","","","",""
"2434.2449996620417","","","post_reveal_questions","survey-likert","320","869292","0.0-6.0-6.44","2559605","co38284","norming","","","{""aha"":6}","[0]","../img/tt/082tt.jpg","",""
"null","<div style=""font-size:60px;""> </div>","null","fixation","html-keyboard-response","321","869498","0.0-6.0-0.45","2559605","co38284","norming","","","","","","",""
"null","../img/tt/001tt.jpg","null","mooney1","image-keyboard-response","322","872508","0.0-6.0-1.45","2559605","co38284","norming","","","","","","",""
"6508.5800010710955","","","post_mooney1_questions","survey-likert","323","879021","0.0-6.0-2.45","2559605","co38284","norming","","","{""curiosity"":6,""confidence"":0}","[0,1]","../img/tt/001tt.jpg","",""
"1239.6099995821714","","","recognition","survey-text","324","880269","0.0-6.0-3.45","2559605","co38284","norming","","","{""guess"":""""}","","../img/tt/001tt.jpg","",""
"null","../img/gs/001gs.jpg","null","reveal","image-keyboard-response","325","882284","0.0-6.0-4.45","2559605","co38284","norming","","","","","","",""
"null","../img/tt/001tt.jpg","null","mooney2","image-keyboard-response","326","884288","0.0-6.0-5.45","2559605","co38284","norming","","","","","","",""
"3870.540000498295","","","post_reveal_questions","survey-likert","327","888162","0.0-6.0-6.45","2559605","co38284","norming","","","{""aha"":0}","[0]","../img/tt/001tt.jpg","",""
"null","<div style=""font-size:60px;""> </div>","null","fixation","html-keyboard-response","328","888376","0.0-6.0-0.46","2559605","co38284","norming","","","","","","",""
"null","../img/tt/1260tt.jpg","null","mooney1","image-keyboard-response","329","891393","0.0-6.0-1.46","2559605","co38284","norming","","","","","","",""
"4414.130000397563","","","post_mooney1_questions","survey-likert","330","895811","0.0-6.0-2.46","2559605","co38284","norming","","","{""curiosity"":5,""confidence"":2}","[0,1]","../img/tt/1260tt.jpg","",""
"3640.6100001186132","","","recognition","survey-text","331","899462","0.0-6.0-3.46","2559605","co38284","norming","","","{""guess"":""boomstronk""}","","../img/tt/1260tt.jpg","",""
"null","../img/gs/1260gs.jpg","null","reveal","image-keyboard-response","332","901475","0.0-6.0-4.46","2559605","co38284","norming","","","","","","",""
"null","../img/tt/1260tt.jpg","null","mooney2","image-keyboard-response","333","903478","0.0-6.0-5.46","2559605","co38284","norming","","","","","","",""
"2154.154999181628","","","post_reveal_questions","survey-likert","334","905635","0.0-6.0-6.46","2559605","co38284","norming","","","{""aha"":4}","[0]","../img/tt/1260tt.jpg","",""
"null","<div style=""font-size:60px;""> </div>","null","fixation","html-keyboard-response","335","905850","0.0-6.0-0.47","2559605","co38284","norming","","","","","","",""
"null","../img/tt/108tt.jpg","null","mooney1","image-keyboard-response","336","908854","0.0-6.0-1.47","2559605","co38284","norming","","","","","","",""
"3102.495001628995","","","post_mooney1_questions","survey-likert","337","911960","0.0-6.0-2.47","2559605","co38284","norming","","","{""curiosity"":3,""confidence"":2}","[0,1]","../img/tt/108tt.jpg","",""
"1459.094999358058","","","recognition","survey-text","338","913438","0.0-6.0-3.47","2559605","co38284","norming","","","{""guess"":""vis""}","","../img/tt/108tt.jpg","",""
"null","../img/gs/108gs.jpg","null","reveal","image-keyboard-response","339","915456","0.0-6.0-4.47","2559605","co38284","norming","","","","","","",""
"null","../img/tt/108tt.jpg","null","mooney2","image-keyboard-response","340","917463","0.0-6.0-5.47","2559605","co38284","norming","","","","","","",""
"8673.715000972152","","","post_reveal_questions","survey-likert","341","926141","0.0-6.0-6.47","2559605","co38284","norming","","","{""aha"":2}","[0]","../img/tt/108tt.jpg","",""
"null","<div style=""font-size:60px;""> </div>","null","fixation","html-keyboard-response","342","926348","0.0-6.0-0.48","2559605","co38284","norming","","","","","","",""
"null","../img/tt/1146tt.jpg","null","mooney1","image-keyboard-response","343","929353","0.0-6.0-1.48","2559605","co38284","norming","","","","","","",""
"3675.519999116659","","","post_mooney1_questions","survey-likert","344","933032","0.0-6.0-2.48","2559605","co38284","norming","","","{""curiosity"":4,""confidence"":2}","[0,1]","../img/tt/1146tt.jpg","",""
"2773.5450007021427","","","recognition","survey-text","345","935818","0.0-6.0-3.48","2559605","co38284","norming","","","{""guess"":""auto""}","","../img/tt/1146tt.jpg","",""
"null","../img/gs/1146gs.jpg","null","reveal","image-keyboard-response","346","937823","0.0-6.0-4.48","2559605","co38284","norming","","","","","","",""
"null","../img/tt/1146tt.jpg","null","mooney2","image-keyboard-response","347","939827","0.0-6.0-5.48","2559605","co38284","norming","","","","","","",""
"2866.8700009584427","","","post_reveal_questions","survey-likert","348","942697","0.0-6.0-6.48","2559605","co38284","norming","","","{""aha"":3}","[0]","../img/tt/1146tt.jpg","",""
"null","<div style=""font-size:60px;""> </div>","null","fixation","html-keyboard-response","349","942913","0.0-6.0-0.49","2559605","co38284","norming","","","","","","",""
"null","../img/tt/1363tt.jpg","null","mooney1","image-keyboard-response","350","945927","0.0-6.0-1.49","2559605","co38284","norming","","","","","","",""
"5682.2900008410215","","","post_mooney1_questions","survey-likert","351","951614","0.0-6.0-2.49","2559605","co38284","norming","","","{""curiosity"":3,""confidence"":3}","[0,1]","../img/tt/1363tt.jpg","",""
"4313.334999606013","","","recognition","survey-text","352","955937","0.0-6.0-3.49","2559605","co38284","norming","","","{""guess"":""bord""}","","../img/tt/1363tt.jpg","",""
"null","../img/gs/1363gs.jpg","null","reveal","image-keyboard-response","353","957946","0.0-6.0-4.49","2559605","co38284","norming","","","","","","",""
"null","../img/tt/1363tt.jpg","null","mooney2","image-keyboard-response","354","959956","0.0-6.0-5.49","2559605","co38284","norming","","","","","","",""
"5076.849998906255","","","post_reveal_questions","survey-likert","355","965037","0.0-6.0-6.49","2559605","co38284","norming","","","{""aha"":3}","[0]","../img/tt/1363tt.jpg","",""
"null","<div style=""font-size:60px;""> </div>","null","fixation","html-keyboard-response","356","965248","0.0-6.0-0.50","2559605","co38284","norming","","","","","","",""
"null","../img/tt/1227tt.jpg","null","mooney1","image-keyboard-response","357","968251","0.0-6.0-1.50","2559605","co38284","norming","","","","","","",""
"3712.0299991220236","","","post_mooney1_questions","survey-likert","358","971968","0.0-6.0-2.50","2559605","co38284","norming","","","{""curiosity"":4,""confidence"":2}","[0,1]","../img/tt/1227tt.jpg","",""
"3634.814999997616","","","recognition","survey-text","359","975608","0.0-6.0-3.50","2559605","co38284","norming","","","{""guess"":""koeien""}","","../img/tt/1227tt.jpg","",""
"null","../img/gs/1227gs.jpg","null","reveal","image-keyboard-response","360","977623","0.0-6.0-4.50","2559605","co38284","norming","","","","","","",""
"null","../img/tt/1227tt.jpg","null","mooney2","image-keyboard-response","361","979628","0.0-6.0-5.50","2559605","co38284","norming","","","","","","",""
"3355.8299988508224","","","post_reveal_questions","survey-likert","362","982987","0.0-6.0-6.50","2559605","co38284","norming","","","{""aha"":3}","[0]","../img/tt/1227tt.jpg","",""
"null","<div style=""font-size:60px;""> </div>","null","fixation","html-keyboard-response","363","983190","0.0-6.0-0.51","2559605","co38284","norming","","","","","","",""
"null","../img/tt/1279tt.jpg","null","mooney1","image-keyboard-response","364","986193","0.0-6.0-1.51","2559605","co38284","norming","","","","","","",""
"5540.140001103282","","","post_mooney1_questions","survey-likert","365","991739","0.0-6.0-2.51","2559605","co38284","norming","","","{""curiosity"":3,""confidence"":0}","[0,1]","../img/tt/1279tt.jpg","",""
"794.5750001817942","","","recognition","survey-text","366","992550","0.0-6.0-3.51","2559605","co38284","norming","","","{""guess"":""""}","","../img/tt/1279tt.jpg","",""
"null","../img/gs/1279gs.jpg","null","reveal","image-keyboard-response","367","994560","0.0-6.0-4.51","2559605","co38284","norming","","","","","","",""
"null","../img/tt/1279tt.jpg","null","mooney2","image-keyboard-response","368","996566","0.0-6.0-5.51","2559605","co38284","norming","","","","","","",""
"4124.709999188781","","","post_reveal_questions","survey-likert","369","1000694","0.0-6.0-6.51","2559605","co38284","norming","","","{""aha"":0}","[0]","../img/tt/1279tt.jpg","",""
"null","<div style=""font-size:60px;""> </div>","null","fixation","html-keyboard-response","370","1000909","0.0-6.0-0.52","2559605","co38284","norming","","","","","","",""
"null","../img/tt/036tt.jpg","null","mooney1","image-keyboard-response","371","1003926","0.0-6.0-1.52","2559605","co38284","norming","","","","","","",""
"9550.289999693632","","","post_mooney1_questions","survey-likert","372","1013480","0.0-6.0-2.52","2559605","co38284","norming","","","{""curiosity"":6,""confidence"":1}","[0,1]","../img/tt/036tt.jpg","",""
"4225.659999996424","","","recognition","survey-text","373","1017714","0.0-6.0-3.52","2559605","co38284","norming","","","{""guess"":""spinnen""}","","../img/tt/036tt.jpg","",""
"null","../img/gs/036gs.jpg","null","reveal","image-keyboard-response","374","1019731","0.0-6.0-4.52","2559605","co38284","norming","","","","","","",""
"null","../img/tt/036tt.jpg","null","mooney2","image-keyboard-response","375","1021743","0.0-6.0-5.52","2559605","co38284","norming","","","","","","",""
"12803.700000047684","","","post_reveal_questions","survey-likert","376","1034558","0.0-6.0-6.52","2559605","co38284","norming","","","{""aha"":3}","[0]","../img/tt/036tt.jpg","",""
"null","<div style=""font-size:60px;""> </div>","null","fixation","html-keyboard-response","377","1034772","0.0-6.0-0.53","2559605","co38284","norming","","","","","","",""
"null","../img/tt/1084tt.jpg","null","mooney1","image-keyboard-response","378","1037789","0.0-6.0-1.53","2559605","co38284","norming","","","","","","",""
"4854.994999244809","","","post_mooney1_questions","survey-likert","379","1042648","0.0-6.0-2.53","2559605","co38284","norming","","","{""curiosity"":2,""confidence"":0}","[0,1]","../img/tt/1084tt.jpg","",""
"818.469999358058","","","recognition","survey-text","380","1043475","0.0-6.0-3.53","2559605","co38284","norming","","","{""guess"":""""}","","../img/tt/1084tt.jpg","",""
"null","../img/gs/1084gs.jpg","null","reveal","image-keyboard-response","381","1045494","0.0-6.0-4.53","2559605","co38284","norming","","","","","","",""
"null","../img/tt/1084tt.jpg","null","mooney2","image-keyboard-response","382","1047504","0.0-6.0-5.53","2559605","co38284","norming","","","","","","",""
"2656.6850002855062","","","post_reveal_questions","survey-likert","383","1050163","0.0-6.0-6.53","2559605","co38284","norming","","","{""aha"":0}","[0]","../img/tt/1084tt.jpg","",""
"null","<div style=""font-size:60px;""> </div>","null","fixation","html-keyboard-response","384","1050369","0.0-6.0-0.54","2559605","co38284","norming","","","","","","",""
"null","../img/tt/118tt.jpg","null","mooney1","image-keyboard-response","385","1053379","0.0-6.0-1.54","2559605","co38284","norming","","","","","","",""
"8730.329999700189","","","post_mooney1_questions","survey-likert","386","1062113","0.0-6.0-2.54","2559605","co38284","norming","","","{""curiosity"":3,""confidence"":1}","[0,1]","../img/tt/118tt.jpg","",""
"2575.825000181794","","","recognition","survey-text","387","1064703","0.0-6.0-3.54","2559605","co38284","norming","","","{""guess"":""ribben""}","","../img/tt/118tt.jpg","",""
"null","../img/gs/118gs.jpg","null","reveal","image-keyboard-response","388","1066718","0.0-6.0-4.54","2559605","co38284","norming","","","","","","",""
"null","../img/tt/118tt.jpg","null","mooney2","image-keyboard-response","389","1068720","0.0-6.0-5.54","2559605","co38284","norming","","","","","","",""
"4963.774999603629","","","post_reveal_questions","survey-likert","390","1073687","0.0-6.0-6.54","2559605","co38284","norming","","","{""aha"":1}","[0]","../img/tt/118tt.jpg","",""
"null","<div style=""font-size:60px;""> </div>","null","fixation","html-keyboard-response","391","1073901","0.0-6.0-0.55","2559605","co38284","norming","","","","","","",""
"null","../img/tt/1272tt.jpg","null","mooney1","image-keyboard-response","392","1076904","0.0-6.0-1.55","2559605","co38284","norming","","","","","","",""
"3975.5049999803305","","","post_mooney1_questions","survey-likert","393","1080884","0.0-6.0-2.55","2559605","co38284","norming","","","{""curiosity"":3,""confidence"":2}","[0,1]","../img/tt/1272tt.jpg","",""
"2227.7550008147955","","","recognition","survey-text","394","1083127","0.0-6.0-3.55","2559605","co38284","norming","","","{""guess"":""vlees""}","","../img/tt/1272tt.jpg","",""
"null","../img/gs/1272gs.jpg","null","reveal","image-keyboard-response","395","1085140","0.0-6.0-4.55","2559605","co38284","norming","","","","","","",""
"null","../img/tt/1272tt.jpg","null","mooney2","image-keyboard-response","396","1087152","0.0-6.0-5.55","2559605","co38284","norming","","","","","","",""
"4013.2599994540215","","","post_reveal_questions","survey-likert","397","1091167","0.0-6.0-6.55","2559605","co38284","norming","","","{""aha"":0}","[0]","../img/tt/1272tt.jpg","",""
"null","<div style=""font-size:60px;""> </div>","null","fixation","html-keyboard-response","398","1091385","0.0-6.0-0.56","2559605","co38284","norming","","","","","","",""
"null","../img/tt/111tt.jpg","null","mooney1","image-keyboard-response","399","1094401","0.0-6.0-1.56","2559605","co38284","norming","","","","","","",""
"5304.200001060963","","","post_mooney1_questions","survey-likert","400","1099709","0.0-6.0-2.56","2559605","co38284","norming","","","{""curiosity"":2,""confidence"":2}","[0,1]","../img/tt/111tt.jpg","",""
"5048.290001228452","","","recognition","survey-text","401","1104766","0.0-6.0-3.56","2559605","co38284","norming","","","{""guess"":""muziekinstrument""}","","../img/tt/111tt.jpg","",""
"null","../img/gs/111gs.jpg","null","reveal","image-keyboard-response","402","1106784","0.0-6.0-4.56","2559605","co38284","norming","","","","","","",""
"null","../img/tt/111tt.jpg","null","mooney2","image-keyboard-response","403","1108786","0.0-6.0-5.56","2559605","co38284","norming","","","","","","",""
"11600.475000217557","","","post_reveal_questions","survey-likert","404","1120390","0.0-6.0-6.56","2559605","co38284","norming","","","{""aha"":0}","[0]","../img/tt/111tt.jpg","",""
"null","<div style=""font-size:60px;""> </div>","null","fixation","html-keyboard-response","405","1120595","0.0-6.0-0.57","2559605","co38284","norming","","","","","","",""
"null","../img/tt/1055tt.jpg","null","mooney1","image-keyboard-response","406","1123605","0.0-6.0-1.57","2559605","co38284","norming","","","","","","",""
"6213.879998773336","","","post_mooney1_questions","survey-likert","407","1129823","0.0-6.0-2.57","2559605","co38284","norming","","","{""curiosity"":3,""confidence"":1}","[0,1]","../img/tt/1055tt.jpg","",""
"2872.8649988770485","","","recognition","survey-text","408","1132705","0.0-6.0-3.57","2559605","co38284","norming","","","{""guess"":""water""}","","../img/tt/1055tt.jpg","",""
"null","../img/gs/1055gs.jpg","null","reveal","image-keyboard-response","409","1134713","0.0-6.0-4.57","2559605","co38284","norming","","","","","","",""
"null","../img/tt/1055tt.jpg","null","mooney2","image-keyboard-response","410","1136727","0.0-6.0-5.57","2559605","co38284","norming","","","","","","",""
"10608.10500010848","","","post_reveal_questions","survey-likert","411","1147340","0.0-6.0-6.57","2559605","co38284","norming","","","{""aha"":2}","[0]","../img/tt/1055tt.jpg","",""
"null","<div style=""font-size:60px;""> </div>","null","fixation","html-keyboard-response","412","1147560","0.0-6.0-0.58","2559605","co38284","norming","","","","","","",""
"null","../img/tt/010tt.jpg","null","mooney1","image-keyboard-response","413","1150575","0.0-6.0-1.58","2559605","co38284","norming","","","","","","",""
"5062.990000471473","","","post_mooney1_questions","survey-likert","414","1155632","0.0-6.0-2.58","2559605","co38284","norming","","","{""curiosity"":4,""confidence"":1}","[0,1]","../img/tt/010tt.jpg","",""
"1687.1750000864267","","","recognition","survey-text","415","1157327","0.0-6.0-3.58","2559605","co38284","norming","","","{""guess"":""hand""}","","../img/tt/010tt.jpg","",""
"null","../img/gs/010gs.jpg","null","reveal","image-keyboard-response","416","1159335","0.0-6.0-4.58","2559605","co38284","norming","","","","","","",""
"null","../img/tt/010tt.jpg","null","mooney2","image-keyboard-response","417","1161350","0.0-6.0-5.58","2559605","co38284","norming","","","","","","",""
"2851.1749990284443","","","post_reveal_questions","survey-likert","418","1164203","0.0-6.0-6.58","2559605","co38284","norming","","","{""aha"":1}","[0]","../img/tt/010tt.jpg","",""
"null","<div style=""font-size:60px;""> </div>","null","fixation","html-keyboard-response","419","1164413","0.0-6.0-0.59","2559605","co38284","norming","","","","","","",""
"null","../img/tt/013tt.jpg","null","mooney1","image-keyboard-response","420","1167430","0.0-6.0-1.59","2559605","co38284","norming","","","","","","",""
"6234.0900003910065","","","post_mooney1_questions","survey-likert","421","1173668","0.0-6.0-2.59","2559605","co38284","norming","","","{""curiosity"":4,""confidence"":0}","[0,1]","../img/tt/013tt.jpg","",""
"1337.2649997472763","","","recognition","survey-text","422","1175014","0.0-6.0-3.59","2559605","co38284","norming","","","{""guess"":""""}","","../img/tt/013tt.jpg","",""
"null","../img/gs/013gs.jpg","null","reveal","image-keyboard-response","423","1177026","0.0-6.0-4.59","2559605","co38284","norming","","","","","","",""
"null","../img/tt/013tt.jpg","null","mooney2","image-keyboard-response","424","1179072","0.0-6.0-5.59","2559605","co38284","norming","","","","","","",""
"5333.004999905825","","","post_reveal_questions","survey-likert","425","1184408","0.0-6.0-6.59","2559605","co38284","norming","","","{""aha"":0}","[0]","../img/tt/013tt.jpg","",""
"null","<div style=""font-size:60px;""> </div>","null","fixation","html-keyboard-response","426","1184614","0.0-6.0-0.60","2559605","co38284","norming","","","","","","",""
"null","../img/tt/315tt.jpg","null","mooney1","image-keyboard-response","427","1187626","0.0-6.0-1.60","2559605","co38284","norming","","","","","","",""
"5111.314998939633","","","post_mooney1_questions","survey-likert","428","1192740","0.0-6.0-2.60","2559605","co38284","norming","","","{""curiosity"":4,""confidence"":0}","[0,1]","../img/tt/315tt.jpg","",""
"1092.4449991434813","","","recognition","survey-text","429","1193841","0.0-6.0-3.60","2559605","co38284","norming","","","{""guess"":""""}","","../img/tt/315tt.jpg","",""
"null","../img/gs/315gs.jpg","null","reveal","image-keyboard-response","430","1195856","0.0-6.0-4.60","2559605","co38284","norming","","","","","","",""
"null","../img/tt/315tt.jpg","null","mooney2","image-keyboard-response","431","1197871","0.0-6.0-5.60","2559605","co38284","norming","","","","","","",""
"3726.1250000447035","","","post_reveal_questions","survey-likert","432","1201601","0.0-6.0-6.60","2559605","co38284","norming","","","{""aha"":0}","[0]","../img/tt/315tt.jpg","",""
"null","<div style=""font-size:60px;""> </div>","null","fixation","html-keyboard-response","433","1201811","0.0-6.0-0.61","2559605","co38284","norming","","","","","","",""
"null","../img/tt/599tt.jpg","null","mooney1","image-keyboard-response","434","1204816","0.0-6.0-1.61","2559605","co38284","norming","","","","","","",""
"3821.620000526309","","","post_mooney1_questions","survey-likert","435","1208643","0.0-6.0-2.61","2559605","co38284","norming","","","{""curiosity"":3,""confidence"":1}","[0,1]","../img/tt/599tt.jpg","",""
"2227.0949985831976","","","recognition","survey-text","436","1210878","0.0-6.0-3.61","2559605","co38284","norming","","","{""guess"":""muis""}","","../img/tt/599tt.jpg","",""
"null","../img/gs/599gs.jpg","null","reveal","image-keyboard-response","437","1212886","0.0-6.0-4.61","2559605","co38284","norming","","","","","","",""
"null","../img/tt/599tt.jpg","null","mooney2","image-keyboard-response","438","1214909","0.0-6.0-5.61","2559605","co38284","norming","","","","","","",""
"5229.134999215603","","","post_reveal_questions","survey-likert","439","1220141","0.0-6.0-6.61","2559605","co38284","norming","","","{""aha"":2}","[0]","../img/tt/599tt.jpg","",""
"null","<div style=""font-size:60px;""> </div>","null","fixation","html-keyboard-response","440","1220352","0.0-6.0-0.62","2559605","co38284","norming","","","","","","",""
"null","../img/tt/189tt.jpg","null","mooney1","image-keyboard-response","441","1223361","0.0-6.0-1.62","2559605","co38284","norming","","","","","","",""
"6642.78999902308","","","post_mooney1_questions","survey-likert","442","1230009","0.0-6.0-2.62","2559605","co38284","norming","","","{""curiosity"":4,""confidence"":3}","[0,1]","../img/tt/189tt.jpg","",""
"4060.749998316169","","","recognition","survey-text","443","1234078","0.0-6.0-3.62","2559605","co38284","norming","","","{""guess"":""skateboarden""}","","../img/tt/189tt.jpg","",""
"null","../img/gs/189gs.jpg","null","reveal","image-keyboard-response","444","1236086","0.0-6.0-4.62","2559605","co38284","norming","","","","","","",""
"null","../img/tt/189tt.jpg","null","mooney2","image-keyboard-response","445","1238091","0.0-6.0-5.62","2559605","co38284","norming","","","","","","",""
"7038.4899992495775","","","post_reveal_questions","survey-likert","446","1245132","0.0-6.0-6.62","2559605","co38284","norming","","","{""aha"":2}","[0]","../img/tt/189tt.jpg","",""
"null","<div style=""font-size:60px;""> </div>","null","fixation","html-keyboard-response","447","1245345","0.0-6.0-0.63","2559605","co38284","norming","","","","","","",""
"null","../img/tt/1102tt.jpg","null","mooney1","image-keyboard-response","448","1248361","0.0-6.0-1.63","2559605","co38284","norming","","","","","","",""
"5247.059999033809","","","post_mooney1_questions","survey-likert","449","1253611","0.0-6.0-2.63","2559605","co38284","norming","","","{""curiosity"":3,""confidence"":2}","[0,1]","../img/tt/1102tt.jpg","",""
"2486.1449990421534","","","recognition","survey-text","450","1256106","0.0-6.0-3.63","2559605","co38284","norming","","","{""guess"":""hangmat""}","","../img/tt/1102tt.jpg","",""
"null","../img/gs/1102gs.jpg","null","reveal","image-keyboard-response","451","1258115","0.0-6.0-4.63","2559605","co38284","norming","","","","","","",""
"null","../img/tt/1102tt.jpg","null","mooney2","image-keyboard-response","452","1260128","0.0-6.0-5.63","2559605","co38284","norming","","","","","","",""
"4411.089999601245","","","post_reveal_questions","survey-likert","453","1264542","0.0-6.0-6.63","2559605","co38284","norming","","","{""aha"":2}","[0]","../img/tt/1102tt.jpg","",""
"null","<div style=""font-size:60px;""> </div>","null","fixation","html-keyboard-response","454","1264746","0.0-6.0-0.64","2559605","co38284","norming","","","","","","",""
"null","../img/tt/1151tt.jpg","null","mooney1","image-keyboard-response","455","1267756","0.0-6.0-1.64","2559605","co38284","norming","","","","","","",""
"6153.564998880029","","","post_mooney1_questions","survey-likert","456","1273914","0.0-6.0-2.64","2559605","co38284","norming","","","{""curiosity"":5,""confidence"":2}","[0,1]","../img/tt/1151tt.jpg","",""
"3414.2300002276897","","","recognition","survey-text","457","1277334","0.0-6.0-3.64","2559605","co38284","norming","","","{""guess"":""klimmen""}","","../img/tt/1151tt.jpg","",""
"null","../img/gs/1151gs.jpg","null","reveal","image-keyboard-response","458","1279350","0.0-6.0-4.64","2559605","co38284","norming","","","","","","",""
"null","../img/tt/1151tt.jpg","null","mooney2","image-keyboard-response","459","1281361","0.0-6.0-5.64","2559605","co38284","norming","","","","","","",""
"3338.069999590516","","","post_reveal_questions","survey-likert","460","1284703","0.0-6.0-6.64","2559605","co38284","norming","","","{""aha"":3}","[0]","../img/tt/1151tt.jpg","",""
"null","<div style=""font-size:60px;""> </div>","null","fixation","html-keyboard-response","461","1284921","0.0-6.0-0.65","2559605","co38284","norming","","","","","","",""
"null","../img/tt/440tt.jpg","null","mooney1","image-keyboard-response","462","1287927","0.0-6.0-1.65","2559605","co38284","norming","","","","","","",""
"5885.749999433756","","","post_mooney1_questions","survey-likert","463","1293817","0.0-6.0-2.65","2559605","co38284","norming","","","{""curiosity"":5,""confidence"":5}","[0,1]","../img/tt/440tt.jpg","",""
"2433.484999462962","","","recognition","survey-text","464","1296258","0.0-6.0-3.65","2559605","co38284","norming","","","{""guess"":""kameel""}","","../img/tt/440tt.jpg","",""
"null","../img/gs/440gs.jpg","null","reveal","image-keyboard-response","465","1298265","0.0-6.0-4.65","2559605","co38284","norming","","","","","","",""
"null","../img/tt/440tt.jpg","null","mooney2","image-keyboard-response","466","1300269","0.0-6.0-5.65","2559605","co38284","norming","","","","","","",""
"3173.905000090599","","","post_reveal_questions","survey-likert","467","1303446","0.0-6.0-6.65","2559605","co38284","norming","","","{""aha"":4}","[0]","../img/tt/440tt.jpg","",""
"null","<div style=""font-size:60px;""> </div>","null","fixation","html-keyboard-response","468","1303657","0.0-6.0-0.66","2559605","co38284","norming","","","","","","",""
"null","../img/tt/507tt.jpg","null","mooney1","image-keyboard-response","469","1306671","0.0-6.0-1.66","2559605","co38284","norming","","","","","","",""
"4705.509999766946","","","post_mooney1_questions","survey-likert","470","1311380","0.0-6.0-2.66","2559605","co38284","norming","","","{""curiosity"":3,""confidence"":3}","[0,1]","../img/tt/507tt.jpg","",""
"2009.9149998277426","","","recognition","survey-text","471","1313398","0.0-6.0-3.66","2559605","co38284","norming","","","{""guess"":""danser""}","","../img/tt/507tt.jpg","",""
"null","../img/gs/507gs.jpg","null","reveal","image-keyboard-response","472","1315404","0.0-6.0-4.66","2559605","co38284","norming","","","","","","",""
"null","../img/tt/507tt.jpg","null","mooney2","image-keyboard-response","473","1317412","0.0-6.0-5.66","2559605","co38284","norming","","","","","","",""
"3059.2799987643957","","","post_reveal_questions","survey-likert","474","1320475","0.0-6.0-6.66","2559605","co38284","norming","","","{""aha"":4}","[0]","../img/tt/507tt.jpg","",""
"null","<div style=""font-size:60px;""> </div>","null","fixation","html-keyboard-response","475","1320688","0.0-6.0-0.67","2559605","co38284","norming","","","","","","",""
"null","../img/tt/559tt.jpg","null","mooney1","image-keyboard-response","476","1323692","0.0-6.0-1.67","2559605","co38284","norming","","","","","","",""
"3838.99499848485","","","post_mooney1_questions","survey-likert","477","1327534","0.0-6.0-2.67","2559605","co38284","norming","","","{""curiosity"":1,""confidence"":1}","[0,1]","../img/tt/559tt.jpg","",""
"780.1500000059605","","","recognition","survey-text","478","1328325","0.0-6.0-3.67","2559605","co38284","norming","","","{""guess"":""""}","","../img/tt/559tt.jpg","",""
"null","../img/gs/559gs.jpg","null","reveal","image-keyboard-response","479","1330343","0.0-6.0-4.67","2559605","co38284","norming","","","","","","",""
"null","../img/tt/559tt.jpg","null","mooney2","image-keyboard-response","480","1332359","0.0-6.0-5.67","2559605","co38284","norming","","","","","","",""
"4910.089999437332","","","post_reveal_questions","survey-likert","481","1337279","0.0-6.0-6.67","2559605","co38284","norming","","","{""aha"":0}","[0]","../img/tt/559tt.jpg","",""
"null","<div style=""font-size:60px;""> </div>","null","fixation","html-keyboard-response","482","1337489","0.0-6.0-0.68","2559605","co38284","norming","","","","","","",""
"null","../img/tt/378tt.jpg","null","mooney1","image-keyboard-response","483","1340499","0.0-6.0-1.68","2559605","co38284","norming","","","","","","",""
"6833.444999530911","","","post_mooney1_questions","survey-likert","484","1347344","0.0-6.0-2.68","2559605","co38284","norming","","","{""curiosity"":4,""confidence"":2}","[0,1]","../img/tt/378tt.jpg","",""
"3274.100000038743","","","recognition","survey-text","485","1350629","0.0-6.0-3.68","2559605","co38284","norming","","","{""guess"":""mossel""}","","../img/tt/378tt.jpg","",""
"null","../img/gs/378gs.jpg","null","reveal","image-keyboard-response","486","1352646","0.0-6.0-4.68","2559605","co38284","norming","","","","","","",""
"null","../img/tt/378tt.jpg","null","mooney2","image-keyboard-response","487","1354662","0.0-6.0-5.68","2559605","co38284","norming","","","","","","",""
"3034.840000793338","","","post_reveal_questions","survey-likert","488","1357700","0.0-6.0-6.68","2559605","co38284","norming","","","{""aha"":2}","[0]","../img/tt/378tt.jpg","",""
"null","<div style=""font-size:60px;""> </div>","null","fixation","html-keyboard-response","489","1357916","0.0-6.0-0.69","2559605","co38284","norming","","","","","","",""
"null","../img/tt/522tt.jpg","null","mooney1","image-keyboard-response","490","1360927","0.0-6.0-1.69","2559605","co38284","norming","","","","","","",""
"4859.9399998784065","","","post_mooney1_questions","survey-likert","491","1365790","0.0-6.0-2.69","2559605","co38284","norming","","","{""curiosity"":3,""confidence"":2}","[0,1]","../img/tt/522tt.jpg","",""
"2688.364999368787","","","recognition","survey-text","492","1368490","0.0-6.0-3.69","2559605","co38284","norming","","","{""guess"":""luipaard""}","","../img/tt/522tt.jpg","",""
"null","../img/gs/522gs.jpg","null","reveal","image-keyboard-response","493","1370500","0.0-6.0-4.69","2559605","co38284","norming","","","","","","",""
"null","../img/tt/522tt.jpg","null","mooney2","image-keyboard-response","494","1372510","0.0-6.0-5.69","2559605","co38284","norming","","","","","","",""
"2111.259998753667","","","post_reveal_questions","survey-likert","495","1374626","0.0-6.0-6.69","2559605","co38284","norming","","","{""aha"":3}","[0]","../img/tt/522tt.jpg","",""
"null","<div style=""font-size:60px;""> </div>","null","fixation","html-keyboard-response","496","1374831","0.0-6.0-0.70","2559605","co38284","norming","","","","","","",""
"null","../img/tt/1255tt.jpg","null","mooney1","image-keyboard-response","497","1377847","0.0-6.0-1.70","2559605","co38284","norming","","","","","","",""
"4336.880000308156","","","post_mooney1_questions","survey-likert","498","1382188","0.0-6.0-2.70","2559605","co38284","norming","","","{""curiosity"":4,""confidence"":0}","[0,1]","../img/tt/1255tt.jpg","",""
"1055.724998936057","","","recognition","survey-text","499","1383253","0.0-6.0-3.70","2559605","co38284","norming","","","{""guess"":""""}","","../img/tt/1255tt.jpg","",""
"null","../img/gs/1255gs.jpg","null","reveal","image-keyboard-response","500","1385267","0.0-6.0-4.70","2559605","co38284","norming","","","","","","",""
"null","../img/tt/1255tt.jpg","null","mooney2","image-keyboard-response","501","1387270","0.0-6.0-5.70","2559605","co38284","norming","","","","","","",""
"3606.3149999827147","","","post_reveal_questions","survey-likert","502","1390880","0.0-6.0-6.70","2559605","co38284","norming","","","{""aha"":0}","[0]","../img/tt/1255tt.jpg","",""
"null","<div style=""font-size:60px;""> </div>","null","fixation","html-keyboard-response","503","1391092","0.0-6.0-0.71","2559605","co38284","norming","","","","","","",""
"null","../img/tt/1107tt.jpg","null","mooney1","image-keyboard-response","504","1394096","0.0-6.0-1.71","2559605","co38284","norming","","","","","","",""
"6349.194999784231","","","post_mooney1_questions","survey-likert","505","1400449","0.0-6.0-2.71","2559605","co38284","norming","","","{""curiosity"":2,""confidence"":2}","[0,1]","../img/tt/1107tt.jpg","",""
"4167.275000363588","","","recognition","survey-text","506","1404626","0.0-6.0-3.71","2559605","co38284","norming","","","{""guess"":""vleermuis""}","","../img/tt/1107tt.jpg","",""
"null","../img/gs/1107gs.jpg","null","reveal","image-keyboard-response","507","1406641","0.0-6.0-4.71","2559605","co38284","norming","","","","","","",""
"null","../img/tt/1107tt.jpg","null","mooney2","image-keyboard-response","508","1408655","0.0-6.0-5.71","2559605","co38284","norming","","","","","","",""
"3557.514999061823","","","post_reveal_questions","survey-likert","509","1412215","0.0-6.0-6.71","2559605","co38284","norming","","","{""aha"":1}","[0]","../img/tt/1107tt.jpg","",""
"null","<div style=""font-size:60px;""> </div>","null","fixation","html-keyboard-response","510","1412426","0.0-6.0-0.72","2559605","co38284","norming","","","","","","",""
"null","../img/tt/357tt.jpg","null","mooney1","image-keyboard-response","511","1415445","0.0-6.0-1.72","2559605","co38284","norming","","","","","","",""
"5051.950000226498","","","post_mooney1_questions","survey-likert","512","1420501","0.0-6.0-2.72","2559605","co38284","norming","","","{""curiosity"":3,""confidence"":0}","[0,1]","../img/tt/357tt.jpg","",""
"1084.0249992907047","","","recognition","survey-text","513","1421594","0.0-6.0-3.72","2559605","co38284","norming","","","{""guess"":""""}","","../img/tt/357tt.jpg","",""
"null","../img/gs/357gs.jpg","null","reveal","image-keyboard-response","514","1423604","0.0-6.0-4.72","2559605","co38284","norming","","","","","","",""
"null","../img/tt/357tt.jpg","null","mooney2","image-keyboard-response","515","1425621","0.0-6.0-5.72","2559605","co38284","norming","","","","","","",""
"2147.0599994063377","","","post_reveal_questions","survey-likert","516","1427771","0.0-6.0-6.72","2559605","co38284","norming","","","{""aha"":0}","[0]","../img/tt/357tt.jpg","",""
"null","<div style=""font-size:60px;""> </div>","null","fixation","html-keyboard-response","517","1427976","0.0-6.0-0.73","2559605","co38284","norming","","","","","","",""
"null","../img/tt/1234tt.jpg","null","mooney1","image-keyboard-response","518","1430979","0.0-6.0-1.73","2559605","co38284","norming","","","","","","",""
"6725.680001080036","","","post_mooney1_questions","survey-likert","519","1437709","0.0-6.0-2.73","2559605","co38284","norming","","","{""curiosity"":4,""confidence"":3}","[0,1]","../img/tt/1234tt.jpg","",""
"7488.575000315905","","","recognition","survey-text","520","1445207","0.0-6.0-3.73","2559605","co38284","norming","","","{""guess"":""stokstaartje""}","","../img/tt/1234tt.jpg","",""
"null","../img/gs/1234gs.jpg","null","reveal","image-keyboard-response","521","1447218","0.0-6.0-4.73","2559605","co38284","norming","","","","","","",""
"null","../img/tt/1234tt.jpg","null","mooney2","image-keyboard-response","522","1449227","0.0-6.0-5.73","2559605","co38284","norming","","","","","","",""
"3301.810000091791","","","post_reveal_questions","survey-likert","523","1452533","0.0-6.0-6.73","2559605","co38284","norming","","","{""aha"":2}","[0]","../img/tt/1234tt.jpg","",""
"null","<div style=""font-size:60px;""> </div>","null","fixation","html-keyboard-response","524","1452737","0.0-6.0-0.74","2559605","co38284","norming","","","","","","",""
"null","../img/tt/1217tt.jpg","null","mooney1","image-keyboard-response","525","1455741","0.0-6.0-1.74","2559605","co38284","norming","","","","","","",""
"4521.965000778437","","","post_mooney1_questions","survey-likert","526","1460267","0.0-6.0-2.74","2559605","co38284","norming","","","{""curiosity"":2,""confidence"":3}","[0,1]","../img/tt/1217tt.jpg","",""
"8088.530000299215","","","recognition","survey-text","527","1468363","0.0-6.0-3.74","2559605","co38284","norming","","","{""guess"":""basketbal""}","","../img/tt/1217tt.jpg","",""
"null","../img/gs/1217gs.jpg","null","reveal","image-keyboard-response","528","1470378","0.0-6.0-4.74","2559605","co38284","norming","","","","","","",""
"null","../img/tt/1217tt.jpg","null","mooney2","image-keyboard-response","529","1472383","0.0-6.0-5.74","2559605","co38284","norming","","","","","","",""
"2386.505000293255","","","post_reveal_questions","survey-likert","530","1474773","0.0-6.0-6.74","2559605","co38284","norming","","","{""aha"":2}","[0]","../img/tt/1217tt.jpg","",""
"null","<div style=""font-size:60px;""> </div>","null","fixation","html-keyboard-response","531","1474985","0.0-6.0-0.75","2559605","co38284","norming","","","","","","",""
"null","../img/tt/031tt.jpg","null","mooney1","image-keyboard-response","532","1478000","0.0-6.0-1.75","2559605","co38284","norming","","","","","","",""
"5666.360000148416","","","post_mooney1_questions","survey-likert","533","1483670","0.0-6.0-2.75","2559605","co38284","norming","","","{""curiosity"":4,""confidence"":2}","[0,1]","../img/tt/031tt.jpg","",""
"4398.5600005835295","","","recognition","survey-text","534","1488078","0.0-6.0-3.75","2559605","co38284","norming","","","{""guess"":""beer""}","","../img/tt/031tt.jpg","",""
"null","../img/gs/031gs.jpg","null","reveal","image-keyboard-response","535","1490096","0.0-6.0-4.75","2559605","co38284","norming","","","","","","",""
"null","../img/tt/031tt.jpg","null","mooney2","image-keyboard-response","536","1492112","0.0-6.0-5.75","2559605","co38284","norming","","","","","","",""
"4054.98499982059","","","post_reveal_questions","survey-likert","537","1496170","0.0-6.0-6.75","2559605","co38284","norming","","","{""aha"":3}","[0]","../img/tt/031tt.jpg","",""
"null","<div style=""font-size:60px;""> </div>","null","fixation","html-keyboard-response","538","1496382","0.0-6.0-0.76","2559605","co38284","norming","","","","","","",""
"null","../img/tt/1232tt.jpg","null","mooney1","image-keyboard-response","539","1499385","0.0-6.0-1.76","2559605","co38284","norming","","","","","","",""
"5366.459999233484","","","post_mooney1_questions","survey-likert","540","1504755","0.0-6.0-2.76","2559605","co38284","norming","","","{""curiosity"":5,""confidence"":3}","[0,1]","../img/tt/1232tt.jpg","",""
"2403.415000066161","","","recognition","survey-text","541","1507168","0.0-6.0-3.76","2559605","co38284","norming","","","{""guess"":""mosse""}","","../img/tt/1232tt.jpg","",""
"null","../img/gs/1232gs.jpg","null","reveal","image-keyboard-response","542","1509178","0.0-6.0-4.76","2559605","co38284","norming","","","","","","",""
"null","../img/tt/1232tt.jpg","null","mooney2","image-keyboard-response","543","1511195","0.0-6.0-5.76","2559605","co38284","norming","","","","","","",""
"2604.4699996709824","","","post_reveal_questions","survey-likert","544","1513802","0.0-6.0-6.76","2559605","co38284","norming","","","{""aha"":1}","[0]","../img/tt/1232tt.jpg","",""
"null","<div style=""font-size:60px;""> </div>","null","fixation","html-keyboard-response","545","1514013","0.0-6.0-0.77","2559605","co38284","norming","","","","","","",""
"null","../img/tt/007tt.jpg","null","mooney1","image-keyboard-response","546","1517030","0.0-6.0-1.77","2559605","co38284","norming","","","","","","",""
"4525.940001010895","","","post_mooney1_questions","survey-likert","547","1521546","0.0-6.0-2.77","2559605","co38284","norming","","","{""curiosity"":5,""confidence"":6}","[0,1]","../img/tt/007tt.jpg","",""
"1934.059999883175","","","recognition","survey-text","548","1523489","0.0-6.0-3.77","2559605","co38284","norming","","","{""guess"":""kikker""}","","../img/tt/007tt.jpg","",""
"null","../img/gs/007gs.jpg","null","reveal","image-keyboard-response","549","1525494","0.0-6.0-4.77","2559605","co38284","norming","","","","","","",""
"null","../img/tt/007tt.jpg","null","mooney2","image-keyboard-response","550","1527510","0.0-6.0-5.77","2559605","co38284","norming","","","","","","",""
"5908.144999295473","","","post_reveal_questions","survey-likert","551","1533421","0.0-6.0-6.77","2559605","co38284","norming","","","{""aha"":6}","[0]","../img/tt/007tt.jpg","",""
"null","<div style=""font-size:60px;""> </div>","null","fixation","html-keyboard-response","552","1533636","0.0-6.0-0.78","2559605","co38284","norming","","","","","","",""
