"rt","stimulus","key_press","test_part","trial_type","trial_index","time_elapsed","internal_node_id","totalTime","subject","experiment_name","button_pressed","success","responses","question_order","currentStim","old","correct"
"10492","Welcome to the experiment. This is an online experiment so please don't close the tab/window until we say goodbye.  Press any key to begin.","32","instructions","html-keyboard-response","0","10503","0.0-0.0","3695873","co38374","norming","","","","","","",""
"55151","<div style='word-wrap: break-word; width: 900px'><h3>Please consider this information carefully before deciding whether to participate in this research</h3><ul style='text-align: left; font-size: .8em;'><li><b>Purpose of the research</b>: To examine how people process images.</li><li><b>What you will do in this research</b>:  Stimuli (images) will be presented on the computer and you will be asked different questions about them.</li><li><b>Time required</b>: Participation will take between 45 and 60 minutes to complete.</li><li><b>Risks</b>:  There are no anticipated risks associated with participating in this study. The effects of participating should be comparable to those you would experience from viewing a computer monitor for 30 minutes and using a mouse or keyboard.</li><li><b>Benefits</b>:  This study provides no benefits to you individually except for the credit. The study provides important information about the nature of perception and learning.</li><li><b>Confidentiality</b>:  Your participation in this study will remain confidential. No personally identifiable information will be associated with your data. Your de-identified data may be shared with other researchers and used in future projects.</li><li><b>Participation and withdrawal</b>:  Your participation in this study is completely voluntary and you may refuse to participate or you may choose to withdraw at any time without penalty.</li><li><b>How to contact the researchers</b>: If you have questions or concerns about your participation or payment, or want to request a summary of research findings, please contact Sander Van de Cruys (KU Leuven), at sander.vandecruys@kuleuven.be.</li></ul><p>The nature and purpose of this research have been sufficiently explained and I agree to participate in this study.  I understand that I am free to withdraw at any time without incurring any penalty.</p><p>Please consent by clicking the button below to continue. Otherwise, please exit the study at this time.</p></div>","","instructions","html-button-response","1","65655","0.0-1.0","3695873","co38374","norming","0","","","","","",""
"","","","instructions","fullscreen","2","74455","0.0-2.0","3695873","co38374","norming","","true","","","","",""
"48484","","","sona","survey-html-form","3","122945","0.0-3.0","3695873","co38374","norming","","","[{""name"":""sonaid"",""value"":""38374""},{""name"":""debrief"",""value"":""yes""},{""name"":""datajoin"",""value"":""yes""}]","","","",""
"133346","<div style='word-wrap: break-word; width: 900px'><h3>Instructions</h3><p>This experiment will have 3 parts. In the first part you will see a series of distorted images like the one below on the left. As you can see in the righthand image, the distorted images are derived from actual photographs. In what follows, you will <strong>briefly</strong> be presented with <strong>only</strong> the distorted image.</p> <div style='float: left; margin-right: 20px;'><img src='../img/018tt.jpg' height='250' width='250'></img></div><div style='float: right; margin-left: 20px;'><img src='../img/018gs.jpg' height='250' width='250'></img></div><p>Subsequently you will be asked a few questions about the image: One question on how <strong>curious</strong> you are about the solution and one on how <strong>confident</strong> you are that you know the solution.</p>Next, we ask you to make a guess on what is in the image. Note that it is OK to name just the <strong>basic level category</strong>. For example when you see a parrot in the image, 'parrot' will obviously be a correct answer but also correct is 'bird'. However, 'animal' will <strong>not</strong> be counted as a correct response. For the example above, 'rose' would be correct or 'flower', but not 'plant'. When soccer players are depicted, 'soccer', 'football', 'soccer players' will be correct, but not 'humans', 'outdoors', or 'sports'. You do not need to describe the image in full, just name the main object in it <strong>in one or two words</strong>. All images depict objects from one of the following broad level categories: animals, inanimate objects, plants, sports, vehicles, and food. Recognizing means knowing <strong>more</strong> than these broad labels for a given image. But we always encourage you to <strong>make a guess</strong> if you can. Note that you are allowed to use <strong>Dutch and English</strong> in your answers, whatever comes easiest for you.</p><p>Press any key to continue.</p></div>","32","instructions","html-keyboard-response","4","256290","0.0-4.0","3695873","co38374","norming","","","","","","",""
"2135","<div style='word-wrap: break-word; width: 900px'><h3>Instructions</h3> <p>Next, the solution image will be revealed to you and you'll be asked to indicate how strong your <strong>aha-experience</strong> was after seeing the solution. This describes the positive feeling of the 'click' you sometimes experience, when the pieces of the 'puzzle' fall together and you suddenly have 'insight' in the image.</p><img src='aha.jpg' height='188' width='250'></img><p>Note that there are no right or wrong answers. We are interested in what <strong>you</strong> see in the image and how <strong>you</strong> feel about it.</p><p>Press any key to start the experiment.</p></div>","32","instructions","html-keyboard-response","5","258426","0.0-5.0","3695873","co38374","norming","","","","","","",""
"null","<div style=""font-size:60px;""> </div>","null","fixation","html-keyboard-response","6","258628","0.0-6.0-0.0","3695873","co38374","norming","","","","","","",""
"null","../img/tt/412tt.jpg","null","mooney1","image-keyboard-response","7","261630","0.0-6.0-1.0","3695873","co38374","norming","","","","","","",""
"22428","","","post_mooney1_questions","survey-likert","8","284061","0.0-6.0-2.0","3695873","co38374","norming","","","{""curiosity"":2,""confidence"":2}","[0,1]","../img/tt/412tt.jpg","",""
"13391","","","recognition","survey-text","9","297459","0.0-6.0-3.0","3695873","co38374","norming","","","{""guess"":""mensen""}","","../img/tt/412tt.jpg","",""
"null","../img/gs/412gs.jpg","null","reveal","image-keyboard-response","10","299461","0.0-6.0-4.0","3695873","co38374","norming","","","","","","",""
"null","../img/tt/412tt.jpg","null","mooney2","image-keyboard-response","11","301464","0.0-6.0-5.0","3695873","co38374","norming","","","","","","",""
"8659","","","post_reveal_questions","survey-likert","12","310125","0.0-6.0-6.0","3695873","co38374","norming","","","{""aha"":4}","[0]","../img/tt/412tt.jpg","",""
"null","<div style=""font-size:60px;""> </div>","null","fixation","html-keyboard-response","13","310327","0.0-6.0-0.1","3695873","co38374","norming","","","","","","",""
"null","../img/tt/1069tt.jpg","null","mooney1","image-keyboard-response","14","313329","0.0-6.0-1.1","3695873","co38374","norming","","","","","","",""
"8161","","","post_mooney1_questions","survey-likert","15","321490","0.0-6.0-2.1","3695873","co38374","norming","","","{""curiosity"":1,""confidence"":6}","[0,1]","../img/tt/1069tt.jpg","",""
"5954","","","recognition","survey-text","16","327450","0.0-6.0-3.1","3695873","co38374","norming","","","{""guess"":""Schaap""}","","../img/tt/1069tt.jpg","",""
"null","../img/gs/1069gs.jpg","null","reveal","image-keyboard-response","17","329452","0.0-6.0-4.1","3695873","co38374","norming","","","","","","",""
"null","../img/tt/1069tt.jpg","null","mooney2","image-keyboard-response","18","331455","0.0-6.0-5.1","3695873","co38374","norming","","","","","","",""
"6073.999999999942","","","post_reveal_questions","survey-likert","19","337529","0.0-6.0-6.1","3695873","co38374","norming","","","{""aha"":2}","[0]","../img/tt/1069tt.jpg","",""
"null","<div style=""font-size:60px;""> </div>","null","fixation","html-keyboard-response","20","337732","0.0-6.0-0.2","3695873","co38374","norming","","","","","","",""
"null","../img/tt/091tt.jpg","null","mooney1","image-keyboard-response","21","340734","0.0-6.0-1.2","3695873","co38374","norming","","","","","","",""
"11529","","","post_mooney1_questions","survey-likert","22","352267","0.0-6.0-2.2","3695873","co38374","norming","","","{""curiosity"":5,""confidence"":0}","[0,1]","../img/tt/091tt.jpg","",""
"2649","","","recognition","survey-text","23","354921","0.0-6.0-3.2","3695873","co38374","norming","","","{""guess"":""""}","","../img/tt/091tt.jpg","",""
"null","../img/gs/091gs.jpg","null","reveal","image-keyboard-response","24","356923","0.0-6.0-4.2","3695873","co38374","norming","","","","","","",""
"null","../img/tt/091tt.jpg","null","mooney2","image-keyboard-response","25","358926","0.0-6.0-5.2","3695873","co38374","norming","","","","","","",""
"3017","","","post_reveal_questions","survey-likert","26","361944","0.0-6.0-6.2","3695873","co38374","norming","","","{""aha"":5}","[0]","../img/tt/091tt.jpg","",""
"null","<div style=""font-size:60px;""> </div>","null","fixation","html-keyboard-response","27","362147","0.0-6.0-0.3","3695873","co38374","norming","","","","","","",""
"null","../img/tt/270tt.jpg","null","mooney1","image-keyboard-response","28","365149","0.0-6.0-1.3","3695873","co38374","norming","","","","","","",""
"5797","","","post_mooney1_questions","survey-likert","29","370949","0.0-6.0-2.3","3695873","co38374","norming","","","{""curiosity"":6,""confidence"":0}","[0,1]","../img/tt/270tt.jpg","",""
"965.9999999999418","","","recognition","survey-text","30","371920","0.0-6.0-3.3","3695873","co38374","norming","","","{""guess"":""""}","","../img/tt/270tt.jpg","",""
"null","../img/gs/270gs.jpg","null","reveal","image-keyboard-response","31","373923","0.0-6.0-4.3","3695873","co38374","norming","","","","","","",""
"null","../img/tt/270tt.jpg","null","mooney2","image-keyboard-response","32","375925","0.0-6.0-5.3","3695873","co38374","norming","","","","","","",""
"3315.000000000058","","","post_reveal_questions","survey-likert","33","379240","0.0-6.0-6.3","3695873","co38374","norming","","","{""aha"":6}","[0]","../img/tt/270tt.jpg","",""
"null","<div style=""font-size:60px;""> </div>","null","fixation","html-keyboard-response","34","379443","0.0-6.0-0.4","3695873","co38374","norming","","","","","","",""
"null","../img/tt/315tt.jpg","null","mooney1","image-keyboard-response","35","382445","0.0-6.0-1.4","3695873","co38374","norming","","","","","","",""
"10213","","","post_mooney1_questions","survey-likert","36","392659","0.0-6.0-2.4","3695873","co38374","norming","","","{""curiosity"":6,""confidence"":0}","[0,1]","../img/tt/315tt.jpg","",""
"1239","","","recognition","survey-text","37","393904","0.0-6.0-3.4","3695873","co38374","norming","","","{""guess"":""""}","","../img/tt/315tt.jpg","",""
"null","../img/gs/315gs.jpg","null","reveal","image-keyboard-response","38","395907","0.0-6.0-4.4","3695873","co38374","norming","","","","","","",""
"null","../img/tt/315tt.jpg","null","mooney2","image-keyboard-response","39","397909","0.0-6.0-5.4","3695873","co38374","norming","","","","","","",""
"9956","","","post_reveal_questions","survey-likert","40","407866","0.0-6.0-6.4","3695873","co38374","norming","","","{""aha"":6}","[0]","../img/tt/315tt.jpg","",""
"null","<div style=""font-size:60px;""> </div>","null","fixation","html-keyboard-response","41","408069","0.0-6.0-0.5","3695873","co38374","norming","","","","","","",""
"null","../img/tt/1362tt.jpg","null","mooney1","image-keyboard-response","42","411072","0.0-6.0-1.5","3695873","co38374","norming","","","","","","",""
"7127","","","post_mooney1_questions","survey-likert","43","418201","0.0-6.0-2.5","3695873","co38374","norming","","","{""curiosity"":6,""confidence"":1}","[0,1]","../img/tt/1362tt.jpg","",""
"7129","","","recognition","survey-text","44","425335","0.0-6.0-3.5","3695873","co38374","norming","","","{""guess"":""platenspeler""}","","../img/tt/1362tt.jpg","",""
"null","../img/gs/1362gs.jpg","null","reveal","image-keyboard-response","45","427338","0.0-6.0-4.5","3695873","co38374","norming","","","","","","",""
"null","../img/tt/1362tt.jpg","null","mooney2","image-keyboard-response","46","429340","0.0-6.0-5.5","3695873","co38374","norming","","","","","","",""
"1810","","","post_reveal_questions","survey-likert","47","431151","0.0-6.0-6.5","3695873","co38374","norming","","","{""aha"":5}","[0]","../img/tt/1362tt.jpg","",""
"null","<div style=""font-size:60px;""> </div>","null","fixation","html-keyboard-response","48","431354","0.0-6.0-0.6","3695873","co38374","norming","","","","","","",""
"null","../img/tt/194tt.jpg","null","mooney1","image-keyboard-response","49","434357","0.0-6.0-1.6","3695873","co38374","norming","","","","","","",""
"6313.999999999942","","","post_mooney1_questions","survey-likert","50","440672","0.0-6.0-2.6","3695873","co38374","norming","","","{""curiosity"":1,""confidence"":5}","[0,1]","../img/tt/194tt.jpg","",""
"7698","","","recognition","survey-text","51","448375","0.0-6.0-3.6","3695873","co38374","norming","","","{""guess"":""harpspeelster""}","","../img/tt/194tt.jpg","",""
"null","../img/gs/194gs.jpg","null","reveal","image-keyboard-response","52","450378","0.0-6.0-4.6","3695873","co38374","norming","","","","","","",""
"null","../img/tt/194tt.jpg","null","mooney2","image-keyboard-response","53","452381","0.0-6.0-5.6","3695873","co38374","norming","","","","","","",""
"4033","","","post_reveal_questions","survey-likert","54","456415","0.0-6.0-6.6","3695873","co38374","norming","","","{""aha"":1}","[0]","../img/tt/194tt.jpg","",""
"null","<div style=""font-size:60px;""> </div>","null","fixation","html-keyboard-response","55","456617","0.0-6.0-0.7","3695873","co38374","norming","","","","","","",""
"null","../img/tt/1275tt.jpg","null","mooney1","image-keyboard-response","56","459620","0.0-6.0-1.7","3695873","co38374","norming","","","","","","",""
"7380.000000000058","","","post_mooney1_questions","survey-likert","57","467002","0.0-6.0-2.7","3695873","co38374","norming","","","{""curiosity"":5,""confidence"":2}","[0,1]","../img/tt/1275tt.jpg","",""
"3343","","","recognition","survey-text","58","470350","0.0-6.0-3.7","3695873","co38374","norming","","","{""guess"":""tijger""}","","../img/tt/1275tt.jpg","",""
"null","../img/gs/1275gs.jpg","null","reveal","image-keyboard-response","59","472352","0.0-6.0-4.7","3695873","co38374","norming","","","","","","",""
"null","../img/tt/1275tt.jpg","null","mooney2","image-keyboard-response","60","474355","0.0-6.0-5.7","3695873","co38374","norming","","","","","","",""
"3699","","","post_reveal_questions","survey-likert","61","478054","0.0-6.0-6.7","3695873","co38374","norming","","","{""aha"":6}","[0]","../img/tt/1275tt.jpg","",""
"null","<div style=""font-size:60px;""> </div>","null","fixation","html-keyboard-response","62","478257","0.0-6.0-0.8","3695873","co38374","norming","","","","","","",""
"null","../img/tt/517tt.jpg","null","mooney1","image-keyboard-response","63","481259","0.0-6.0-1.8","3695873","co38374","norming","","","","","","",""
"9828","","","post_mooney1_questions","survey-likert","64","491089","0.0-6.0-2.8","3695873","co38374","norming","","","{""curiosity"":5,""confidence"":2}","[0,1]","../img/tt/517tt.jpg","",""
"3632","","","recognition","survey-text","65","494726","0.0-6.0-3.8","3695873","co38374","norming","","","{""guess"":""wasbeer""}","","../img/tt/517tt.jpg","",""
"null","../img/gs/517gs.jpg","null","reveal","image-keyboard-response","66","496729","0.0-6.0-4.8","3695873","co38374","norming","","","","","","",""
"null","../img/tt/517tt.jpg","null","mooney2","image-keyboard-response","67","498731","0.0-6.0-5.8","3695873","co38374","norming","","","","","","",""
"4546","","","post_reveal_questions","survey-likert","68","503278","0.0-6.0-6.8","3695873","co38374","norming","","","{""aha"":4}","[0]","../img/tt/517tt.jpg","",""
"null","<div style=""font-size:60px;""> </div>","null","fixation","html-keyboard-response","69","503481","0.0-6.0-0.9","3695873","co38374","norming","","","","","","",""
"null","../img/tt/318tt.jpg","null","mooney1","image-keyboard-response","70","506483","0.0-6.0-1.9","3695873","co38374","norming","","","","","","",""
"7530","","","post_mooney1_questions","survey-likert","71","514014","0.0-6.0-2.9","3695873","co38374","norming","","","{""curiosity"":6,""confidence"":1}","[0,1]","../img/tt/318tt.jpg","",""
"5186.000000000058","","","recognition","survey-text","72","519206","0.0-6.0-3.9","3695873","co38374","norming","","","{""guess"":""instrument""}","","../img/tt/318tt.jpg","",""
"null","../img/gs/318gs.jpg","null","reveal","image-keyboard-response","73","521208","0.0-6.0-4.9","3695873","co38374","norming","","","","","","",""
"null","../img/tt/318tt.jpg","null","mooney2","image-keyboard-response","74","523211","0.0-6.0-5.9","3695873","co38374","norming","","","","","","",""
"4562","","","post_reveal_questions","survey-likert","75","527773","0.0-6.0-6.9","3695873","co38374","norming","","","{""aha"":6}","[0]","../img/tt/318tt.jpg","",""
"null","<div style=""font-size:60px;""> </div>","null","fixation","html-keyboard-response","76","527976","0.0-6.0-0.10","3695873","co38374","norming","","","","","","",""
"null","../img/tt/056tt.jpg","null","mooney1","image-keyboard-response","77","530978","0.0-6.0-1.10","3695873","co38374","norming","","","","","","",""
"8885","","","post_mooney1_questions","survey-likert","78","539864","0.0-6.0-2.10","3695873","co38374","norming","","","{""curiosity"":4,""confidence"":4}","[0,1]","../img/tt/056tt.jpg","",""
"2870","","","recognition","survey-text","79","542741","0.0-6.0-3.10","3695873","co38374","norming","","","{""guess"":""wolf""}","","../img/tt/056tt.jpg","",""
"null","../img/gs/056gs.jpg","null","reveal","image-keyboard-response","80","544744","0.0-6.0-4.10","3695873","co38374","norming","","","","","","",""
"null","../img/tt/056tt.jpg","null","mooney2","image-keyboard-response","81","546746","0.0-6.0-5.10","3695873","co38374","norming","","","","","","",""
"3314","","","post_reveal_questions","survey-likert","82","550061","0.0-6.0-6.10","3695873","co38374","norming","","","{""aha"":5}","[0]","../img/tt/056tt.jpg","",""
"null","<div style=""font-size:60px;""> </div>","null","fixation","html-keyboard-response","83","550263","0.0-6.0-0.11","3695873","co38374","norming","","","","","","",""
"null","../img/tt/418tt.jpg","null","mooney1","image-keyboard-response","84","553266","0.0-6.0-1.11","3695873","co38374","norming","","","","","","",""
"5650","","","post_mooney1_questions","survey-likert","85","558918","0.0-6.0-2.11","3695873","co38374","norming","","","{""curiosity"":6,""confidence"":0}","[0,1]","../img/tt/418tt.jpg","",""
"1098","","","recognition","survey-text","86","560020","0.0-6.0-3.11","3695873","co38374","norming","","","{""guess"":""""}","","../img/tt/418tt.jpg","",""
"null","../img/gs/418gs.jpg","null","reveal","image-keyboard-response","87","562023","0.0-6.0-4.11","3695873","co38374","norming","","","","","","",""
"null","../img/tt/418tt.jpg","null","mooney2","image-keyboard-response","88","564026","0.0-6.0-5.11","3695873","co38374","norming","","","","","","",""
"5674","","","post_reveal_questions","survey-likert","89","569701","0.0-6.0-6.11","3695873","co38374","norming","","","{""aha"":5}","[0]","../img/tt/418tt.jpg","",""
"null","<div style=""font-size:60px;""> </div>","null","fixation","html-keyboard-response","90","569903","0.0-6.0-0.12","3695873","co38374","norming","","","","","","",""
"null","../img/tt/007tt.jpg","null","mooney1","image-keyboard-response","91","572906","0.0-6.0-1.12","3695873","co38374","norming","","","","","","",""
"11196","","","post_mooney1_questions","survey-likert","92","584103","0.0-6.0-2.12","3695873","co38374","norming","","","{""curiosity"":6,""confidence"":2}","[0,1]","../img/tt/007tt.jpg","",""
"5136","","","recognition","survey-text","93","589244","0.0-6.0-3.12","3695873","co38374","norming","","","{""guess"":""walrus""}","","../img/tt/007tt.jpg","",""
"null","../img/gs/007gs.jpg","null","reveal","image-keyboard-response","94","591247","0.0-6.0-4.12","3695873","co38374","norming","","","","","","",""
"null","../img/tt/007tt.jpg","null","mooney2","image-keyboard-response","95","593249","0.0-6.0-5.12","3695873","co38374","norming","","","","","","",""
"3554","","","post_reveal_questions","survey-likert","96","596804","0.0-6.0-6.12","3695873","co38374","norming","","","{""aha"":6}","[0]","../img/tt/007tt.jpg","",""
"null","<div style=""font-size:60px;""> </div>","null","fixation","html-keyboard-response","97","597006","0.0-6.0-0.13","3695873","co38374","norming","","","","","","",""
"null","../img/tt/1199tt.jpg","null","mooney1","image-keyboard-response","98","600009","0.0-6.0-1.13","3695873","co38374","norming","","","","","","",""
"9762","","","post_mooney1_questions","survey-likert","99","609772","0.0-6.0-2.13","3695873","co38374","norming","","","{""curiosity"":6,""confidence"":0}","[0,1]","../img/tt/1199tt.jpg","",""
"1001.9999999998836","","","recognition","survey-text","100","610779","0.0-6.0-3.13","3695873","co38374","norming","","","{""guess"":""""}","","../img/tt/1199tt.jpg","",""
"null","../img/gs/1199gs.jpg","null","reveal","image-keyboard-response","101","612782","0.0-6.0-4.13","3695873","co38374","norming","","","","","","",""
"null","../img/tt/1199tt.jpg","null","mooney2","image-keyboard-response","102","614786","0.0-6.0-5.13","3695873","co38374","norming","","","","","","",""
"2945","","","post_reveal_questions","survey-likert","103","617732","0.0-6.0-6.13","3695873","co38374","norming","","","{""aha"":6}","[0]","../img/tt/1199tt.jpg","",""
"null","<div style=""font-size:60px;""> </div>","null","fixation","html-keyboard-response","104","617934","0.0-6.0-0.14","3695873","co38374","norming","","","","","","",""
"null","../img/tt/1128tt.jpg","null","mooney1","image-keyboard-response","105","620937","0.0-6.0-1.14","3695873","co38374","norming","","","","","","",""
"5393","","","post_mooney1_questions","survey-likert","106","626333","0.0-6.0-2.14","3695873","co38374","norming","","","{""curiosity"":4,""confidence"":0}","[0,1]","../img/tt/1128tt.jpg","",""
"969","","","recognition","survey-text","107","627307","0.0-6.0-3.14","3695873","co38374","norming","","","{""guess"":""""}","","../img/tt/1128tt.jpg","",""
"null","../img/gs/1128gs.jpg","null","reveal","image-keyboard-response","108","629310","0.0-6.0-4.14","3695873","co38374","norming","","","","","","",""
"null","../img/tt/1128tt.jpg","null","mooney2","image-keyboard-response","109","631313","0.0-6.0-5.14","3695873","co38374","norming","","","","","","",""
"5058","","","post_reveal_questions","survey-likert","110","636371","0.0-6.0-6.14","3695873","co38374","norming","","","{""aha"":2}","[0]","../img/tt/1128tt.jpg","",""
"null","<div style=""font-size:60px;""> </div>","null","fixation","html-keyboard-response","111","636574","0.0-6.0-0.15","3695873","co38374","norming","","","","","","",""
"null","../img/tt/1255tt.jpg","null","mooney1","image-keyboard-response","112","639577","0.0-6.0-1.15","3695873","co38374","norming","","","","","","",""
"3729","","","post_mooney1_questions","survey-likert","113","643307","0.0-6.0-2.15","3695873","co38374","norming","","","{""curiosity"":6,""confidence"":1}","[0,1]","../img/tt/1255tt.jpg","",""
"3250","","","recognition","survey-text","114","646563","0.0-6.0-3.15","3695873","co38374","norming","","","{""guess"":""konijn""}","","../img/tt/1255tt.jpg","",""
"null","../img/gs/1255gs.jpg","null","reveal","image-keyboard-response","115","648566","0.0-6.0-4.15","3695873","co38374","norming","","","","","","",""
"null","../img/tt/1255tt.jpg","null","mooney2","image-keyboard-response","116","650568","0.0-6.0-5.15","3695873","co38374","norming","","","","","","",""
"3426","","","post_reveal_questions","survey-likert","117","653995","0.0-6.0-6.15","3695873","co38374","norming","","","{""aha"":5}","[0]","../img/tt/1255tt.jpg","",""
"null","<div style=""font-size:60px;""> </div>","null","fixation","html-keyboard-response","118","654197","0.0-6.0-0.16","3695873","co38374","norming","","","","","","",""
"null","../img/tt/279tt.jpg","null","mooney1","image-keyboard-response","119","657199","0.0-6.0-1.16","3695873","co38374","norming","","","","","","",""
"7577","","","post_mooney1_questions","survey-likert","120","664780","0.0-6.0-2.16","3695873","co38374","norming","","","{""curiosity"":6,""confidence"":1}","[0,1]","../img/tt/279tt.jpg","",""
"4529","","","recognition","survey-text","121","669314","0.0-6.0-3.16","3695873","co38374","norming","","","{""guess"":""danser""}","","../img/tt/279tt.jpg","",""
"null","../img/gs/279gs.jpg","null","reveal","image-keyboard-response","122","671317","0.0-6.0-4.16","3695873","co38374","norming","","","","","","",""
"null","../img/tt/279tt.jpg","null","mooney2","image-keyboard-response","123","673319","0.0-6.0-5.16","3695873","co38374","norming","","","","","","",""
"3945","","","post_reveal_questions","survey-likert","124","677266","0.0-6.0-6.16","3695873","co38374","norming","","","{""aha"":0}","[0]","../img/tt/279tt.jpg","",""
"null","<div style=""font-size:60px;""> </div>","null","fixation","html-keyboard-response","125","677468","0.0-6.0-0.17","3695873","co38374","norming","","","","","","",""
"null","../img/tt/1173tt.jpg","null","mooney1","image-keyboard-response","126","680471","0.0-6.0-1.17","3695873","co38374","norming","","","","","","",""
"8761.999999999884","","","post_mooney1_questions","survey-likert","127","689236","0.0-6.0-2.17","3695873","co38374","norming","","","{""curiosity"":5,""confidence"":1}","[0,1]","../img/tt/1173tt.jpg","",""
"9393","","","recognition","survey-text","128","698634","0.0-6.0-3.17","3695873","co38374","norming","","","{""guess"":""gymnast""}","","../img/tt/1173tt.jpg","",""
"null","../img/gs/1173gs.jpg","null","reveal","image-keyboard-response","129","700637","0.0-6.0-4.17","3695873","co38374","norming","","","","","","",""
"null","../img/tt/1173tt.jpg","null","mooney2","image-keyboard-response","130","702640","0.0-6.0-5.17","3695873","co38374","norming","","","","","","",""
"5802","","","post_reveal_questions","survey-likert","131","708443","0.0-6.0-6.17","3695873","co38374","norming","","","{""aha"":4}","[0]","../img/tt/1173tt.jpg","",""
"null","<div style=""font-size:60px;""> </div>","null","fixation","html-keyboard-response","132","708646","0.0-6.0-0.18","3695873","co38374","norming","","","","","","",""
"null","../img/tt/1250tt.jpg","null","mooney1","image-keyboard-response","133","711649","0.0-6.0-1.18","3695873","co38374","norming","","","","","","",""
"9440","","","post_mooney1_questions","survey-likert","134","721090","0.0-6.0-2.18","3695873","co38374","norming","","","{""curiosity"":6,""confidence"":1}","[0,1]","../img/tt/1250tt.jpg","",""
"4754","","","recognition","survey-text","135","725849","0.0-6.0-3.18","3695873","co38374","norming","","","{""guess"":""surfer""}","","../img/tt/1250tt.jpg","",""
"null","../img/gs/1250gs.jpg","null","reveal","image-keyboard-response","136","727852","0.0-6.0-4.18","3695873","co38374","norming","","","","","","",""
"null","../img/tt/1250tt.jpg","null","mooney2","image-keyboard-response","137","729854","0.0-6.0-5.18","3695873","co38374","norming","","","","","","",""
"3409","","","post_reveal_questions","survey-likert","138","733265","0.0-6.0-6.18","3695873","co38374","norming","","","{""aha"":0}","[0]","../img/tt/1250tt.jpg","",""
"null","<div style=""font-size:60px;""> </div>","null","fixation","html-keyboard-response","139","733468","0.0-6.0-0.19","3695873","co38374","norming","","","","","","",""
"null","../img/tt/1044tt.jpg","null","mooney1","image-keyboard-response","140","736470","0.0-6.0-1.19","3695873","co38374","norming","","","","","","",""
"4794","","","post_mooney1_questions","survey-likert","141","741265","0.0-6.0-2.19","3695873","co38374","norming","","","{""curiosity"":2,""confidence"":0}","[0,1]","../img/tt/1044tt.jpg","",""
"753.9999999998836","","","recognition","survey-text","142","742024","0.0-6.0-3.19","3695873","co38374","norming","","","{""guess"":""""}","","../img/tt/1044tt.jpg","",""
"null","../img/gs/1044gs.jpg","null","reveal","image-keyboard-response","143","744027","0.0-6.0-4.19","3695873","co38374","norming","","","","","","",""
"null","../img/tt/1044tt.jpg","null","mooney2","image-keyboard-response","144","746030","0.0-6.0-5.19","3695873","co38374","norming","","","","","","",""
"6450.999999999884","","","post_reveal_questions","survey-likert","145","752481","0.0-6.0-6.19","3695873","co38374","norming","","","{""aha"":1}","[0]","../img/tt/1044tt.jpg","",""
"null","<div style=""font-size:60px;""> </div>","null","fixation","html-keyboard-response","146","752683","0.0-6.0-0.20","3695873","co38374","norming","","","","","","",""
"null","../img/tt/1171tt.jpg","null","mooney1","image-keyboard-response","147","755686","0.0-6.0-1.20","3695873","co38374","norming","","","","","","",""
"8948","","","post_mooney1_questions","survey-likert","148","764635","0.0-6.0-2.20","3695873","co38374","norming","","","{""curiosity"":5,""confidence"":0}","[0,1]","../img/tt/1171tt.jpg","",""
"753","","","recognition","survey-text","149","765393","0.0-6.0-3.20","3695873","co38374","norming","","","{""guess"":""""}","","../img/tt/1171tt.jpg","",""
"null","../img/gs/1171gs.jpg","null","reveal","image-keyboard-response","150","767395","0.0-6.0-4.20","3695873","co38374","norming","","","","","","",""
"null","../img/tt/1171tt.jpg","null","mooney2","image-keyboard-response","151","769398","0.0-6.0-5.20","3695873","co38374","norming","","","","","","",""
"5762","","","post_reveal_questions","survey-likert","152","775160","0.0-6.0-6.20","3695873","co38374","norming","","","{""aha"":2}","[0]","../img/tt/1171tt.jpg","",""
"null","<div style=""font-size:60px;""> </div>","null","fixation","html-keyboard-response","153","775363","0.0-6.0-0.21","3695873","co38374","norming","","","","","","",""
"null","../img/tt/1269tt.jpg","null","mooney1","image-keyboard-response","154","778365","0.0-6.0-1.21","3695873","co38374","norming","","","","","","",""
"10636","","","post_mooney1_questions","survey-likert","155","789002","0.0-6.0-2.21","3695873","co38374","norming","","","{""curiosity"":6,""confidence"":4}","[0,1]","../img/tt/1269tt.jpg","",""
"8737","","","recognition","survey-text","156","797744","0.0-6.0-3.21","3695873","co38374","norming","","","{""guess"":""katachtige""}","","../img/tt/1269tt.jpg","",""
"null","../img/gs/1269gs.jpg","null","reveal","image-keyboard-response","157","799746","0.0-6.0-4.21","3695873","co38374","norming","","","","","","",""
"null","../img/tt/1269tt.jpg","null","mooney2","image-keyboard-response","158","801749","0.0-6.0-5.21","3695873","co38374","norming","","","","","","",""
"2561.9999999998836","","","post_reveal_questions","survey-likert","159","804312","0.0-6.0-6.21","3695873","co38374","norming","","","{""aha"":5}","[0]","../img/tt/1269tt.jpg","",""
"null","<div style=""font-size:60px;""> </div>","null","fixation","html-keyboard-response","160","804514","0.0-6.0-0.22","3695873","co38374","norming","","","","","","",""
"null","../img/tt/496tt.jpg","null","mooney1","image-keyboard-response","161","807517","0.0-6.0-1.22","3695873","co38374","norming","","","","","","",""
"10320","","","post_mooney1_questions","survey-likert","162","817841","0.0-6.0-2.22","3695873","co38374","norming","","","{""curiosity"":5,""confidence"":1}","[0,1]","../img/tt/496tt.jpg","",""
"2553","","","recognition","survey-text","163","824139","0.0-6.0-3.22","3695873","co38374","norming","","","{""guess"":""beer""}","","../img/tt/496tt.jpg","",""
"null","../img/gs/496gs.jpg","null","reveal","image-keyboard-response","164","826142","0.0-6.0-4.22","3695873","co38374","norming","","","","","","",""
"null","../img/tt/496tt.jpg","null","mooney2","image-keyboard-response","165","828145","0.0-6.0-5.22","3695873","co38374","norming","","","","","","",""
"3034","","","post_reveal_questions","survey-likert","166","831180","0.0-6.0-6.22","3695873","co38374","norming","","","{""aha"":6}","[0]","../img/tt/496tt.jpg","",""
"null","<div style=""font-size:60px;""> </div>","null","fixation","html-keyboard-response","167","831382","0.0-6.0-0.23","3695873","co38374","norming","","","","","","",""
"null","../img/tt/1272tt.jpg","null","mooney1","image-keyboard-response","168","834385","0.0-6.0-1.23","3695873","co38374","norming","","","","","","",""
"6240","","","post_mooney1_questions","survey-likert","169","840628","0.0-6.0-2.23","3695873","co38374","norming","","","{""curiosity"":6,""confidence"":2}","[0,1]","../img/tt/1272tt.jpg","",""
"4337","","","recognition","survey-text","170","844971","0.0-6.0-3.23","3695873","co38374","norming","","","{""guess"":""schaatser""}","","../img/tt/1272tt.jpg","",""
"null","../img/gs/1272gs.jpg","null","reveal","image-keyboard-response","171","846973","0.0-6.0-4.23","3695873","co38374","norming","","","","","","",""
"null","../img/tt/1272tt.jpg","null","mooney2","image-keyboard-response","172","848976","0.0-6.0-5.23","3695873","co38374","norming","","","","","","",""
"5988","","","post_reveal_questions","survey-likert","173","854965","0.0-6.0-6.23","3695873","co38374","norming","","","{""aha"":0}","[0]","../img/tt/1272tt.jpg","",""
"null","<div style=""font-size:60px;""> </div>","null","fixation","html-keyboard-response","174","855167","0.0-6.0-0.24","3695873","co38374","norming","","","","","","",""
"null","../img/tt/079tt.jpg","null","mooney1","image-keyboard-response","175","858169","0.0-6.0-1.24","3695873","co38374","norming","","","","","","",""
"8833.000000000116","","","post_mooney1_questions","survey-likert","176","867003","0.0-6.0-2.24","3695873","co38374","norming","","","{""curiosity"":6,""confidence"":2}","[0,1]","../img/tt/079tt.jpg","",""
"3538","","","recognition","survey-text","177","870546","0.0-6.0-3.24","3695873","co38374","norming","","","{""guess"":""tijger""}","","../img/tt/079tt.jpg","",""
"null","../img/gs/079gs.jpg","null","reveal","image-keyboard-response","178","872549","0.0-6.0-4.24","3695873","co38374","norming","","","","","","",""
"null","../img/tt/079tt.jpg","null","mooney2","image-keyboard-response","179","874552","0.0-6.0-5.24","3695873","co38374","norming","","","","","","",""
"4780","","","post_reveal_questions","survey-likert","180","879332","0.0-6.0-6.24","3695873","co38374","norming","","","{""aha"":4}","[0]","../img/tt/079tt.jpg","",""
"null","<div style=""font-size:60px;""> </div>","null","fixation","html-keyboard-response","181","879535","0.0-6.0-0.25","3695873","co38374","norming","","","","","","",""
"null","../img/tt/036tt.jpg","null","mooney1","image-keyboard-response","182","882538","0.0-6.0-1.25","3695873","co38374","norming","","","","","","",""
"16264","","","post_mooney1_questions","survey-likert","183","898804","0.0-6.0-2.25","3695873","co38374","norming","","","{""curiosity"":6,""confidence"":1}","[0,1]","../img/tt/036tt.jpg","",""
"3993","","","recognition","survey-text","184","902802","0.0-6.0-3.25","3695873","co38374","norming","","","{""guess"":""bliksem""}","","../img/tt/036tt.jpg","",""
"null","../img/gs/036gs.jpg","null","reveal","image-keyboard-response","185","904805","0.0-6.0-4.25","3695873","co38374","norming","","","","","","",""
"null","../img/tt/036tt.jpg","null","mooney2","image-keyboard-response","186","906809","0.0-6.0-5.25","3695873","co38374","norming","","","","","","",""
"10615.999999999884","","","post_reveal_questions","survey-likert","187","917426","0.0-6.0-6.25","3695873","co38374","norming","","","{""aha"":2}","[0]","../img/tt/036tt.jpg","",""
"null","<div style=""font-size:60px;""> </div>","null","fixation","html-keyboard-response","188","917628","0.0-6.0-0.26","3695873","co38374","norming","","","","","","",""
"null","../img/tt/1122tt.jpg","null","mooney1","image-keyboard-response","189","920631","0.0-6.0-1.26","3695873","co38374","norming","","","","","","",""
"5665.999999999884","","","post_mooney1_questions","survey-likert","190","926298","0.0-6.0-2.26","3695873","co38374","norming","","","{""curiosity"":6,""confidence"":3}","[0,1]","../img/tt/1122tt.jpg","",""
"2794","","","recognition","survey-text","191","929098","0.0-6.0-3.26","3695873","co38374","norming","","","{""guess"":""aula""}","","../img/tt/1122tt.jpg","",""
"null","../img/gs/1122gs.jpg","null","reveal","image-keyboard-response","192","931101","0.0-6.0-4.26","3695873","co38374","norming","","","","","","",""
"null","../img/tt/1122tt.jpg","null","mooney2","image-keyboard-response","193","933103","0.0-6.0-5.26","3695873","co38374","norming","","","","","","",""
"4498","","","post_reveal_questions","survey-likert","194","937602","0.0-6.0-6.26","3695873","co38374","norming","","","{""aha"":3}","[0]","../img/tt/1122tt.jpg","",""
"null","<div style=""font-size:60px;""> </div>","null","fixation","html-keyboard-response","195","937804","0.0-6.0-0.27","3695873","co38374","norming","","","","","","",""
"null","../img/tt/044tt.jpg","null","mooney1","image-keyboard-response","196","940807","0.0-6.0-1.27","3695873","co38374","norming","","","","","","",""
"6874","","","post_mooney1_questions","survey-likert","197","947682","0.0-6.0-2.27","3695873","co38374","norming","","","{""curiosity"":5,""confidence"":1}","[0,1]","../img/tt/044tt.jpg","",""
"4874","","","recognition","survey-text","198","952561","0.0-6.0-3.27","3695873","co38374","norming","","","{""guess"":""computer""}","","../img/tt/044tt.jpg","",""
"null","../img/gs/044gs.jpg","null","reveal","image-keyboard-response","199","954563","0.0-6.0-4.27","3695873","co38374","norming","","","","","","",""
"null","../img/tt/044tt.jpg","null","mooney2","image-keyboard-response","200","956565","0.0-6.0-5.27","3695873","co38374","norming","","","","","","",""
"3707","","","post_reveal_questions","survey-likert","201","960273","0.0-6.0-6.27","3695873","co38374","norming","","","{""aha"":0}","[0]","../img/tt/044tt.jpg","",""
"null","<div style=""font-size:60px;""> </div>","null","fixation","html-keyboard-response","202","960475","0.0-6.0-0.28","3695873","co38374","norming","","","","","","",""
"null","../img/tt/1102tt.jpg","null","mooney1","image-keyboard-response","203","963478","0.0-6.0-1.28","3695873","co38374","norming","","","","","","",""
"14008","","","post_mooney1_questions","survey-likert","204","977489","0.0-6.0-2.28","3695873","co38374","norming","","","{""curiosity"":4,""confidence"":1}","[0,1]","../img/tt/1102tt.jpg","",""
"8274","","","recognition","survey-text","205","985769","0.0-6.0-3.28","3695873","co38374","norming","","","{""guess"":""schilderij vrouw""}","","../img/tt/1102tt.jpg","",""
"null","../img/gs/1102gs.jpg","null","reveal","image-keyboard-response","206","987771","0.0-6.0-4.28","3695873","co38374","norming","","","","","","",""
"null","../img/tt/1102tt.jpg","null","mooney2","image-keyboard-response","207","989774","0.0-6.0-5.28","3695873","co38374","norming","","","","","","",""
"3217.9999999998836","","","post_reveal_questions","survey-likert","208","992992","0.0-6.0-6.28","3695873","co38374","norming","","","{""aha"":1}","[0]","../img/tt/1102tt.jpg","",""
"null","<div style=""font-size:60px;""> </div>","null","fixation","html-keyboard-response","209","993195","0.0-6.0-0.29","3695873","co38374","norming","","","","","","",""
"null","../img/tt/078tt.jpg","null","mooney1","image-keyboard-response","210","996197","0.0-6.0-1.29","3695873","co38374","norming","","","","","","",""
"5434","","","post_mooney1_questions","survey-likert","211","1001633","0.0-6.0-2.29","3695873","co38374","norming","","","{""curiosity"":4,""confidence"":5}","[0,1]","../img/tt/078tt.jpg","",""
"3698","","","recognition","survey-text","212","1005336","0.0-6.0-3.29","3695873","co38374","norming","","","{""guess"":""druiven""}","","../img/tt/078tt.jpg","",""
"null","../img/gs/078gs.jpg","null","reveal","image-keyboard-response","213","1007338","0.0-6.0-4.29","3695873","co38374","norming","","","","","","",""
"null","../img/tt/078tt.jpg","null","mooney2","image-keyboard-response","214","1009342","0.0-6.0-5.29","3695873","co38374","norming","","","","","","",""
"6681.000000000116","","","post_reveal_questions","survey-likert","215","1016024","0.0-6.0-6.29","3695873","co38374","norming","","","{""aha"":5}","[0]","../img/tt/078tt.jpg","",""
"null","<div style=""font-size:60px;""> </div>","null","fixation","html-keyboard-response","216","1016227","0.0-6.0-0.30","3695873","co38374","norming","","","","","","",""
"null","../img/tt/1200tt.jpg","null","mooney1","image-keyboard-response","217","1019229","0.0-6.0-1.30","3695873","co38374","norming","","","","","","",""
"5538","","","post_mooney1_questions","survey-likert","218","1024768","0.0-6.0-2.30","3695873","co38374","norming","","","{""curiosity"":5,""confidence"":1}","[0,1]","../img/tt/1200tt.jpg","",""
"2875","","","recognition","survey-text","219","1027648","0.0-6.0-3.30","3695873","co38374","norming","","","{""guess"":""vos""}","","../img/tt/1200tt.jpg","",""
"null","../img/gs/1200gs.jpg","null","reveal","image-keyboard-response","220","1029650","0.0-6.0-4.30","3695873","co38374","norming","","","","","","",""
"null","../img/tt/1200tt.jpg","null","mooney2","image-keyboard-response","221","1031653","0.0-6.0-5.30","3695873","co38374","norming","","","","","","",""
"5483.999999999884","","","post_reveal_questions","survey-likert","222","1037138","0.0-6.0-6.30","3695873","co38374","norming","","","{""aha"":2}","[0]","../img/tt/1200tt.jpg","",""
"null","<div style=""font-size:60px;""> </div>","null","fixation","html-keyboard-response","223","1037340","0.0-6.0-0.31","3695873","co38374","norming","","","","","","",""
"null","../img/tt/111tt.jpg","null","mooney1","image-keyboard-response","224","1040343","0.0-6.0-1.31","3695873","co38374","norming","","","","","","",""
"5086.999999999884","","","post_mooney1_questions","survey-likert","225","1045433","0.0-6.0-2.31","3695873","co38374","norming","","","{""curiosity"":5,""confidence"":0}","[0,1]","../img/tt/111tt.jpg","",""
"1050.0000000002328","","","recognition","survey-text","226","1046487","0.0-6.0-3.31","3695873","co38374","norming","","","{""guess"":""""}","","../img/tt/111tt.jpg","",""
"null","../img/gs/111gs.jpg","null","reveal","image-keyboard-response","227","1048490","0.0-6.0-4.31","3695873","co38374","norming","","","","","","",""
"null","../img/tt/111tt.jpg","null","mooney2","image-keyboard-response","228","1050493","0.0-6.0-5.31","3695873","co38374","norming","","","","","","",""
"3137","","","post_reveal_questions","survey-likert","229","1053631","0.0-6.0-6.31","3695873","co38374","norming","","","{""aha"":5}","[0]","../img/tt/111tt.jpg","",""
"null","<div style=""font-size:60px;""> </div>","null","fixation","html-keyboard-response","230","1053833","0.0-6.0-0.32","3695873","co38374","norming","","","","","","",""
"null","../img/tt/123tt.jpg","null","mooney1","image-keyboard-response","231","1056836","0.0-6.0-1.32","3695873","co38374","norming","","","","","","",""
"5322","","","post_mooney1_questions","survey-likert","232","1062160","0.0-6.0-2.32","3695873","co38374","norming","","","{""curiosity"":5,""confidence"":1}","[0,1]","../img/tt/123tt.jpg","",""
"3637","","","recognition","survey-text","233","1065801","0.0-6.0-3.32","3695873","co38374","norming","","","{""guess"":""koffer""}","","../img/tt/123tt.jpg","",""
"null","../img/gs/123gs.jpg","null","reveal","image-keyboard-response","234","1067803","0.0-6.0-4.32","3695873","co38374","norming","","","","","","",""
"null","../img/tt/123tt.jpg","null","mooney2","image-keyboard-response","235","1069805","0.0-6.0-5.32","3695873","co38374","norming","","","","","","",""
"6793","","","post_reveal_questions","survey-likert","236","1076599","0.0-6.0-6.32","3695873","co38374","norming","","","{""aha"":5}","[0]","../img/tt/123tt.jpg","",""
"null","<div style=""font-size:60px;""> </div>","null","fixation","html-keyboard-response","237","1076802","0.0-6.0-0.33","3695873","co38374","norming","","","","","","",""
"null","../img/tt/1227tt.jpg","null","mooney1","image-keyboard-response","238","1079804","0.0-6.0-1.33","3695873","co38374","norming","","","","","","",""
"4882","","","post_mooney1_questions","survey-likert","239","1084687","0.0-6.0-2.33","3695873","co38374","norming","","","{""curiosity"":6,""confidence"":1}","[0,1]","../img/tt/1227tt.jpg","",""
"3122","","","recognition","survey-text","240","1087815","0.0-6.0-3.33","3695873","co38374","norming","","","{""guess"":""graan""}","","../img/tt/1227tt.jpg","",""
"null","../img/gs/1227gs.jpg","null","reveal","image-keyboard-response","241","1089817","0.0-6.0-4.33","3695873","co38374","norming","","","","","","",""
"null","../img/tt/1227tt.jpg","null","mooney2","image-keyboard-response","242","1091821","0.0-6.0-5.33","3695873","co38374","norming","","","","","","",""
"4761.000000000233","","","post_reveal_questions","survey-likert","243","1096582","0.0-6.0-6.33","3695873","co38374","norming","","","{""aha"":2}","[0]","../img/tt/1227tt.jpg","",""
"null","<div style=""font-size:60px;""> </div>","null","fixation","html-keyboard-response","244","1096785","0.0-6.0-0.34","3695873","co38374","norming","","","","","","",""
"null","../img/tt/1037tt.jpg","null","mooney1","image-keyboard-response","245","1099787","0.0-6.0-1.34","3695873","co38374","norming","","","","","","",""
"7634","","","post_mooney1_questions","survey-likert","246","1107423","0.0-6.0-2.34","3695873","co38374","norming","","","{""curiosity"":6,""confidence"":2}","[0,1]","../img/tt/1037tt.jpg","",""
"10380","","","recognition","survey-text","247","1117808","0.0-6.0-3.34","3695873","co38374","norming","","","{""guess"":""lezende persoon""}","","../img/tt/1037tt.jpg","",""
"null","../img/gs/1037gs.jpg","null","reveal","image-keyboard-response","248","1119811","0.0-6.0-4.34","3695873","co38374","norming","","","","","","",""
"null","../img/tt/1037tt.jpg","null","mooney2","image-keyboard-response","249","1121813","0.0-6.0-5.34","3695873","co38374","norming","","","","","","",""
"4071","","","post_reveal_questions","survey-likert","250","1125886","0.0-6.0-6.34","3695873","co38374","norming","","","{""aha"":2}","[0]","../img/tt/1037tt.jpg","",""
"null","<div style=""font-size:60px;""> </div>","null","fixation","html-keyboard-response","251","1126088","0.0-6.0-0.35","3695873","co38374","norming","","","","","","",""
"null","../img/tt/001tt.jpg","null","mooney1","image-keyboard-response","252","1129091","0.0-6.0-1.35","3695873","co38374","norming","","","","","","",""
"3497.999999999767","","","post_mooney1_questions","survey-likert","253","1132590","0.0-6.0-2.35","3695873","co38374","norming","","","{""curiosity"":6,""confidence"":2}","[0,1]","../img/tt/001tt.jpg","",""
"4345","","","recognition","survey-text","254","1136941","0.0-6.0-3.35","3695873","co38374","norming","","","{""guess"":""stier""}","","../img/tt/001tt.jpg","",""
"null","../img/gs/001gs.jpg","null","reveal","image-keyboard-response","255","1138944","0.0-6.0-4.35","3695873","co38374","norming","","","","","","",""
"null","../img/tt/001tt.jpg","null","mooney2","image-keyboard-response","256","1140946","0.0-6.0-5.35","3695873","co38374","norming","","","","","","",""
"3044","","","post_reveal_questions","survey-likert","257","1143992","0.0-6.0-6.35","3695873","co38374","norming","","","{""aha"":5}","[0]","../img/tt/001tt.jpg","",""
"null","<div style=""font-size:60px;""> </div>","null","fixation","html-keyboard-response","258","1144195","0.0-6.0-0.36","3695873","co38374","norming","","","","","","",""
"null","../img/tt/468tt.jpg","null","mooney1","image-keyboard-response","259","1147197","0.0-6.0-1.36","3695873","co38374","norming","","","","","","",""
"8567","","","post_mooney1_questions","survey-likert","260","1155767","0.0-6.0-2.36","3695873","co38374","norming","","","{""curiosity"":5,""confidence"":0}","[0,1]","../img/tt/468tt.jpg","",""
"20459","","","recognition","survey-text","261","1176231","0.0-6.0-3.36","3695873","co38374","norming","","","{""guess"":""vietnamees""}","","../img/tt/468tt.jpg","",""
"null","../img/gs/468gs.jpg","null","reveal","image-keyboard-response","262","1178232","0.0-6.0-4.36","3695873","co38374","norming","","","","","","",""
"null","../img/tt/468tt.jpg","null","mooney2","image-keyboard-response","263","1180235","0.0-6.0-5.36","3695873","co38374","norming","","","","","","",""
"3785","","","post_reveal_questions","survey-likert","264","1184021","0.0-6.0-6.36","3695873","co38374","norming","","","{""aha"":5}","[0]","../img/tt/468tt.jpg","",""
"null","<div style=""font-size:60px;""> </div>","null","fixation","html-keyboard-response","265","1184223","0.0-6.0-0.37","3695873","co38374","norming","","","","","","",""
"null","../img/tt/060tt.jpg","null","mooney1","image-keyboard-response","266","1187225","0.0-6.0-1.37","3695873","co38374","norming","","","","","","",""
"5075","","","post_mooney1_questions","survey-likert","267","1192301","0.0-6.0-2.37","3695873","co38374","norming","","","{""curiosity"":5,""confidence"":3}","[0,1]","../img/tt/060tt.jpg","",""
"4444","","","recognition","survey-text","268","1196756","0.0-6.0-3.37","3695873","co38374","norming","","","{""guess"":""brood""}","","../img/tt/060tt.jpg","",""
"null","../img/gs/060gs.jpg","null","reveal","image-keyboard-response","269","1198759","0.0-6.0-4.37","3695873","co38374","norming","","","","","","",""
"null","../img/tt/060tt.jpg","null","mooney2","image-keyboard-response","270","1200762","0.0-6.0-5.37","3695873","co38374","norming","","","","","","",""
"3481","","","post_reveal_questions","survey-likert","271","1204244","0.0-6.0-6.37","3695873","co38374","norming","","","{""aha"":6}","[0]","../img/tt/060tt.jpg","",""
"null","<div style=""font-size:60px;""> </div>","null","fixation","html-keyboard-response","272","1204446","0.0-6.0-0.38","3695873","co38374","norming","","","","","","",""
"null","../img/tt/1086tt.jpg","null","mooney1","image-keyboard-response","273","1207449","0.0-6.0-1.38","3695873","co38374","norming","","","","","","",""
"5832","","","post_mooney1_questions","survey-likert","274","1213285","0.0-6.0-2.38","3695873","co38374","norming","","","{""curiosity"":6,""confidence"":4}","[0,1]","../img/tt/1086tt.jpg","",""
"3450","","","recognition","survey-text","275","1216740","0.0-6.0-3.38","3695873","co38374","norming","","","{""guess"":""wolf""}","","../img/tt/1086tt.jpg","",""
"null","../img/gs/1086gs.jpg","null","reveal","image-keyboard-response","276","1218743","0.0-6.0-4.38","3695873","co38374","norming","","","","","","",""
"null","../img/tt/1086tt.jpg","null","mooney2","image-keyboard-response","277","1220745","0.0-6.0-5.38","3695873","co38374","norming","","","","","","",""
"2850","","","post_reveal_questions","survey-likert","278","1223596","0.0-6.0-6.38","3695873","co38374","norming","","","{""aha"":6}","[0]","../img/tt/1086tt.jpg","",""
"null","<div style=""font-size:60px;""> </div>","null","fixation","html-keyboard-response","279","1223798","0.0-6.0-0.39","3695873","co38374","norming","","","","","","",""
"null","../img/tt/1107tt.jpg","null","mooney1","image-keyboard-response","280","1226801","0.0-6.0-1.39","3695873","co38374","norming","","","","","","",""
"8500","","","post_mooney1_questions","survey-likert","281","1235303","0.0-6.0-2.39","3695873","co38374","norming","","","{""curiosity"":6,""confidence"":1}","[0,1]","../img/tt/1107tt.jpg","",""
"4056","","","recognition","survey-text","282","1239364","0.0-6.0-3.39","3695873","co38374","norming","","","{""guess"":""vleermuis""}","","../img/tt/1107tt.jpg","",""
"null","../img/gs/1107gs.jpg","null","reveal","image-keyboard-response","283","1241365","0.0-6.0-4.39","3695873","co38374","norming","","","","","","",""
"null","../img/tt/1107tt.jpg","null","mooney2","image-keyboard-response","284","1243368","0.0-6.0-5.39","3695873","co38374","norming","","","","","","",""
"3474.999999999767","","","post_reveal_questions","survey-likert","285","1246843","0.0-6.0-6.39","3695873","co38374","norming","","","{""aha"":6}","[0]","../img/tt/1107tt.jpg","",""
"null","<div style=""font-size:60px;""> </div>","null","fixation","html-keyboard-response","286","1247046","0.0-6.0-0.40","3695873","co38374","norming","","","","","","",""
"null","../img/tt/1078tt.jpg","null","mooney1","image-keyboard-response","287","1250049","0.0-6.0-1.40","3695873","co38374","norming","","","","","","",""
"4690","","","post_mooney1_questions","survey-likert","288","1254740","0.0-6.0-2.40","3695873","co38374","norming","","","{""curiosity"":6,""confidence"":4}","[0,1]","../img/tt/1078tt.jpg","",""
"4107","","","recognition","survey-text","289","1258851","0.0-6.0-3.40","3695873","co38374","norming","","","{""guess"":""pianiste""}","","../img/tt/1078tt.jpg","",""
"null","../img/gs/1078gs.jpg","null","reveal","image-keyboard-response","290","1260854","0.0-6.0-4.40","3695873","co38374","norming","","","","","","",""
"null","../img/tt/1078tt.jpg","null","mooney2","image-keyboard-response","291","1262856","0.0-6.0-5.40","3695873","co38374","norming","","","","","","",""
"3952.999999999767","","","post_reveal_questions","survey-likert","292","1266812","0.0-6.0-6.40","3695873","co38374","norming","","","{""aha"":5}","[0]","../img/tt/1078tt.jpg","",""
"null","<div style=""font-size:60px;""> </div>","null","fixation","html-keyboard-response","293","1267015","0.0-6.0-0.41","3695873","co38374","norming","","","","","","",""
"null","../img/tt/1202tt.jpg","null","mooney1","image-keyboard-response","294","1270017","0.0-6.0-1.41","3695873","co38374","norming","","","","","","",""
"18331","","","post_mooney1_questions","survey-likert","295","1288349","0.0-6.0-2.41","3695873","co38374","norming","","","{""curiosity"":4,""confidence"":0}","[0,1]","../img/tt/1202tt.jpg","",""
"1024","","","recognition","survey-text","296","1289379","0.0-6.0-3.41","3695873","co38374","norming","","","{""guess"":""""}","","../img/tt/1202tt.jpg","",""
"null","../img/gs/1202gs.jpg","null","reveal","image-keyboard-response","297","1291382","0.0-6.0-4.41","3695873","co38374","norming","","","","","","",""
"null","../img/tt/1202tt.jpg","null","mooney2","image-keyboard-response","298","1293384","0.0-6.0-5.41","3695873","co38374","norming","","","","","","",""
"4689","","","post_reveal_questions","survey-likert","299","1298075","0.0-6.0-6.41","3695873","co38374","norming","","","{""aha"":5}","[0]","../img/tt/1202tt.jpg","",""
"null","<div style=""font-size:60px;""> </div>","null","fixation","html-keyboard-response","300","1298278","0.0-6.0-0.42","3695873","co38374","norming","","","","","","",""
"null","../img/tt/357tt.jpg","null","mooney1","image-keyboard-response","301","1301280","0.0-6.0-1.42","3695873","co38374","norming","","","","","","",""
"7329.999999999767","","","post_mooney1_questions","survey-likert","302","1308611","0.0-6.0-2.42","3695873","co38374","norming","","","{""curiosity"":6,""confidence"":1}","[0,1]","../img/tt/357tt.jpg","",""
"6299","","","recognition","survey-text","303","1314914","0.0-6.0-3.42","3695873","co38374","norming","","","{""guess"":""berglandschap""}","","../img/tt/357tt.jpg","",""
"null","../img/gs/357gs.jpg","null","reveal","image-keyboard-response","304","1316917","0.0-6.0-4.42","3695873","co38374","norming","","","","","","",""
"null","../img/tt/357tt.jpg","null","mooney2","image-keyboard-response","305","1318920","0.0-6.0-5.42","3695873","co38374","norming","","","","","","",""
"7384","","","post_reveal_questions","survey-likert","306","1326307","0.0-6.0-6.42","3695873","co38374","norming","","","{""aha"":5}","[0]","../img/tt/357tt.jpg","",""
"null","<div style=""font-size:60px;""> </div>","null","fixation","html-keyboard-response","307","1326510","0.0-6.0-0.43","3695873","co38374","norming","","","","","","",""
"null","../img/tt/416tt.jpg","null","mooney1","image-keyboard-response","308","1329512","0.0-6.0-1.43","3695873","co38374","norming","","","","","","",""
"4017.000000000233","","","post_mooney1_questions","survey-likert","309","1333530","0.0-6.0-2.43","3695873","co38374","norming","","","{""curiosity"":6,""confidence"":2}","[0,1]","../img/tt/416tt.jpg","",""
"6475","","","recognition","survey-text","310","1340010","0.0-6.0-3.43","3695873","co38374","norming","","","{""guess"":""struisvogel""}","","../img/tt/416tt.jpg","",""
"null","../img/gs/416gs.jpg","null","reveal","image-keyboard-response","311","1342012","0.0-6.0-4.43","3695873","co38374","norming","","","","","","",""
"null","../img/tt/416tt.jpg","null","mooney2","image-keyboard-response","312","1344015","0.0-6.0-5.43","3695873","co38374","norming","","","","","","",""
"5722","","","post_reveal_questions","survey-likert","313","1349738","0.0-6.0-6.43","3695873","co38374","norming","","","{""aha"":6}","[0]","../img/tt/416tt.jpg","",""
"null","<div style=""font-size:60px;""> </div>","null","fixation","html-keyboard-response","314","1349941","0.0-6.0-0.44","3695873","co38374","norming","","","","","","",""
"null","../img/tt/1118tt.jpg","null","mooney1","image-keyboard-response","315","1352944","0.0-6.0-1.44","3695873","co38374","norming","","","","","","",""
"5048","","","post_mooney1_questions","survey-likert","316","1357994","0.0-6.0-2.44","3695873","co38374","norming","","","{""curiosity"":3,""confidence"":0}","[0,1]","../img/tt/1118tt.jpg","",""
"1002","","","recognition","survey-text","317","1359001","0.0-6.0-3.44","3695873","co38374","norming","","","{""guess"":""""}","","../img/tt/1118tt.jpg","",""
"null","../img/gs/1118gs.jpg","null","reveal","image-keyboard-response","318","1361004","0.0-6.0-4.44","3695873","co38374","norming","","","","","","",""
"null","../img/tt/1118tt.jpg","null","mooney2","image-keyboard-response","319","1363007","0.0-6.0-5.44","3695873","co38374","norming","","","","","","",""
"3106","","","post_reveal_questions","survey-likert","320","1366113","0.0-6.0-6.44","3695873","co38374","norming","","","{""aha"":5}","[0]","../img/tt/1118tt.jpg","",""
"null","<div style=""font-size:60px;""> </div>","null","fixation","html-keyboard-response","321","1366316","0.0-6.0-0.45","3695873","co38374","norming","","","","","","",""
"null","../img/tt/1247tt.jpg","null","mooney1","image-keyboard-response","322","1369318","0.0-6.0-1.45","3695873","co38374","norming","","","","","","",""
"5682","","","post_mooney1_questions","survey-likert","323","1375002","0.0-6.0-2.45","3695873","co38374","norming","","","{""curiosity"":5,""confidence"":5}","[0,1]","../img/tt/1247tt.jpg","",""
"3033","","","recognition","survey-text","324","1378041","0.0-6.0-3.45","3695873","co38374","norming","","","{""guess"":""hond""}","","../img/tt/1247tt.jpg","",""
"null","../img/gs/1247gs.jpg","null","reveal","image-keyboard-response","325","1380043","0.0-6.0-4.45","3695873","co38374","norming","","","","","","",""
"null","../img/tt/1247tt.jpg","null","mooney2","image-keyboard-response","326","1382045","0.0-6.0-5.45","3695873","co38374","norming","","","","","","",""
"5770","","","post_reveal_questions","survey-likert","327","1387817","0.0-6.0-6.45","3695873","co38374","norming","","","{""aha"":5}","[0]","../img/tt/1247tt.jpg","",""
"null","<div style=""font-size:60px;""> </div>","null","fixation","html-keyboard-response","328","1388019","0.0-6.0-0.46","3695873","co38374","norming","","","","","","",""
"null","../img/tt/1188tt.jpg","null","mooney1","image-keyboard-response","329","1391021","0.0-6.0-1.46","3695873","co38374","norming","","","","","","",""
"6017","","","post_mooney1_questions","survey-likert","330","1397042","0.0-6.0-2.46","3695873","co38374","norming","","","{""curiosity"":4,""confidence"":0}","[0,1]","../img/tt/1188tt.jpg","",""
"818","","","recognition","survey-text","331","1397864","0.0-6.0-3.46","3695873","co38374","norming","","","{""guess"":""""}","","../img/tt/1188tt.jpg","",""
"null","../img/gs/1188gs.jpg","null","reveal","image-keyboard-response","332","1399867","0.0-6.0-4.46","3695873","co38374","norming","","","","","","",""
"null","../img/tt/1188tt.jpg","null","mooney2","image-keyboard-response","333","1401870","0.0-6.0-5.46","3695873","co38374","norming","","","","","","",""
"4002","","","post_reveal_questions","survey-likert","334","1405872","0.0-6.0-6.46","3695873","co38374","norming","","","{""aha"":5}","[0]","../img/tt/1188tt.jpg","",""
"null","<div style=""font-size:60px;""> </div>","null","fixation","html-keyboard-response","335","1406077","0.0-6.0-0.47","3695873","co38374","norming","","","","","","",""
"null","../img/tt/1228tt.jpg","null","mooney1","image-keyboard-response","336","1409079","0.0-6.0-1.47","3695873","co38374","norming","","","","","","",""
"13769","","","post_mooney1_questions","survey-likert","337","1422849","0.0-6.0-2.47","3695873","co38374","norming","","","{""curiosity"":6,""confidence"":4}","[0,1]","../img/tt/1228tt.jpg","",""
"3675.000000000233","","","recognition","survey-text","338","1426528","0.0-6.0-3.47","3695873","co38374","norming","","","{""guess"":""vogels""}","","../img/tt/1228tt.jpg","",""
"null","../img/gs/1228gs.jpg","null","reveal","image-keyboard-response","339","1428531","0.0-6.0-4.47","3695873","co38374","norming","","","","","","",""
"null","../img/tt/1228tt.jpg","null","mooney2","image-keyboard-response","340","1430533","0.0-6.0-5.47","3695873","co38374","norming","","","","","","",""
"3628","","","post_reveal_questions","survey-likert","341","1434162","0.0-6.0-6.47","3695873","co38374","norming","","","{""aha"":5}","[0]","../img/tt/1228tt.jpg","",""
"null","<div style=""font-size:60px;""> </div>","null","fixation","html-keyboard-response","342","1434365","0.0-6.0-0.48","3695873","co38374","norming","","","","","","",""
"null","../img/tt/020tt.jpg","null","mooney1","image-keyboard-response","343","1437368","0.0-6.0-1.48","3695873","co38374","norming","","","","","","",""
"9551","","","post_mooney1_questions","survey-likert","344","1446920","0.0-6.0-2.48","3695873","co38374","norming","","","{""curiosity"":5,""confidence"":0}","[0,1]","../img/tt/020tt.jpg","",""
"865","","","recognition","survey-text","345","1447791","0.0-6.0-3.48","3695873","co38374","norming","","","{""guess"":""""}","","../img/tt/020tt.jpg","",""
"null","../img/gs/020gs.jpg","null","reveal","image-keyboard-response","346","1449794","0.0-6.0-4.48","3695873","co38374","norming","","","","","","",""
"null","../img/tt/020tt.jpg","null","mooney2","image-keyboard-response","347","1451796","0.0-6.0-5.48","3695873","co38374","norming","","","","","","",""
"2449.999999999767","","","post_reveal_questions","survey-likert","348","1454247","0.0-6.0-6.48","3695873","co38374","norming","","","{""aha"":1}","[0]","../img/tt/020tt.jpg","",""
"null","<div style=""font-size:60px;""> </div>","null","fixation","html-keyboard-response","349","1454450","0.0-6.0-0.49","3695873","co38374","norming","","","","","","",""
"null","../img/tt/1232tt.jpg","null","mooney1","image-keyboard-response","350","1457452","0.0-6.0-1.49","3695873","co38374","norming","","","","","","",""
"7818","","","post_mooney1_questions","survey-likert","351","1465272","0.0-6.0-2.49","3695873","co38374","norming","","","{""curiosity"":6,""confidence"":2}","[0,1]","../img/tt/1232tt.jpg","",""
"3259","","","recognition","survey-text","352","1468535","0.0-6.0-3.49","3695873","co38374","norming","","","{""guess"":""rog""}","","../img/tt/1232tt.jpg","",""
"null","../img/gs/1232gs.jpg","null","reveal","image-keyboard-response","353","1470538","0.0-6.0-4.49","3695873","co38374","norming","","","","","","",""
"null","../img/tt/1232tt.jpg","null","mooney2","image-keyboard-response","354","1472540","0.0-6.0-5.49","3695873","co38374","norming","","","","","","",""
"3418","","","post_reveal_questions","survey-likert","355","1475959","0.0-6.0-6.49","3695873","co38374","norming","","","{""aha"":5}","[0]","../img/tt/1232tt.jpg","",""
"null","<div style=""font-size:60px;""> </div>","null","fixation","html-keyboard-response","356","1476161","0.0-6.0-0.50","3695873","co38374","norming","","","","","","",""
"null","../img/tt/524tt.jpg","null","mooney1","image-keyboard-response","357","1479164","0.0-6.0-1.50","3695873","co38374","norming","","","","","","",""
"5114","","","post_mooney1_questions","survey-likert","358","1484279","0.0-6.0-2.50","3695873","co38374","norming","","","{""curiosity"":6,""confidence"":3}","[0,1]","../img/tt/524tt.jpg","",""
"3874","","","recognition","survey-text","359","1488159","0.0-6.0-3.50","3695873","co38374","norming","","","{""guess"":""olifant""}","","../img/tt/524tt.jpg","",""
"null","../img/gs/524gs.jpg","null","reveal","image-keyboard-response","360","1490161","0.0-6.0-4.50","3695873","co38374","norming","","","","","","",""
"null","../img/tt/524tt.jpg","null","mooney2","image-keyboard-response","361","1492165","0.0-6.0-5.50","3695873","co38374","norming","","","","","","",""
"3497","","","post_reveal_questions","survey-likert","362","1495663","0.0-6.0-6.50","3695873","co38374","norming","","","{""aha"":4}","[0]","../img/tt/524tt.jpg","",""
"null","<div style=""font-size:60px;""> </div>","null","fixation","html-keyboard-response","363","1495865","0.0-6.0-0.51","3695873","co38374","norming","","","","","","",""
"null","../img/tt/442tt.jpg","null","mooney1","image-keyboard-response","364","1498868","0.0-6.0-1.51","3695873","co38374","norming","","","","","","",""
"5746","","","post_mooney1_questions","survey-likert","365","1504615","0.0-6.0-2.51","3695873","co38374","norming","","","{""curiosity"":5,""confidence"":0}","[0,1]","../img/tt/442tt.jpg","",""
"682","","","recognition","survey-text","366","1505303","0.0-6.0-3.51","3695873","co38374","norming","","","{""guess"":""""}","","../img/tt/442tt.jpg","",""
"null","../img/gs/442gs.jpg","null","reveal","image-keyboard-response","367","1507305","0.0-6.0-4.51","3695873","co38374","norming","","","","","","",""
"null","../img/tt/442tt.jpg","null","mooney2","image-keyboard-response","368","1509308","0.0-6.0-5.51","3695873","co38374","norming","","","","","","",""
"3722","","","post_reveal_questions","survey-likert","369","1513030","0.0-6.0-6.51","3695873","co38374","norming","","","{""aha"":3}","[0]","../img/tt/442tt.jpg","",""
"null","<div style=""font-size:60px;""> </div>","null","fixation","html-keyboard-response","370","1513232","0.0-6.0-0.52","3695873","co38374","norming","","","","","","",""
"null","../img/tt/567tt.jpg","null","mooney1","image-keyboard-response","371","1516235","0.0-6.0-1.52","3695873","co38374","norming","","","","","","",""
"5073","","","post_mooney1_questions","survey-likert","372","1521311","0.0-6.0-2.52","3695873","co38374","norming","","","{""curiosity"":6,""confidence"":5}","[0,1]","../img/tt/567tt.jpg","",""
"9338.999999999767","","","recognition","survey-text","373","1530654","0.0-6.0-3.52","3695873","co38374","norming","","","{""guess"":""broodrooster""}","","../img/tt/567tt.jpg","",""
"null","../img/gs/567gs.jpg","null","reveal","image-keyboard-response","374","1532657","0.0-6.0-4.52","3695873","co38374","norming","","","","","","",""
"null","../img/tt/567tt.jpg","null","mooney2","image-keyboard-response","375","1534659","0.0-6.0-5.52","3695873","co38374","norming","","","","","","",""
"4329","","","post_reveal_questions","survey-likert","376","1538990","0.0-6.0-6.52","3695873","co38374","norming","","","{""aha"":3}","[0]","../img/tt/567tt.jpg","",""
"null","<div style=""font-size:60px;""> </div>","null","fixation","html-keyboard-response","377","1539192","0.0-6.0-0.53","3695873","co38374","norming","","","","","","",""
"null","../img/tt/1235tt.jpg","null","mooney1","image-keyboard-response","378","1542194","0.0-6.0-1.53","3695873","co38374","norming","","","","","","",""
"5533.000000000233","","","post_mooney1_questions","survey-likert","379","1547728","0.0-6.0-2.53","3695873","co38374","norming","","","{""curiosity"":6,""confidence"":1}","[0,1]","../img/tt/1235tt.jpg","",""
"3175","","","recognition","survey-text","380","1550909","0.0-6.0-3.53","3695873","co38374","norming","","","{""guess"":""haan""}","","../img/tt/1235tt.jpg","",""
"null","../img/gs/1235gs.jpg","null","reveal","image-keyboard-response","381","1552912","0.0-6.0-4.53","3695873","co38374","norming","","","","","","",""
"null","../img/tt/1235tt.jpg","null","mooney2","image-keyboard-response","382","1554914","0.0-6.0-5.53","3695873","co38374","norming","","","","","","",""
"4266","","","post_reveal_questions","survey-likert","383","1559181","0.0-6.0-6.53","3695873","co38374","norming","","","{""aha"":5}","[0]","../img/tt/1235tt.jpg","",""
"null","<div style=""font-size:60px;""> </div>","null","fixation","html-keyboard-response","384","1559384","0.0-6.0-0.54","3695873","co38374","norming","","","","","","",""
"null","../img/tt/301tt.jpg","null","mooney1","image-keyboard-response","385","1562386","0.0-6.0-1.54","3695873","co38374","norming","","","","","","",""
"4715","","","post_mooney1_questions","survey-likert","386","1567102","0.0-6.0-2.54","3695873","co38374","norming","","","{""curiosity"":6,""confidence"":1}","[0,1]","../img/tt/301tt.jpg","",""
"9699","","","recognition","survey-text","387","1576805","0.0-6.0-3.54","3695873","co38374","norming","","","{""guess"":""treinwagon""}","","../img/tt/301tt.jpg","",""
"null","../img/gs/301gs.jpg","null","reveal","image-keyboard-response","388","1578809","0.0-6.0-4.54","3695873","co38374","norming","","","","","","",""
"null","../img/tt/301tt.jpg","null","mooney2","image-keyboard-response","389","1580811","0.0-6.0-5.54","3695873","co38374","norming","","","","","","",""
"3521.000000000233","","","post_reveal_questions","survey-likert","390","1584334","0.0-6.0-6.54","3695873","co38374","norming","","","{""aha"":1}","[0]","../img/tt/301tt.jpg","",""
"null","<div style=""font-size:60px;""> </div>","null","fixation","html-keyboard-response","391","1584537","0.0-6.0-0.55","3695873","co38374","norming","","","","","","",""
"null","../img/tt/1151tt.jpg","null","mooney1","image-keyboard-response","392","1587539","0.0-6.0-1.55","3695873","co38374","norming","","","","","","",""
"7393","","","post_mooney1_questions","survey-likert","393","1594934","0.0-6.0-2.55","3695873","co38374","norming","","","{""curiosity"":6,""confidence"":1}","[0,1]","../img/tt/1151tt.jpg","",""
"3698.999999999767","","","recognition","survey-text","394","1598637","0.0-6.0-3.55","3695873","co38374","norming","","","{""guess"":""gezicht""}","","../img/tt/1151tt.jpg","",""
"null","../img/gs/1151gs.jpg","null","reveal","image-keyboard-response","395","1600640","0.0-6.0-4.55","3695873","co38374","norming","","","","","","",""
"null","../img/tt/1151tt.jpg","null","mooney2","image-keyboard-response","396","1602642","0.0-6.0-5.55","3695873","co38374","norming","","","","","","",""
"4986","","","post_reveal_questions","survey-likert","397","1607629","0.0-6.0-6.55","3695873","co38374","norming","","","{""aha"":2}","[0]","../img/tt/1151tt.jpg","",""
"null","<div style=""font-size:60px;""> </div>","null","fixation","html-keyboard-response","398","1607831","0.0-6.0-0.56","3695873","co38374","norming","","","","","","",""
"null","../img/tt/1191tt.jpg","null","mooney1","image-keyboard-response","399","1610834","0.0-6.0-1.56","3695873","co38374","norming","","","","","","",""
"5658","","","post_mooney1_questions","survey-likert","400","1616493","0.0-6.0-2.56","3695873","co38374","norming","","","{""curiosity"":6,""confidence"":3}","[0,1]","../img/tt/1191tt.jpg","",""
"4283","","","recognition","survey-text","401","1620781","0.0-6.0-3.56","3695873","co38374","norming","","","{""guess"":""kamelen""}","","../img/tt/1191tt.jpg","",""
"null","../img/gs/1191gs.jpg","null","reveal","image-keyboard-response","402","1622784","0.0-6.0-4.56","3695873","co38374","norming","","","","","","",""
"null","../img/tt/1191tt.jpg","null","mooney2","image-keyboard-response","403","1624786","0.0-6.0-5.56","3695873","co38374","norming","","","","","","",""
"3818","","","post_reveal_questions","survey-likert","404","1628604","0.0-6.0-6.56","3695873","co38374","norming","","","{""aha"":0}","[0]","../img/tt/1191tt.jpg","",""
"null","<div style=""font-size:60px;""> </div>","null","fixation","html-keyboard-response","405","1628806","0.0-6.0-0.57","3695873","co38374","norming","","","","","","",""
"null","../img/tt/076tt.jpg","null","mooney1","image-keyboard-response","406","1631808","0.0-6.0-1.57","3695873","co38374","norming","","","","","","",""
"8651","","","post_mooney1_questions","survey-likert","407","1640460","0.0-6.0-2.57","3695873","co38374","norming","","","{""curiosity"":6,""confidence"":2}","[0,1]","../img/tt/076tt.jpg","",""
"6563","","","recognition","survey-text","408","1647028","0.0-6.0-3.57","3695873","co38374","norming","","","{""guess"":""rolschaatsen""}","","../img/tt/076tt.jpg","",""
"null","../img/gs/076gs.jpg","null","reveal","image-keyboard-response","409","1649031","0.0-6.0-4.57","3695873","co38374","norming","","","","","","",""
"null","../img/tt/076tt.jpg","null","mooney2","image-keyboard-response","410","1651034","0.0-6.0-5.57","3695873","co38374","norming","","","","","","",""
"9793","","","post_reveal_questions","survey-likert","411","1660828","0.0-6.0-6.57","3695873","co38374","norming","","","{""aha"":1}","[0]","../img/tt/076tt.jpg","",""
"null","<div style=""font-size:60px;""> </div>","null","fixation","html-keyboard-response","412","1661030","0.0-6.0-0.58","3695873","co38374","norming","","","","","","",""
"null","../img/tt/1278tt.jpg","null","mooney1","image-keyboard-response","413","1664032","0.0-6.0-1.58","3695873","co38374","norming","","","","","","",""
"4050.999999999767","","","post_mooney1_questions","survey-likert","414","1668085","0.0-6.0-2.58","3695873","co38374","norming","","","{""curiosity"":6,""confidence"":0}","[0,1]","../img/tt/1278tt.jpg","",""
"2056.999999999767","","","recognition","survey-text","415","1670147","0.0-6.0-3.58","3695873","co38374","norming","","","{""guess"":""""}","","../img/tt/1278tt.jpg","",""
"null","../img/gs/1278gs.jpg","null","reveal","image-keyboard-response","416","1672150","0.0-6.0-4.58","3695873","co38374","norming","","","","","","",""
"null","../img/tt/1278tt.jpg","null","mooney2","image-keyboard-response","417","1674154","0.0-6.0-5.58","3695873","co38374","norming","","","","","","",""
"4065","","","post_reveal_questions","survey-likert","418","1678219","0.0-6.0-6.58","3695873","co38374","norming","","","{""aha"":6}","[0]","../img/tt/1278tt.jpg","",""
"null","<div style=""font-size:60px;""> </div>","null","fixation","html-keyboard-response","419","1678422","0.0-6.0-0.59","3695873","co38374","norming","","","","","","",""
"null","../img/tt/080tt.jpg","null","mooney1","image-keyboard-response","420","1681424","0.0-6.0-1.59","3695873","co38374","norming","","","","","","",""
"3922","","","post_mooney1_questions","survey-likert","421","1685348","0.0-6.0-2.59","3695873","co38374","norming","","","{""curiosity"":6,""confidence"":1}","[0,1]","../img/tt/080tt.jpg","",""
"2851","","","recognition","survey-text","422","1688203","0.0-6.0-3.59","3695873","co38374","norming","","","{""guess"":""muis""}","","../img/tt/080tt.jpg","",""
"null","../img/gs/080gs.jpg","null","reveal","image-keyboard-response","423","1690206","0.0-6.0-4.59","3695873","co38374","norming","","","","","","",""
"null","../img/tt/080tt.jpg","null","mooney2","image-keyboard-response","424","1692208","0.0-6.0-5.59","3695873","co38374","norming","","","","","","",""
"3338","","","post_reveal_questions","survey-likert","425","1695548","0.0-6.0-6.59","3695873","co38374","norming","","","{""aha"":5}","[0]","../img/tt/080tt.jpg","",""
"null","<div style=""font-size:60px;""> </div>","null","fixation","html-keyboard-response","426","1695749","0.0-6.0-0.60","3695873","co38374","norming","","","","","","",""
"null","../img/tt/1070tt.jpg","null","mooney1","image-keyboard-response","427","1698752","0.0-6.0-1.60","3695873","co38374","norming","","","","","","",""
"4472","","","post_mooney1_questions","survey-likert","428","1703228","0.0-6.0-2.60","3695873","co38374","norming","","","{""curiosity"":6,""confidence"":5}","[0,1]","../img/tt/1070tt.jpg","",""
"5555","","","recognition","survey-text","429","1708787","0.0-6.0-3.60","3695873","co38374","norming","","","{""guess"":""pannenkoek""}","","../img/tt/1070tt.jpg","",""
"null","../img/gs/1070gs.jpg","null","reveal","image-keyboard-response","430","1710790","0.0-6.0-4.60","3695873","co38374","norming","","","","","","",""
"null","../img/tt/1070tt.jpg","null","mooney2","image-keyboard-response","431","1712792","0.0-6.0-5.60","3695873","co38374","norming","","","","","","",""
"2410","","","post_reveal_questions","survey-likert","432","1715203","0.0-6.0-6.60","3695873","co38374","norming","","","{""aha"":5}","[0]","../img/tt/1070tt.jpg","",""
"null","<div style=""font-size:60px;""> </div>","null","fixation","html-keyboard-response","433","1715405","0.0-6.0-0.61","3695873","co38374","norming","","","","","","",""
"null","../img/tt/049tt.jpg","null","mooney1","image-keyboard-response","434","1718408","0.0-6.0-1.61","3695873","co38374","norming","","","","","","",""
"7180","","","post_mooney1_questions","survey-likert","435","1725589","0.0-6.0-2.61","3695873","co38374","norming","","","{""curiosity"":6,""confidence"":6}","[0,1]","../img/tt/049tt.jpg","",""
"4977.000000000233","","","recognition","survey-text","436","1730571","0.0-6.0-3.61","3695873","co38374","norming","","","{""guess"":""pluimvee""}","","../img/tt/049tt.jpg","",""
"null","../img/gs/049gs.jpg","null","reveal","image-keyboard-response","437","1732574","0.0-6.0-4.61","3695873","co38374","norming","","","","","","",""
"null","../img/tt/049tt.jpg","null","mooney2","image-keyboard-response","438","1734576","0.0-6.0-5.61","3695873","co38374","norming","","","","","","",""
"6970","","","post_reveal_questions","survey-likert","439","1741546","0.0-6.0-6.61","3695873","co38374","norming","","","{""aha"":3}","[0]","../img/tt/049tt.jpg","",""
"null","<div style=""font-size:60px;""> </div>","null","fixation","html-keyboard-response","440","1741749","0.0-6.0-0.62","3695873","co38374","norming","","","","","","",""
"null","../img/tt/031tt.jpg","null","mooney1","image-keyboard-response","441","1744751","0.0-6.0-1.62","3695873","co38374","norming","","","","","","",""
"5589","","","post_mooney1_questions","survey-likert","442","1750341","0.0-6.0-2.62","3695873","co38374","norming","","","{""curiosity"":5,""confidence"":2}","[0,1]","../img/tt/031tt.jpg","",""
"2575","","","recognition","survey-text","443","1752922","0.0-6.0-3.62","3695873","co38374","norming","","","{""guess"":""beer""}","","../img/tt/031tt.jpg","",""
"null","../img/gs/031gs.jpg","null","reveal","image-keyboard-response","444","1754924","0.0-6.0-4.62","3695873","co38374","norming","","","","","","",""
"null","../img/tt/031tt.jpg","null","mooney2","image-keyboard-response","445","1756926","0.0-6.0-5.62","3695873","co38374","norming","","","","","","",""
"4211","","","post_reveal_questions","survey-likert","446","1761138","0.0-6.0-6.62","3695873","co38374","norming","","","{""aha"":4}","[0]","../img/tt/031tt.jpg","",""
"null","<div style=""font-size:60px;""> </div>","null","fixation","html-keyboard-response","447","1761339","0.0-6.0-0.63","3695873","co38374","norming","","","","","","",""
"null","../img/tt/1261tt.jpg","null","mooney1","image-keyboard-response","448","1764341","0.0-6.0-1.63","3695873","co38374","norming","","","","","","",""
"5324.000000000233","","","post_mooney1_questions","survey-likert","449","1769666","0.0-6.0-2.63","3695873","co38374","norming","","","{""curiosity"":6,""confidence"":6}","[0,1]","../img/tt/1261tt.jpg","",""
"3642","","","recognition","survey-text","450","1773313","0.0-6.0-3.63","3695873","co38374","norming","","","{""guess"":""geiten""}","","../img/tt/1261tt.jpg","",""
"null","../img/gs/1261gs.jpg","null","reveal","image-keyboard-response","451","1775316","0.0-6.0-4.63","3695873","co38374","norming","","","","","","",""
"null","../img/tt/1261tt.jpg","null","mooney2","image-keyboard-response","452","1777319","0.0-6.0-5.63","3695873","co38374","norming","","","","","","",""
"3456.999999999767","","","post_reveal_questions","survey-likert","453","1780777","0.0-6.0-6.63","3695873","co38374","norming","","","{""aha"":5}","[0]","../img/tt/1261tt.jpg","",""
"null","<div style=""font-size:60px;""> </div>","null","fixation","html-keyboard-response","454","1780979","0.0-6.0-0.64","3695873","co38374","norming","","","","","","",""
"null","../img/tt/105tt.jpg","null","mooney1","image-keyboard-response","455","1783981","0.0-6.0-1.64","3695873","co38374","norming","","","","","","",""
"8330.999999999767","","","post_mooney1_questions","survey-likert","456","1792314","0.0-6.0-2.64","3695873","co38374","norming","","","{""curiosity"":6,""confidence"":1}","[0,1]","../img/tt/105tt.jpg","",""
"4067","","","recognition","survey-text","457","1796387","0.0-6.0-3.64","3695873","co38374","norming","","","{""guess"":""doolhof""}","","../img/tt/105tt.jpg","",""
"null","../img/gs/105gs.jpg","null","reveal","image-keyboard-response","458","1798390","0.0-6.0-4.64","3695873","co38374","norming","","","","","","",""
"null","../img/tt/105tt.jpg","null","mooney2","image-keyboard-response","459","1800392","0.0-6.0-5.64","3695873","co38374","norming","","","","","","",""
"3928","","","post_reveal_questions","survey-likert","460","1804321","0.0-6.0-6.64","3695873","co38374","norming","","","{""aha"":6}","[0]","../img/tt/105tt.jpg","",""
"null","<div style=""font-size:60px;""> </div>","null","fixation","html-keyboard-response","461","1804524","0.0-6.0-0.65","3695873","co38374","norming","","","","","","",""
"null","../img/tt/1101tt.jpg","null","mooney1","image-keyboard-response","462","1807526","0.0-6.0-1.65","3695873","co38374","norming","","","","","","",""
"5163","","","post_mooney1_questions","survey-likert","463","1812690","0.0-6.0-2.65","3695873","co38374","norming","","","{""curiosity"":6,""confidence"":3}","[0,1]","../img/tt/1101tt.jpg","",""
"9378","","","recognition","survey-text","464","1822073","0.0-6.0-3.65","3695873","co38374","norming","","","{""guess"":""voetballer""}","","../img/tt/1101tt.jpg","",""
"null","../img/gs/1101gs.jpg","null","reveal","image-keyboard-response","465","1824076","0.0-6.0-4.65","3695873","co38374","norming","","","","","","",""
"null","../img/tt/1101tt.jpg","null","mooney2","image-keyboard-response","466","1826079","0.0-6.0-5.65","3695873","co38374","norming","","","","","","",""
"4945","","","post_reveal_questions","survey-likert","467","1831025","0.0-6.0-6.65","3695873","co38374","norming","","","{""aha"":2}","[0]","../img/tt/1101tt.jpg","",""
"null","<div style=""font-size:60px;""> </div>","null","fixation","html-keyboard-response","468","1831227","0.0-6.0-0.66","3695873","co38374","norming","","","","","","",""
"null","../img/tt/456tt.jpg","null","mooney1","image-keyboard-response","469","1834230","0.0-6.0-1.66","3695873","co38374","norming","","","","","","",""
"4994","","","post_mooney1_questions","survey-likert","470","1839225","0.0-6.0-2.66","3695873","co38374","norming","","","{""curiosity"":6,""confidence"":0}","[0,1]","../img/tt/456tt.jpg","",""
"932","","","recognition","survey-text","471","1840162","0.0-6.0-3.66","3695873","co38374","norming","","","{""guess"":""""}","","../img/tt/456tt.jpg","",""
"null","../img/gs/456gs.jpg","null","reveal","image-keyboard-response","472","1842165","0.0-6.0-4.66","3695873","co38374","norming","","","","","","",""
"null","../img/tt/456tt.jpg","null","mooney2","image-keyboard-response","473","1844166","0.0-6.0-5.66","3695873","co38374","norming","","","","","","",""
"4041","","","post_reveal_questions","survey-likert","474","1848208","0.0-6.0-6.66","3695873","co38374","norming","","","{""aha"":6}","[0]","../img/tt/456tt.jpg","",""
"null","<div style=""font-size:60px;""> </div>","null","fixation","html-keyboard-response","475","1848410","0.0-6.0-0.67","3695873","co38374","norming","","","","","","",""
"null","../img/tt/1161tt.jpg","null","mooney1","image-keyboard-response","476","1851413","0.0-6.0-1.67","3695873","co38374","norming","","","","","","",""
"3713.999999999767","","","post_mooney1_questions","survey-likert","477","1855128","0.0-6.0-2.67","3695873","co38374","norming","","","{""curiosity"":6,""confidence"":5}","[0,1]","../img/tt/1161tt.jpg","",""
"3747","","","recognition","survey-text","478","1858880","0.0-6.0-3.67","3695873","co38374","norming","","","{""guess"":""vos""}","","../img/tt/1161tt.jpg","",""
"null","../img/gs/1161gs.jpg","null","reveal","image-keyboard-response","479","1860882","0.0-6.0-4.67","3695873","co38374","norming","","","","","","",""
"null","../img/tt/1161tt.jpg","null","mooney2","image-keyboard-response","480","1862885","0.0-6.0-5.67","3695873","co38374","norming","","","","","","",""
"2456","","","post_reveal_questions","survey-likert","481","1865344","0.0-6.0-6.67","3695873","co38374","norming","","","{""aha"":5}","[0]","../img/tt/1161tt.jpg","",""
"null","<div style=""font-size:60px;""> </div>","null","fixation","html-keyboard-response","482","1865546","0.0-6.0-0.68","3695873","co38374","norming","","","","","","",""
"null","../img/tt/435tt.jpg","null","mooney1","image-keyboard-response","483","1868548","0.0-6.0-1.68","3695873","co38374","norming","","","","","","",""
"6562.999999999767","","","post_mooney1_questions","survey-likert","484","1875113","0.0-6.0-2.68","3695873","co38374","norming","","","{""curiosity"":6,""confidence"":0}","[0,1]","../img/tt/435tt.jpg","",""
"3274","","","recognition","survey-text","485","1878391","0.0-6.0-3.68","3695873","co38374","norming","","","{""guess"":""""}","","../img/tt/435tt.jpg","",""
"null","../img/gs/435gs.jpg","null","reveal","image-keyboard-response","486","1880394","0.0-6.0-4.68","3695873","co38374","norming","","","","","","",""
"null","../img/tt/435tt.jpg","null","mooney2","image-keyboard-response","487","1882397","0.0-6.0-5.68","3695873","co38374","norming","","","","","","",""
"2177","","","post_reveal_questions","survey-likert","488","1884575","0.0-6.0-6.68","3695873","co38374","norming","","","{""aha"":6}","[0]","../img/tt/435tt.jpg","",""
"null","<div style=""font-size:60px;""> </div>","null","fixation","html-keyboard-response","489","1884778","0.0-6.0-0.69","3695873","co38374","norming","","","","","","",""
"null","../img/tt/1189tt.jpg","null","mooney1","image-keyboard-response","490","1887781","0.0-6.0-1.69","3695873","co38374","norming","","","","","","",""
"3298","","","post_mooney1_questions","survey-likert","491","1891080","0.0-6.0-2.69","3695873","co38374","norming","","","{""curiosity"":6,""confidence"":0}","[0,1]","../img/tt/1189tt.jpg","",""
"811","","","recognition","survey-text","492","1891896","0.0-6.0-3.69","3695873","co38374","norming","","","{""guess"":""""}","","../img/tt/1189tt.jpg","",""
"null","../img/gs/1189gs.jpg","null","reveal","image-keyboard-response","493","1893899","0.0-6.0-4.69","3695873","co38374","norming","","","","","","",""
"null","../img/tt/1189tt.jpg","null","mooney2","image-keyboard-response","494","1895901","0.0-6.0-5.69","3695873","co38374","norming","","","","","","",""
"3625","","","post_reveal_questions","survey-likert","495","1899527","0.0-6.0-6.69","3695873","co38374","norming","","","{""aha"":5}","[0]","../img/tt/1189tt.jpg","",""
"null","<div style=""font-size:60px;""> </div>","null","fixation","html-keyboard-response","496","1899730","0.0-6.0-0.70","3695873","co38374","norming","","","","","","",""
"null","../img/tt/1260tt.jpg","null","mooney1","image-keyboard-response","497","1902733","0.0-6.0-1.70","3695873","co38374","norming","","","","","","",""
"6626","","","post_mooney1_questions","survey-likert","498","1909360","0.0-6.0-2.70","3695873","co38374","norming","","","{""curiosity"":2,""confidence"":6}","[0,1]","../img/tt/1260tt.jpg","",""
"3250","","","recognition","survey-text","499","1912615","0.0-6.0-3.70","3695873","co38374","norming","","","{""guess"":""muis""}","","../img/tt/1260tt.jpg","",""
"null","../img/gs/1260gs.jpg","null","reveal","image-keyboard-response","500","1914617","0.0-6.0-4.70","3695873","co38374","norming","","","","","","",""
"null","../img/tt/1260tt.jpg","null","mooney2","image-keyboard-response","501","1916620","0.0-6.0-5.70","3695873","co38374","norming","","","","","","",""
"5292.000000000233","","","post_reveal_questions","survey-likert","502","1921913","0.0-6.0-6.70","3695873","co38374","norming","","","{""aha"":0}","[0]","../img/tt/1260tt.jpg","",""
"null","<div style=""font-size:60px;""> </div>","null","fixation","html-keyboard-response","503","1922115","0.0-6.0-0.71","3695873","co38374","norming","","","","","","",""
"null","../img/tt/118tt.jpg","null","mooney1","image-keyboard-response","504","1925118","0.0-6.0-1.71","3695873","co38374","norming","","","","","","",""
"6808","","","post_mooney1_questions","survey-likert","505","1931927","0.0-6.0-2.71","3695873","co38374","norming","","","{""curiosity"":4,""confidence"":1}","[0,1]","../img/tt/118tt.jpg","",""
"3802.999999999767","","","recognition","survey-text","506","1935734","0.0-6.0-3.71","3695873","co38374","norming","","","{""guess"":""trap""}","","../img/tt/118tt.jpg","",""
"null","../img/gs/118gs.jpg","null","reveal","image-keyboard-response","507","1937737","0.0-6.0-4.71","3695873","co38374","norming","","","","","","",""
"null","../img/tt/118tt.jpg","null","mooney2","image-keyboard-response","508","1939739","0.0-6.0-5.71","3695873","co38374","norming","","","","","","",""
"3528","","","post_reveal_questions","survey-likert","509","1943270","0.0-6.0-6.71","3695873","co38374","norming","","","{""aha"":2}","[0]","../img/tt/118tt.jpg","",""
"null","<div style=""font-size:60px;""> </div>","null","fixation","html-keyboard-response","510","1943473","0.0-6.0-0.72","3695873","co38374","norming","","","","","","",""
"null","../img/tt/1053tt.jpg","null","mooney1","image-keyboard-response","511","1946475","0.0-6.0-1.72","3695873","co38374","norming","","","","","","",""
"3770","","","post_mooney1_questions","survey-likert","512","1950247","0.0-6.0-2.72","3695873","co38374","norming","","","{""curiosity"":6,""confidence"":5}","[0,1]","../img/tt/1053tt.jpg","",""
"6481","","","recognition","survey-text","513","1956734","0.0-6.0-3.72","3695873","co38374","norming","","","{""guess"":""kangoeroe""}","","../img/tt/1053tt.jpg","",""
"null","../img/gs/1053gs.jpg","null","reveal","image-keyboard-response","514","1958737","0.0-6.0-4.72","3695873","co38374","norming","","","","","","",""
"null","../img/tt/1053tt.jpg","null","mooney2","image-keyboard-response","515","1960739","0.0-6.0-5.72","3695873","co38374","norming","","","","","","",""
"1913.0000000002328","","","post_reveal_questions","survey-likert","516","1962654","0.0-6.0-6.72","3695873","co38374","norming","","","{""aha"":6}","[0]","../img/tt/1053tt.jpg","",""
"null","<div style=""font-size:60px;""> </div>","null","fixation","html-keyboard-response","517","1962856","0.0-6.0-0.73","3695873","co38374","norming","","","","","","",""
"null","../img/tt/1309tt.jpg","null","mooney1","image-keyboard-response","518","1965859","0.0-6.0-1.73","3695873","co38374","norming","","","","","","",""
"5146","","","post_mooney1_questions","survey-likert","519","1971006","0.0-6.0-2.73","3695873","co38374","norming","","","{""curiosity"":6,""confidence"":2}","[0,1]","../img/tt/1309tt.jpg","",""
"4099","","","recognition","survey-text","520","1975110","0.0-6.0-3.73","3695873","co38374","norming","","","{""guess"":""jeep""}","","../img/tt/1309tt.jpg","",""
"null","../img/gs/1309gs.jpg","null","reveal","image-keyboard-response","521","1977112","0.0-6.0-4.73","3695873","co38374","norming","","","","","","",""
"null","../img/tt/1309tt.jpg","null","mooney2","image-keyboard-response","522","1979115","0.0-6.0-5.73","3695873","co38374","norming","","","","","","",""
"6067","","","post_reveal_questions","survey-likert","523","1985183","0.0-6.0-6.73","3695873","co38374","norming","","","{""aha"":1}","[0]","../img/tt/1309tt.jpg","",""
"null","<div style=""font-size:60px;""> </div>","null","fixation","html-keyboard-response","524","1985386","0.0-6.0-0.74","3695873","co38374","norming","","","","","","",""
"null","../img/tt/1190tt.jpg","null","mooney1","image-keyboard-response","525","1988388","0.0-6.0-1.74","3695873","co38374","norming","","","","","","",""
"4857","","","post_mooney1_questions","survey-likert","526","1993246","0.0-6.0-2.74","3695873","co38374","norming","","","{""curiosity"":2,""confidence"":0}","[0,1]","../img/tt/1190tt.jpg","",""
"1227","","","recognition","survey-text","527","1994477","0.0-6.0-3.74","3695873","co38374","norming","","","{""guess"":""""}","","../img/tt/1190tt.jpg","",""
"null","../img/gs/1190gs.jpg","null","reveal","image-keyboard-response","528","1996480","0.0-6.0-4.74","3695873","co38374","norming","","","","","","",""
"null","../img/tt/1190tt.jpg","null","mooney2","image-keyboard-response","529","1998482","0.0-6.0-5.74","3695873","co38374","norming","","","","","","",""
"4913","","","post_reveal_questions","survey-likert","530","2003397","0.0-6.0-6.74","3695873","co38374","norming","","","{""aha"":2}","[0]","../img/tt/1190tt.jpg","",""
"null","<div style=""font-size:60px;""> </div>","null","fixation","html-keyboard-response","531","2003599","0.0-6.0-0.75","3695873","co38374","norming","","","","","","",""
"null","../img/tt/1084tt.jpg","null","mooney1","image-keyboard-response","532","2006602","0.0-6.0-1.75","3695873","co38374","norming","","","","","","",""
"8073.999999999767","","","post_mooney1_questions","survey-likert","533","2014677","0.0-6.0-2.75","3695873","co38374","norming","","","{""curiosity"":5,""confidence"":1}","[0,1]","../img/tt/1084tt.jpg","",""
"5051","","","recognition","survey-text","534","2019733","0.0-6.0-3.75","3695873","co38374","norming","","","{""guess"":""katachtige""}","","../img/tt/1084tt.jpg","",""
"null","../img/gs/1084gs.jpg","null","reveal","image-keyboard-response","535","2021735","0.0-6.0-4.75","3695873","co38374","norming","","","","","","",""
"null","../img/tt/1084tt.jpg","null","mooney2","image-keyboard-response","536","2023738","0.0-6.0-5.75","3695873","co38374","norming","","","","","","",""
"4386.999999999767","","","post_reveal_questions","survey-likert","537","2028125","0.0-6.0-6.75","3695873","co38374","norming","","","{""aha"":0}","[0]","../img/tt/1084tt.jpg","",""
"null","<div style=""font-size:60px;""> </div>","null","fixation","html-keyboard-response","538","2028327","0.0-6.0-0.76","3695873","co38374","norming","","","","","","",""
"null","../img/tt/1006tt.jpg","null","mooney1","image-keyboard-response","539","2031330","0.0-6.0-1.76","3695873","co38374","norming","","","","","","",""
"4650","","","post_mooney1_questions","survey-likert","540","2035981","0.0-6.0-2.76","3695873","co38374","norming","","","{""curiosity"":6,""confidence"":6}","[0,1]","../img/tt/1006tt.jpg","",""
"7715","","","recognition","survey-text","541","2043701","0.0-6.0-3.76","3695873","co38374","norming","","","{""guess"":""vee""}","","../img/tt/1006tt.jpg","",""
"null","../img/gs/1006gs.jpg","null","reveal","image-keyboard-response","542","2045704","0.0-6.0-4.76","3695873","co38374","norming","","","","","","",""
"null","../img/tt/1006tt.jpg","null","mooney2","image-keyboard-response","543","2047706","0.0-6.0-5.76","3695873","co38374","norming","","","","","","",""
"5514","","","post_reveal_questions","survey-likert","544","2053221","0.0-6.0-6.76","3695873","co38374","norming","","","{""aha"":1}","[0]","../img/tt/1006tt.jpg","",""
"null","<div style=""font-size:60px;""> </div>","null","fixation","html-keyboard-response","545","2053424","0.0-6.0-0.77","3695873","co38374","norming","","","","","","",""
"null","../img/tt/1148tt.jpg","null","mooney1","image-keyboard-response","546","2056426","0.0-6.0-1.77","3695873","co38374","norming","","","","","","",""
"6737","","","post_mooney1_questions","survey-likert","547","2063165","0.0-6.0-2.77","3695873","co38374","norming","","","{""curiosity"":4,""confidence"":0}","[0,1]","../img/tt/1148tt.jpg","",""
"1579","","","recognition","survey-text","548","2064750","0.0-6.0-3.77","3695873","co38374","norming","","","{""guess"":""""}","","../img/tt/1148tt.jpg","",""
"null","../img/gs/1148gs.jpg","null","reveal","image-keyboard-response","549","2066753","0.0-6.0-4.77","3695873","co38374","norming","","","","","","",""
"null","../img/tt/1148tt.jpg","null","mooney2","image-keyboard-response","550","2068756","0.0-6.0-5.77","3695873","co38374","norming","","","","","","",""
"2496","","","post_reveal_questions","survey-likert","551","2071253","0.0-6.0-6.77","3695873","co38374","norming","","","{""aha"":4}","[0]","../img/tt/1148tt.jpg","",""
"null","<div style=""font-size:60px;""> </div>","null","fixation","html-keyboard-response","552","2071455","0.0-6.0-0.78","3695873","co38374","norming","","","","","","",""
"null","../img/tt/1236tt.jpg","null","mooney1","image-keyboard-response","553","2074458","0.0-6.0-1.78","3695873","co38374","norming","","","","","","",""
"6561.000000000233","","","post_mooney1_questions","survey-likert","554","2081020","0.0-6.0-2.78","3695873","co38374","norming","","","{""curiosity"":4,""confidence"":0}","[0,1]","../img/tt/1236tt.jpg","",""
"963","","","recognition","survey-text","555","2081988","0.0-6.0-3.78","3695873","co38374","norming","","","{""guess"":""""}","","../img/tt/1236tt.jpg","",""
"null","../img/gs/1236gs.jpg","null","reveal","image-keyboard-response","556","2083990","0.0-6.0-4.78","3695873","co38374","norming","","","","","","",""
"null","../img/tt/1236tt.jpg","null","mooney2","image-keyboard-response","557","2085993","0.0-6.0-5.78","3695873","co38374","norming","","","","","","",""
"3335.999999999767","","","post_reveal_questions","survey-likert","558","2089331","0.0-6.0-6.78","3695873","co38374","norming","","","{""aha"":1}","[0]","../img/tt/1236tt.jpg","",""
"null","<div style=""font-size:60px;""> </div>","null","fixation","html-keyboard-response","559","2089533","0.0-6.0-0.79","3695873","co38374","norming","","","","","","",""
"null","../img/tt/1366tt.jpg","null","mooney1","image-keyboard-response","560","2092536","0.0-6.0-1.79","3695873","co38374","norming","","","","","","",""
"7002.000000000466","","","post_mooney1_questions","survey-likert","561","2099540","0.0-6.0-2.79","3695873","co38374","norming","","","{""curiosity"":3,""confidence"":0}","[0,1]","../img/tt/1366tt.jpg","",""
"803.0000000004657","","","recognition","survey-text","562","2100347","0.0-6.0-3.79","3695873","co38374","norming","","","{""guess"":""""}","","../img/tt/1366tt.jpg","",""
"null","../img/gs/1366gs.jpg","null","reveal","image-keyboard-response","563","2102350","0.0-6.0-4.79","3695873","co38374","norming","","","","","","",""
"null","../img/tt/1366tt.jpg","null","mooney2","image-keyboard-response","564","2104354","0.0-6.0-5.79","3695873","co38374","norming","","","","","","",""
"4873","","","post_reveal_questions","survey-likert","565","2109227","0.0-6.0-6.79","3695873","co38374","norming","","","{""aha"":3}","[0]","../img/tt/1366tt.jpg","",""
