"rt","stimulus","key_press","test_part","trial_type","trial_index","time_elapsed","internal_node_id","totalTime","subject","experiment_name","button_pressed","success","responses","question_order","currentStim","old","correct"
"9799","Welcome to the experiment. This is an online experiment so please don't close the tab/window until we say goodbye.  Press any key to begin.","32","instructions","html-keyboard-response","0","9815","0.0-0.0","2699201","co38479","norming","","","","","","",""
"12926","<div style='word-wrap: break-word; width: 900px'><h3>Please consider this information carefully before deciding whether to participate in this research</h3><ul style='text-align: left; font-size: .8em;'><li><b>Purpose of the research</b>: To examine how people process images.</li><li><b>What you will do in this research</b>:  Stimuli (images) will be presented on the computer and you will be asked different questions about them.</li><li><b>Time required</b>: Participation will take between 45 and 60 minutes to complete.</li><li><b>Risks</b>:  There are no anticipated risks associated with participating in this study. The effects of participating should be comparable to those you would experience from viewing a computer monitor for 30 minutes and using a mouse or keyboard.</li><li><b>Benefits</b>:  This study provides no benefits to you individually except for the credit. The study provides important information about the nature of perception and learning.</li><li><b>Confidentiality</b>:  Your participation in this study will remain confidential. No personally identifiable information will be associated with your data. Your de-identified data may be shared with other researchers and used in future projects.</li><li><b>Participation and withdrawal</b>:  Your participation in this study is completely voluntary and you may refuse to participate or you may choose to withdraw at any time without penalty.</li><li><b>How to contact the researchers</b>: If you have questions or concerns about your participation or payment, or want to request a summary of research findings, please contact Sander Van de Cruys (KU Leuven), at sander.vandecruys@kuleuven.be.</li></ul><p>The nature and purpose of this research have been sufficiently explained and I agree to participate in this study.  I understand that I am free to withdraw at any time without incurring any penalty.</p><p>Please consent by clicking the button below to continue. Otherwise, please exit the study at this time.</p></div>","","instructions","html-button-response","1","22743","0.0-1.0","2699201","co38479","norming","0","","","","","",""
"","","","instructions","fullscreen","2","28256","0.0-2.0","2699201","co38479","norming","","true","","","","",""
"41408.99999999999","","","sona","survey-html-form","3","69666","0.0-3.0","2699201","co38479","norming","","","[{""name"":""sonaid"",""value"":""38479""},{""name"":""debrief"",""value"":""yes""},{""name"":""datajoin"",""value"":""yes""}]","","","",""
"64734.000000000015","<div style='word-wrap: break-word; width: 900px'><h3>Instructions</h3><p>This experiment will have 3 parts. In the first part you will see a series of distorted images like the one below on the left. As you can see in the righthand image, the distorted images are derived from actual photographs. In what follows, you will <strong>briefly</strong> be presented with <strong>only</strong> the distorted image.</p> <div style='float: left; margin-right: 20px;'><img src='../img/018tt.jpg' height='250' width='250'></img></div><div style='float: right; margin-left: 20px;'><img src='../img/018gs.jpg' height='250' width='250'></img></div><p>Subsequently you will be asked a few questions about the image: One question on how <strong>curious</strong> you are about the solution and one on how <strong>confident</strong> you are that you know the solution.</p>Next, we ask you to make a guess on what is in the image. Note that it is OK to name just the <strong>basic level category</strong>. For example when you see a parrot in the image, 'parrot' will obviously be a correct answer but also correct is 'bird'. However, 'animal' will <strong>not</strong> be counted as a correct response. For the example above, 'rose' would be correct or 'flower', but not 'plant'. When soccer players are depicted, 'soccer', 'football', 'soccer players' will be correct, but not 'humans', 'outdoors', or 'sports'. You do not need to describe the image in full, just name the main object in it <strong>in one or two words</strong>. All images depict objects from one of the following broad level categories: animals, inanimate objects, plants, sports, vehicles, and food. Recognizing means knowing <strong>more</strong> than these broad labels for a given image. But we always encourage you to <strong>make a guess</strong> if you can. Note that you are allowed to use <strong>Dutch and English</strong> in your answers, whatever comes easiest for you.</p><p>Press any key to continue.</p></div>","32","instructions","html-keyboard-response","4","134400","0.0-4.0","2699201","co38479","norming","","","","","","",""
"19972","<div style='word-wrap: break-word; width: 900px'><h3>Instructions</h3> <p>Next, the solution image will be revealed to you and you'll be asked to indicate how strong your <strong>aha-experience</strong> was after seeing the solution. This describes the positive feeling of the 'click' you sometimes experience, when the pieces of the 'puzzle' fall together and you suddenly have 'insight' in the image.</p><img src='aha.jpg' height='188' width='250'></img><p>Note that there are no right or wrong answers. We are interested in what <strong>you</strong> see in the image and how <strong>you</strong> feel about it.</p><p>Press any key to start the experiment.</p></div>","32","instructions","html-keyboard-response","5","154373","0.0-5.0","2699201","co38479","norming","","","","","","",""
"null","<div style=""font-size:60px;""> </div>","null","fixation","html-keyboard-response","6","154575","0.0-6.0-0.0","2699201","co38479","norming","","","","","","",""
"null","../img/tt/055tt.jpg","null","mooney1","image-keyboard-response","7","157578","0.0-6.0-1.0","2699201","co38479","norming","","","","","","",""
"5525","","","post_mooney1_questions","survey-likert","8","163105","0.0-6.0-2.0","2699201","co38479","norming","","","{""curiosity"":6,""confidence"":0}","[0,1]","../img/tt/055tt.jpg","",""
"9771","","","recognition","survey-text","9","172883","0.0-6.0-3.0","2699201","co38479","norming","","","{""guess"":""cow""}","","../img/tt/055tt.jpg","",""
"null","../img/gs/055gs.jpg","null","reveal","image-keyboard-response","10","174886","0.0-6.0-4.0","2699201","co38479","norming","","","","","","",""
"null","../img/tt/055tt.jpg","null","mooney2","image-keyboard-response","11","176888","0.0-6.0-5.0","2699201","co38479","norming","","","","","","",""
"5463","","","post_reveal_questions","survey-likert","12","182352","0.0-6.0-6.0","2699201","co38479","norming","","","{""aha"":6}","[0]","../img/tt/055tt.jpg","",""
"null","<div style=""font-size:60px;""> </div>","null","fixation","html-keyboard-response","13","182556","0.0-6.0-0.1","2699201","co38479","norming","","","","","","",""
"null","../img/tt/1202tt.jpg","null","mooney1","image-keyboard-response","14","185558","0.0-6.0-1.1","2699201","co38479","norming","","","","","","",""
"10931","","","post_mooney1_questions","survey-likert","15","196491","0.0-6.0-2.1","2699201","co38479","norming","","","{""curiosity"":3,""confidence"":0}","[0,1]","../img/tt/1202tt.jpg","",""
"1455","","","recognition","survey-text","16","197953","0.0-6.0-3.1","2699201","co38479","norming","","","{""guess"":""""}","","../img/tt/1202tt.jpg","",""
"null","../img/gs/1202gs.jpg","null","reveal","image-keyboard-response","17","199956","0.0-6.0-4.1","2699201","co38479","norming","","","","","","",""
"null","../img/tt/1202tt.jpg","null","mooney2","image-keyboard-response","18","201958","0.0-6.0-5.1","2699201","co38479","norming","","","","","","",""
"4213","","","post_reveal_questions","survey-likert","19","206172","0.0-6.0-6.1","2699201","co38479","norming","","","{""aha"":6}","[0]","../img/tt/1202tt.jpg","",""
"null","<div style=""font-size:60px;""> </div>","null","fixation","html-keyboard-response","20","206375","0.0-6.0-0.2","2699201","co38479","norming","","","","","","",""
"null","../img/tt/1309tt.jpg","null","mooney1","image-keyboard-response","21","209377","0.0-6.0-1.2","2699201","co38479","norming","","","","","","",""
"8090","","","post_mooney1_questions","survey-likert","22","217469","0.0-6.0-2.2","2699201","co38479","norming","","","{""curiosity"":3,""confidence"":2}","[0,1]","../img/tt/1309tt.jpg","",""
"2468","","","recognition","survey-text","23","219945","0.0-6.0-3.2","2699201","co38479","norming","","","{""guess"":""woods""}","","../img/tt/1309tt.jpg","",""
"null","../img/gs/1309gs.jpg","null","reveal","image-keyboard-response","24","221947","0.0-6.0-4.2","2699201","co38479","norming","","","","","","",""
"null","../img/tt/1309tt.jpg","null","mooney2","image-keyboard-response","25","223950","0.0-6.0-5.2","2699201","co38479","norming","","","","","","",""
"3755","","","post_reveal_questions","survey-likert","26","227706","0.0-6.0-6.2","2699201","co38479","norming","","","{""aha"":3}","[0]","../img/tt/1309tt.jpg","",""
"null","<div style=""font-size:60px;""> </div>","null","fixation","html-keyboard-response","27","227909","0.0-6.0-0.3","2699201","co38479","norming","","","","","","",""
"null","../img/tt/412tt.jpg","null","mooney1","image-keyboard-response","28","230912","0.0-6.0-1.3","2699201","co38479","norming","","","","","","",""
"8179","","","post_mooney1_questions","survey-likert","29","239092","0.0-6.0-2.3","2699201","co38479","norming","","","{""curiosity"":4,""confidence"":0}","[0,1]","../img/tt/412tt.jpg","",""
"960.0000000000291","","","recognition","survey-text","30","240060","0.0-6.0-3.3","2699201","co38479","norming","","","{""guess"":""""}","","../img/tt/412tt.jpg","",""
"null","../img/gs/412gs.jpg","null","reveal","image-keyboard-response","31","242062","0.0-6.0-4.3","2699201","co38479","norming","","","","","","",""
"null","../img/tt/412tt.jpg","null","mooney2","image-keyboard-response","32","244065","0.0-6.0-5.3","2699201","co38479","norming","","","","","","",""
"3224.999999999971","","","post_reveal_questions","survey-likert","33","247290","0.0-6.0-6.3","2699201","co38479","norming","","","{""aha"":6}","[0]","../img/tt/412tt.jpg","",""
"null","<div style=""font-size:60px;""> </div>","null","fixation","html-keyboard-response","34","247494","0.0-6.0-0.4","2699201","co38479","norming","","","","","","",""
"null","../img/tt/1033tt.jpg","null","mooney1","image-keyboard-response","35","250495","0.0-6.0-1.4","2699201","co38479","norming","","","","","","",""
"6462","","","post_mooney1_questions","survey-likert","36","256959","0.0-6.0-2.4","2699201","co38479","norming","","","{""curiosity"":4,""confidence"":1}","[0,1]","../img/tt/1033tt.jpg","",""
"2690","","","recognition","survey-text","37","259657","0.0-6.0-3.4","2699201","co38479","norming","","","{""guess"":""arrow""}","","../img/tt/1033tt.jpg","",""
"null","../img/gs/1033gs.jpg","null","reveal","image-keyboard-response","38","261659","0.0-6.0-4.4","2699201","co38479","norming","","","","","","",""
"null","../img/tt/1033tt.jpg","null","mooney2","image-keyboard-response","39","263661","0.0-6.0-5.4","2699201","co38479","norming","","","","","","",""
"2102.000000000058","","","post_reveal_questions","survey-likert","40","265765","0.0-6.0-6.4","2699201","co38479","norming","","","{""aha"":6}","[0]","../img/tt/1033tt.jpg","",""
"null","<div style=""font-size:60px;""> </div>","null","fixation","html-keyboard-response","41","265968","0.0-6.0-0.5","2699201","co38479","norming","","","","","","",""
"null","../img/tt/1191tt.jpg","null","mooney1","image-keyboard-response","42","268970","0.0-6.0-1.5","2699201","co38479","norming","","","","","","",""
"7395","","","post_mooney1_questions","survey-likert","43","276367","0.0-6.0-2.5","2699201","co38479","norming","","","{""curiosity"":6,""confidence"":0}","[0,1]","../img/tt/1191tt.jpg","",""
"4341","","","recognition","survey-text","44","280716","0.0-6.0-3.5","2699201","co38479","norming","","","{""guess"":""camels""}","","../img/tt/1191tt.jpg","",""
"null","../img/gs/1191gs.jpg","null","reveal","image-keyboard-response","45","282718","0.0-6.0-4.5","2699201","co38479","norming","","","","","","",""
"null","../img/tt/1191tt.jpg","null","mooney2","image-keyboard-response","46","284720","0.0-6.0-5.5","2699201","co38479","norming","","","","","","",""
"2290","","","post_reveal_questions","survey-likert","47","287011","0.0-6.0-6.5","2699201","co38479","norming","","","{""aha"":6}","[0]","../img/tt/1191tt.jpg","",""
"null","<div style=""font-size:60px;""> </div>","null","fixation","html-keyboard-response","48","287215","0.0-6.0-0.6","2699201","co38479","norming","","","","","","",""
"null","../img/tt/1080tt.jpg","null","mooney1","image-keyboard-response","49","290217","0.0-6.0-1.6","2699201","co38479","norming","","","","","","",""
"4849","","","post_mooney1_questions","survey-likert","50","295068","0.0-6.0-2.6","2699201","co38479","norming","","","{""curiosity"":5,""confidence"":0}","[0,1]","../img/tt/1080tt.jpg","",""
"1180","","","recognition","survey-text","51","296256","0.0-6.0-3.6","2699201","co38479","norming","","","{""guess"":""""}","","../img/tt/1080tt.jpg","",""
"null","../img/gs/1080gs.jpg","null","reveal","image-keyboard-response","52","298258","0.0-6.0-4.6","2699201","co38479","norming","","","","","","",""
"null","../img/tt/1080tt.jpg","null","mooney2","image-keyboard-response","53","300259","0.0-6.0-5.6","2699201","co38479","norming","","","","","","",""
"2861","","","post_reveal_questions","survey-likert","54","303121","0.0-6.0-6.6","2699201","co38479","norming","","","{""aha"":0}","[0]","../img/tt/1080tt.jpg","",""
"null","<div style=""font-size:60px;""> </div>","null","fixation","html-keyboard-response","55","303324","0.0-6.0-0.7","2699201","co38479","norming","","","","","","",""
"null","../img/tt/1048tt.jpg","null","mooney1","image-keyboard-response","56","306326","0.0-6.0-1.7","2699201","co38479","norming","","","","","","",""
"5056.000000000058","","","post_mooney1_questions","survey-likert","57","311384","0.0-6.0-2.7","2699201","co38479","norming","","","{""curiosity"":4,""confidence"":0}","[0,1]","../img/tt/1048tt.jpg","",""
"5324","","","recognition","survey-text","58","316716","0.0-6.0-3.7","2699201","co38479","norming","","","{""guess"":""""}","","../img/tt/1048tt.jpg","",""
"null","../img/gs/1048gs.jpg","null","reveal","image-keyboard-response","59","318718","0.0-6.0-4.7","2699201","co38479","norming","","","","","","",""
"null","../img/tt/1048tt.jpg","null","mooney2","image-keyboard-response","60","320720","0.0-6.0-5.7","2699201","co38479","norming","","","","","","",""
"4961","","","post_reveal_questions","survey-likert","61","325683","0.0-6.0-6.7","2699201","co38479","norming","","","{""aha"":1}","[0]","../img/tt/1048tt.jpg","",""
"null","<div style=""font-size:60px;""> </div>","null","fixation","html-keyboard-response","62","325887","0.0-6.0-0.8","2699201","co38479","norming","","","","","","",""
"null","../img/tt/1247tt.jpg","null","mooney1","image-keyboard-response","63","328889","0.0-6.0-1.8","2699201","co38479","norming","","","","","","",""
"9909.000000000058","","","post_mooney1_questions","survey-likert","64","338800","0.0-6.0-2.8","2699201","co38479","norming","","","{""curiosity"":3,""confidence"":5}","[0,1]","../img/tt/1247tt.jpg","",""
"2152","","","recognition","survey-text","65","340959","0.0-6.0-3.8","2699201","co38479","norming","","","{""guess"":""tiger""}","","../img/tt/1247tt.jpg","",""
"null","../img/gs/1247gs.jpg","null","reveal","image-keyboard-response","66","342961","0.0-6.0-4.8","2699201","co38479","norming","","","","","","",""
"null","../img/tt/1247tt.jpg","null","mooney2","image-keyboard-response","67","344963","0.0-6.0-5.8","2699201","co38479","norming","","","","","","",""
"4386","","","post_reveal_questions","survey-likert","68","349350","0.0-6.0-6.8","2699201","co38479","norming","","","{""aha"":0}","[0]","../img/tt/1247tt.jpg","",""
"null","<div style=""font-size:60px;""> </div>","null","fixation","html-keyboard-response","69","349553","0.0-6.0-0.9","2699201","co38479","norming","","","","","","",""
"null","../img/tt/353tt.jpg","null","mooney1","image-keyboard-response","70","352556","0.0-6.0-1.9","2699201","co38479","norming","","","","","","",""
"4764","","","post_mooney1_questions","survey-likert","71","357322","0.0-6.0-2.9","2699201","co38479","norming","","","{""curiosity"":3,""confidence"":1}","[0,1]","../img/tt/353tt.jpg","",""
"2656","","","recognition","survey-text","72","359986","0.0-6.0-3.9","2699201","co38479","norming","","","{""guess"":""mouse""}","","../img/tt/353tt.jpg","",""
"null","../img/gs/353gs.jpg","null","reveal","image-keyboard-response","73","361988","0.0-6.0-4.9","2699201","co38479","norming","","","","","","",""
"null","../img/tt/353tt.jpg","null","mooney2","image-keyboard-response","74","363990","0.0-6.0-5.9","2699201","co38479","norming","","","","","","",""
"2544","","","post_reveal_questions","survey-likert","75","366535","0.0-6.0-6.9","2699201","co38479","norming","","","{""aha"":3}","[0]","../img/tt/353tt.jpg","",""
"null","<div style=""font-size:60px;""> </div>","null","fixation","html-keyboard-response","76","366738","0.0-6.0-0.10","2699201","co38479","norming","","","","","","",""
"null","../img/tt/1366tt.jpg","null","mooney1","image-keyboard-response","77","369740","0.0-6.0-1.10","2699201","co38479","norming","","","","","","",""
"4715","","","post_mooney1_questions","survey-likert","78","374456","0.0-6.0-2.10","2699201","co38479","norming","","","{""curiosity"":3,""confidence"":3}","[0,1]","../img/tt/1366tt.jpg","",""
"2785","","","recognition","survey-text","79","377250","0.0-6.0-3.10","2699201","co38479","norming","","","{""guess"":""snake""}","","../img/tt/1366tt.jpg","",""
"null","../img/gs/1366gs.jpg","null","reveal","image-keyboard-response","80","379252","0.0-6.0-4.10","2699201","co38479","norming","","","","","","",""
"null","../img/tt/1366tt.jpg","null","mooney2","image-keyboard-response","81","381254","0.0-6.0-5.10","2699201","co38479","norming","","","","","","",""
"3179","","","post_reveal_questions","survey-likert","82","384435","0.0-6.0-6.10","2699201","co38479","norming","","","{""aha"":6}","[0]","../img/tt/1366tt.jpg","",""
"null","<div style=""font-size:60px;""> </div>","null","fixation","html-keyboard-response","83","384637","0.0-6.0-0.11","2699201","co38479","norming","","","","","","",""
"null","../img/tt/1175tt.jpg","null","mooney1","image-keyboard-response","84","387640","0.0-6.0-1.11","2699201","co38479","norming","","","","","","",""
"4782","","","post_mooney1_questions","survey-likert","85","392423","0.0-6.0-2.11","2699201","co38479","norming","","","{""curiosity"":3,""confidence"":0}","[0,1]","../img/tt/1175tt.jpg","",""
"595","","","recognition","survey-text","86","393026","0.0-6.0-3.11","2699201","co38479","norming","","","{""guess"":""""}","","../img/tt/1175tt.jpg","",""
"null","../img/gs/1175gs.jpg","null","reveal","image-keyboard-response","87","395028","0.0-6.0-4.11","2699201","co38479","norming","","","","","","",""
"null","../img/tt/1175tt.jpg","null","mooney2","image-keyboard-response","88","397030","0.0-6.0-5.11","2699201","co38479","norming","","","","","","",""
"2216.999999999942","","","post_reveal_questions","survey-likert","89","399249","0.0-6.0-6.11","2699201","co38479","norming","","","{""aha"":4}","[0]","../img/tt/1175tt.jpg","",""
"null","<div style=""font-size:60px;""> </div>","null","fixation","html-keyboard-response","90","399452","0.0-6.0-0.12","2699201","co38479","norming","","","","","","",""
"null","../img/tt/1102tt.jpg","null","mooney1","image-keyboard-response","91","402455","0.0-6.0-1.12","2699201","co38479","norming","","","","","","",""
"4299","","","post_mooney1_questions","survey-likert","92","406755","0.0-6.0-2.12","2699201","co38479","norming","","","{""curiosity"":4,""confidence"":0}","[0,1]","../img/tt/1102tt.jpg","",""
"872","","","recognition","survey-text","93","407634","0.0-6.0-3.12","2699201","co38479","norming","","","{""guess"":""""}","","../img/tt/1102tt.jpg","",""
"null","../img/gs/1102gs.jpg","null","reveal","image-keyboard-response","94","409636","0.0-6.0-4.12","2699201","co38479","norming","","","","","","",""
"null","../img/tt/1102tt.jpg","null","mooney2","image-keyboard-response","95","411638","0.0-6.0-5.12","2699201","co38479","norming","","","","","","",""
"2299","","","post_reveal_questions","survey-likert","96","413939","0.0-6.0-6.12","2699201","co38479","norming","","","{""aha"":6}","[0]","../img/tt/1102tt.jpg","",""
"null","<div style=""font-size:60px;""> </div>","null","fixation","html-keyboard-response","97","414142","0.0-6.0-0.13","2699201","co38479","norming","","","","","","",""
"null","../img/tt/1272tt.jpg","null","mooney1","image-keyboard-response","98","417144","0.0-6.0-1.13","2699201","co38479","norming","","","","","","",""
"6222","","","post_mooney1_questions","survey-likert","99","423368","0.0-6.0-2.13","2699201","co38479","norming","","","{""curiosity"":5,""confidence"":0}","[0,1]","../img/tt/1272tt.jpg","",""
"1826","","","recognition","survey-text","100","425200","0.0-6.0-3.13","2699201","co38479","norming","","","{""guess"":""corn""}","","../img/tt/1272tt.jpg","",""
"null","../img/gs/1272gs.jpg","null","reveal","image-keyboard-response","101","427202","0.0-6.0-4.13","2699201","co38479","norming","","","","","","",""
"null","../img/tt/1272tt.jpg","null","mooney2","image-keyboard-response","102","429204","0.0-6.0-5.13","2699201","co38479","norming","","","","","","",""
"2224","","","post_reveal_questions","survey-likert","103","431429","0.0-6.0-6.13","2699201","co38479","norming","","","{""aha"":6}","[0]","../img/tt/1272tt.jpg","",""
"null","<div style=""font-size:60px;""> </div>","null","fixation","html-keyboard-response","104","431633","0.0-6.0-0.14","2699201","co38479","norming","","","","","","",""
"null","../img/tt/1269tt.jpg","null","mooney1","image-keyboard-response","105","434635","0.0-6.0-1.14","2699201","co38479","norming","","","","","","",""
"7379","","","post_mooney1_questions","survey-likert","106","442016","0.0-6.0-2.14","2699201","co38479","norming","","","{""curiosity"":3,""confidence"":4}","[0,1]","../img/tt/1269tt.jpg","",""
"5276","","","recognition","survey-text","107","447299","0.0-6.0-3.14","2699201","co38479","norming","","","{""guess"":""kangaroo""}","","../img/tt/1269tt.jpg","",""
"null","../img/gs/1269gs.jpg","null","reveal","image-keyboard-response","108","449302","0.0-6.0-4.14","2699201","co38479","norming","","","","","","",""
"null","../img/tt/1269tt.jpg","null","mooney2","image-keyboard-response","109","451304","0.0-6.0-5.14","2699201","co38479","norming","","","","","","",""
"2558","","","post_reveal_questions","survey-likert","110","453864","0.0-6.0-6.14","2699201","co38479","norming","","","{""aha"":6}","[0]","../img/tt/1269tt.jpg","",""
"null","<div style=""font-size:60px;""> </div>","null","fixation","html-keyboard-response","111","454067","0.0-6.0-0.15","2699201","co38479","norming","","","","","","",""
"null","../img/tt/019tt.jpg","null","mooney1","image-keyboard-response","112","457069","0.0-6.0-1.15","2699201","co38479","norming","","","","","","",""
"5845","","","post_mooney1_questions","survey-likert","113","462916","0.0-6.0-2.15","2699201","co38479","norming","","","{""curiosity"":3,""confidence"":2}","[0,1]","../img/tt/019tt.jpg","",""
"2500","","","recognition","survey-text","114","465423","0.0-6.0-3.15","2699201","co38479","norming","","","{""guess"":""clippers""}","","../img/tt/019tt.jpg","",""
"null","../img/gs/019gs.jpg","null","reveal","image-keyboard-response","115","467426","0.0-6.0-4.15","2699201","co38479","norming","","","","","","",""
"null","../img/tt/019tt.jpg","null","mooney2","image-keyboard-response","116","469428","0.0-6.0-5.15","2699201","co38479","norming","","","","","","",""
"2856","","","post_reveal_questions","survey-likert","117","472285","0.0-6.0-6.15","2699201","co38479","norming","","","{""aha"":2}","[0]","../img/tt/019tt.jpg","",""
"null","<div style=""font-size:60px;""> </div>","null","fixation","html-keyboard-response","118","472488","0.0-6.0-0.16","2699201","co38479","norming","","","","","","",""
"null","../img/tt/329tt.jpg","null","mooney1","image-keyboard-response","119","475491","0.0-6.0-1.16","2699201","co38479","norming","","","","","","",""
"3345","","","post_mooney1_questions","survey-likert","120","478837","0.0-6.0-2.16","2699201","co38479","norming","","","{""curiosity"":4,""confidence"":0}","[0,1]","../img/tt/329tt.jpg","",""
"887","","","recognition","survey-text","121","479731","0.0-6.0-3.16","2699201","co38479","norming","","","{""guess"":""""}","","../img/tt/329tt.jpg","",""
"null","../img/gs/329gs.jpg","null","reveal","image-keyboard-response","122","481733","0.0-6.0-4.16","2699201","co38479","norming","","","","","","",""
"null","../img/tt/329tt.jpg","null","mooney2","image-keyboard-response","123","483735","0.0-6.0-5.16","2699201","co38479","norming","","","","","","",""
"6824.000000000058","","","post_reveal_questions","survey-likert","124","490560","0.0-6.0-6.16","2699201","co38479","norming","","","{""aha"":3}","[0]","../img/tt/329tt.jpg","",""
"null","<div style=""font-size:60px;""> </div>","null","fixation","html-keyboard-response","125","490764","0.0-6.0-0.17","2699201","co38479","norming","","","","","","",""
"null","../img/tt/1154tt.jpg","null","mooney1","image-keyboard-response","126","493766","0.0-6.0-1.17","2699201","co38479","norming","","","","","","",""
"5306","","","post_mooney1_questions","survey-likert","127","499074","0.0-6.0-2.17","2699201","co38479","norming","","","{""curiosity"":2,""confidence"":0}","[0,1]","../img/tt/1154tt.jpg","",""
"880","","","recognition","survey-text","128","499961","0.0-6.0-3.17","2699201","co38479","norming","","","{""guess"":""""}","","../img/tt/1154tt.jpg","",""
"null","../img/gs/1154gs.jpg","null","reveal","image-keyboard-response","129","501963","0.0-6.0-4.17","2699201","co38479","norming","","","","","","",""
"null","../img/tt/1154tt.jpg","null","mooney2","image-keyboard-response","130","503965","0.0-6.0-5.17","2699201","co38479","norming","","","","","","",""
"2204.9999999998836","","","post_reveal_questions","survey-likert","131","506171","0.0-6.0-6.17","2699201","co38479","norming","","","{""aha"":4}","[0]","../img/tt/1154tt.jpg","",""
"null","<div style=""font-size:60px;""> </div>","null","fixation","html-keyboard-response","132","506373","0.0-6.0-0.18","2699201","co38479","norming","","","","","","",""
"null","../img/tt/590tt.jpg","null","mooney1","image-keyboard-response","133","509375","0.0-6.0-1.18","2699201","co38479","norming","","","","","","",""
"3995","","","post_mooney1_questions","survey-likert","134","513372","0.0-6.0-2.18","2699201","co38479","norming","","","{""curiosity"":3,""confidence"":1}","[0,1]","../img/tt/590tt.jpg","",""
"2747.999999999942","","","recognition","survey-text","135","516127","0.0-6.0-3.18","2699201","co38479","norming","","","{""guess"":""fruit""}","","../img/tt/590tt.jpg","",""
"null","../img/gs/590gs.jpg","null","reveal","image-keyboard-response","136","518129","0.0-6.0-4.18","2699201","co38479","norming","","","","","","",""
"null","../img/tt/590tt.jpg","null","mooney2","image-keyboard-response","137","520131","0.0-6.0-5.18","2699201","co38479","norming","","","","","","",""
"2306","","","post_reveal_questions","survey-likert","138","522439","0.0-6.0-6.18","2699201","co38479","norming","","","{""aha"":6}","[0]","../img/tt/590tt.jpg","",""
"null","<div style=""font-size:60px;""> </div>","null","fixation","html-keyboard-response","139","522641","0.0-6.0-0.19","2699201","co38479","norming","","","","","","",""
"null","../img/tt/1235tt.jpg","null","mooney1","image-keyboard-response","140","525644","0.0-6.0-1.19","2699201","co38479","norming","","","","","","",""
"4798","","","post_mooney1_questions","survey-likert","141","530444","0.0-6.0-2.19","2699201","co38479","norming","","","{""curiosity"":2,""confidence"":0}","[0,1]","../img/tt/1235tt.jpg","",""
"1151","","","recognition","survey-text","142","531601","0.0-6.0-3.19","2699201","co38479","norming","","","{""guess"":""""}","","../img/tt/1235tt.jpg","",""
"null","../img/gs/1235gs.jpg","null","reveal","image-keyboard-response","143","533603","0.0-6.0-4.19","2699201","co38479","norming","","","","","","",""
"null","../img/tt/1235tt.jpg","null","mooney2","image-keyboard-response","144","535605","0.0-6.0-5.19","2699201","co38479","norming","","","","","","",""
"3891","","","post_reveal_questions","survey-likert","145","539498","0.0-6.0-6.19","2699201","co38479","norming","","","{""aha"":1}","[0]","../img/tt/1235tt.jpg","",""
"null","<div style=""font-size:60px;""> </div>","null","fixation","html-keyboard-response","146","539701","0.0-6.0-0.20","2699201","co38479","norming","","","","","","",""
"null","../img/tt/1161tt.jpg","null","mooney1","image-keyboard-response","147","542703","0.0-6.0-1.20","2699201","co38479","norming","","","","","","",""
"5698","","","post_mooney1_questions","survey-likert","148","548403","0.0-6.0-2.20","2699201","co38479","norming","","","{""curiosity"":3,""confidence"":2}","[0,1]","../img/tt/1161tt.jpg","",""
"2008","","","recognition","survey-text","149","550418","0.0-6.0-3.20","2699201","co38479","norming","","","{""guess"":""dancer""}","","../img/tt/1161tt.jpg","",""
"null","../img/gs/1161gs.jpg","null","reveal","image-keyboard-response","150","552420","0.0-6.0-4.20","2699201","co38479","norming","","","","","","",""
"null","../img/tt/1161tt.jpg","null","mooney2","image-keyboard-response","151","554421","0.0-6.0-5.20","2699201","co38479","norming","","","","","","",""
"3820","","","post_reveal_questions","survey-likert","152","558243","0.0-6.0-6.20","2699201","co38479","norming","","","{""aha"":5}","[0]","../img/tt/1161tt.jpg","",""
"null","<div style=""font-size:60px;""> </div>","null","fixation","html-keyboard-response","153","558447","0.0-6.0-0.21","2699201","co38479","norming","","","","","","",""
"null","../img/tt/1123tt.jpg","null","mooney1","image-keyboard-response","154","561448","0.0-6.0-1.21","2699201","co38479","norming","","","","","","",""
"4078","","","post_mooney1_questions","survey-likert","155","565528","0.0-6.0-2.21","2699201","co38479","norming","","","{""curiosity"":3,""confidence"":4}","[0,1]","../img/tt/1123tt.jpg","",""
"2458.9999999998836","","","recognition","survey-text","156","567995","0.0-6.0-3.21","2699201","co38479","norming","","","{""guess"":""volleyball""}","","../img/tt/1123tt.jpg","",""
"null","../img/gs/1123gs.jpg","null","reveal","image-keyboard-response","157","569997","0.0-6.0-4.21","2699201","co38479","norming","","","","","","",""
"null","../img/tt/1123tt.jpg","null","mooney2","image-keyboard-response","158","571999","0.0-6.0-5.21","2699201","co38479","norming","","","","","","",""
"3727","","","post_reveal_questions","survey-likert","159","575728","0.0-6.0-6.21","2699201","co38479","norming","","","{""aha"":5}","[0]","../img/tt/1123tt.jpg","",""
"null","<div style=""font-size:60px;""> </div>","null","fixation","html-keyboard-response","160","575931","0.0-6.0-0.22","2699201","co38479","norming","","","","","","",""
"null","../img/tt/456tt.jpg","null","mooney1","image-keyboard-response","161","578933","0.0-6.0-1.22","2699201","co38479","norming","","","","","","",""
"6593.999999999884","","","post_mooney1_questions","survey-likert","162","585529","0.0-6.0-2.22","2699201","co38479","norming","","","{""curiosity"":6,""confidence"":0}","[0,1]","../img/tt/456tt.jpg","",""
"2443.9999999998836","","","recognition","survey-text","163","587980","0.0-6.0-3.22","2699201","co38479","norming","","","{""guess"":""seal""}","","../img/tt/456tt.jpg","",""
"null","../img/gs/456gs.jpg","null","reveal","image-keyboard-response","164","589982","0.0-6.0-4.22","2699201","co38479","norming","","","","","","",""
"null","../img/tt/456tt.jpg","null","mooney2","image-keyboard-response","165","591984","0.0-6.0-5.22","2699201","co38479","norming","","","","","","",""
"3282","","","post_reveal_questions","survey-likert","166","595267","0.0-6.0-6.22","2699201","co38479","norming","","","{""aha"":6}","[0]","../img/tt/456tt.jpg","",""
"null","<div style=""font-size:60px;""> </div>","null","fixation","html-keyboard-response","167","595470","0.0-6.0-0.23","2699201","co38479","norming","","","","","","",""
"null","../img/tt/435tt.jpg","null","mooney1","image-keyboard-response","168","598473","0.0-6.0-1.23","2699201","co38479","norming","","","","","","",""
"5895","","","post_mooney1_questions","survey-likert","169","604369","0.0-6.0-2.23","2699201","co38479","norming","","","{""curiosity"":1,""confidence"":0}","[0,1]","../img/tt/435tt.jpg","",""
"1183","","","recognition","survey-text","170","605558","0.0-6.0-3.23","2699201","co38479","norming","","","{""guess"":""""}","","../img/tt/435tt.jpg","",""
"null","../img/gs/435gs.jpg","null","reveal","image-keyboard-response","171","607561","0.0-6.0-4.23","2699201","co38479","norming","","","","","","",""
"null","../img/tt/435tt.jpg","null","mooney2","image-keyboard-response","172","609562","0.0-6.0-5.23","2699201","co38479","norming","","","","","","",""
"1781","","","post_reveal_questions","survey-likert","173","611344","0.0-6.0-6.23","2699201","co38479","norming","","","{""aha"":4}","[0]","../img/tt/435tt.jpg","",""
"null","<div style=""font-size:60px;""> </div>","null","fixation","html-keyboard-response","174","611547","0.0-6.0-0.24","2699201","co38479","norming","","","","","","",""
"null","../img/tt/007tt.jpg","null","mooney1","image-keyboard-response","175","614550","0.0-6.0-1.24","2699201","co38479","norming","","","","","","",""
"5076","","","post_mooney1_questions","survey-likert","176","619627","0.0-6.0-2.24","2699201","co38479","norming","","","{""curiosity"":1,""confidence"":2}","[0,1]","../img/tt/007tt.jpg","",""
"1453","","","recognition","survey-text","177","621086","0.0-6.0-3.24","2699201","co38479","norming","","","{""guess"":""walrus""}","","../img/tt/007tt.jpg","",""
"null","../img/gs/007gs.jpg","null","reveal","image-keyboard-response","178","623089","0.0-6.0-4.24","2699201","co38479","norming","","","","","","",""
"null","../img/tt/007tt.jpg","null","mooney2","image-keyboard-response","179","625091","0.0-6.0-5.24","2699201","co38479","norming","","","","","","",""
"2940","","","post_reveal_questions","survey-likert","180","628032","0.0-6.0-6.24","2699201","co38479","norming","","","{""aha"":6}","[0]","../img/tt/007tt.jpg","",""
"null","<div style=""font-size:60px;""> </div>","null","fixation","html-keyboard-response","181","628235","0.0-6.0-0.25","2699201","co38479","norming","","","","","","",""
"null","../img/tt/1006tt.jpg","null","mooney1","image-keyboard-response","182","631236","0.0-6.0-1.25","2699201","co38479","norming","","","","","","",""
"6422.000000000116","","","post_mooney1_questions","survey-likert","183","637660","0.0-6.0-2.25","2699201","co38479","norming","","","{""curiosity"":0,""confidence"":0}","[0,1]","../img/tt/1006tt.jpg","",""
"927.9999999998836","","","recognition","survey-text","184","638593","0.0-6.0-3.25","2699201","co38479","norming","","","{""guess"":""""}","","../img/tt/1006tt.jpg","",""
"null","../img/gs/1006gs.jpg","null","reveal","image-keyboard-response","185","640596","0.0-6.0-4.25","2699201","co38479","norming","","","","","","",""
"null","../img/tt/1006tt.jpg","null","mooney2","image-keyboard-response","186","642598","0.0-6.0-5.25","2699201","co38479","norming","","","","","","",""
"3063","","","post_reveal_questions","survey-likert","187","645662","0.0-6.0-6.25","2699201","co38479","norming","","","{""aha"":6}","[0]","../img/tt/1006tt.jpg","",""
"null","<div style=""font-size:60px;""> </div>","null","fixation","html-keyboard-response","188","645865","0.0-6.0-0.26","2699201","co38479","norming","","","","","","",""
"null","../img/tt/1190tt.jpg","null","mooney1","image-keyboard-response","189","648867","0.0-6.0-1.26","2699201","co38479","norming","","","","","","",""
"6228","","","post_mooney1_questions","survey-likert","190","655097","0.0-6.0-2.26","2699201","co38479","norming","","","{""curiosity"":3,""confidence"":1}","[0,1]","../img/tt/1190tt.jpg","",""
"2434","","","recognition","survey-text","191","657539","0.0-6.0-3.26","2699201","co38479","norming","","","{""guess"":""cow""}","","../img/tt/1190tt.jpg","",""
"null","../img/gs/1190gs.jpg","null","reveal","image-keyboard-response","192","659542","0.0-6.0-4.26","2699201","co38479","norming","","","","","","",""
"null","../img/tt/1190tt.jpg","null","mooney2","image-keyboard-response","193","661544","0.0-6.0-5.26","2699201","co38479","norming","","","","","","",""
"3390","","","post_reveal_questions","survey-likert","194","664934","0.0-6.0-6.26","2699201","co38479","norming","","","{""aha"":4}","[0]","../img/tt/1190tt.jpg","",""
"null","<div style=""font-size:60px;""> </div>","null","fixation","html-keyboard-response","195","665137","0.0-6.0-0.27","2699201","co38479","norming","","","","","","",""
"null","../img/tt/032tt.jpg","null","mooney1","image-keyboard-response","196","668140","0.0-6.0-1.27","2699201","co38479","norming","","","","","","",""
"4679","","","post_mooney1_questions","survey-likert","197","672821","0.0-6.0-2.27","2699201","co38479","norming","","","{""curiosity"":2,""confidence"":0}","[0,1]","../img/tt/032tt.jpg","",""
"740.9999999998836","","","recognition","survey-text","198","673568","0.0-6.0-3.27","2699201","co38479","norming","","","{""guess"":""""}","","../img/tt/032tt.jpg","",""
"null","../img/gs/032gs.jpg","null","reveal","image-keyboard-response","199","675571","0.0-6.0-4.27","2699201","co38479","norming","","","","","","",""
"null","../img/tt/032tt.jpg","null","mooney2","image-keyboard-response","200","677573","0.0-6.0-5.27","2699201","co38479","norming","","","","","","",""
"4042","","","post_reveal_questions","survey-likert","201","681617","0.0-6.0-6.27","2699201","co38479","norming","","","{""aha"":3}","[0]","../img/tt/032tt.jpg","",""
"null","<div style=""font-size:60px;""> </div>","null","fixation","html-keyboard-response","202","681820","0.0-6.0-0.28","2699201","co38479","norming","","","","","","",""
"null","../img/tt/1116tt.jpg","null","mooney1","image-keyboard-response","203","684822","0.0-6.0-1.28","2699201","co38479","norming","","","","","","",""
"6261","","","post_mooney1_questions","survey-likert","204","691086","0.0-6.0-2.28","2699201","co38479","norming","","","{""curiosity"":3,""confidence"":0}","[0,1]","../img/tt/1116tt.jpg","",""
"816","","","recognition","survey-text","205","691908","0.0-6.0-3.28","2699201","co38479","norming","","","{""guess"":""""}","","../img/tt/1116tt.jpg","",""
"null","../img/gs/1116gs.jpg","null","reveal","image-keyboard-response","206","693910","0.0-6.0-4.28","2699201","co38479","norming","","","","","","",""
"null","../img/tt/1116tt.jpg","null","mooney2","image-keyboard-response","207","695912","0.0-6.0-5.28","2699201","co38479","norming","","","","","","",""
"1711","","","post_reveal_questions","survey-likert","208","697625","0.0-6.0-6.28","2699201","co38479","norming","","","{""aha"":2}","[0]","../img/tt/1116tt.jpg","",""
"null","<div style=""font-size:60px;""> </div>","null","fixation","html-keyboard-response","209","697828","0.0-6.0-0.29","2699201","co38479","norming","","","","","","",""
"null","../img/tt/549tt.jpg","null","mooney1","image-keyboard-response","210","700830","0.0-6.0-1.29","2699201","co38479","norming","","","","","","",""
"2641","","","post_mooney1_questions","survey-likert","211","703472","0.0-6.0-2.29","2699201","co38479","norming","","","{""curiosity"":4,""confidence"":0}","[0,1]","../img/tt/549tt.jpg","",""
"886","","","recognition","survey-text","212","704366","0.0-6.0-3.29","2699201","co38479","norming","","","{""guess"":""""}","","../img/tt/549tt.jpg","",""
"null","../img/gs/549gs.jpg","null","reveal","image-keyboard-response","213","706367","0.0-6.0-4.29","2699201","co38479","norming","","","","","","",""
"null","../img/tt/549tt.jpg","null","mooney2","image-keyboard-response","214","708369","0.0-6.0-5.29","2699201","co38479","norming","","","","","","",""
"2072","","","post_reveal_questions","survey-likert","215","710444","0.0-6.0-6.29","2699201","co38479","norming","","","{""aha"":2}","[0]","../img/tt/549tt.jpg","",""
"null","<div style=""font-size:60px;""> </div>","null","fixation","html-keyboard-response","216","710647","0.0-6.0-0.30","2699201","co38479","norming","","","","","","",""
"null","../img/tt/098tt.jpg","null","mooney1","image-keyboard-response","217","713649","0.0-6.0-1.30","2699201","co38479","norming","","","","","","",""
"3849","","","post_mooney1_questions","survey-likert","218","717500","0.0-6.0-2.30","2699201","co38479","norming","","","{""curiosity"":2,""confidence"":0}","[0,1]","../img/tt/098tt.jpg","",""
"799","","","recognition","survey-text","219","718306","0.0-6.0-3.30","2699201","co38479","norming","","","{""guess"":""""}","","../img/tt/098tt.jpg","",""
"null","../img/gs/098gs.jpg","null","reveal","image-keyboard-response","220","720308","0.0-6.0-4.30","2699201","co38479","norming","","","","","","",""
"null","../img/tt/098tt.jpg","null","mooney2","image-keyboard-response","221","722311","0.0-6.0-5.30","2699201","co38479","norming","","","","","","",""
"5142","","","post_reveal_questions","survey-likert","222","727454","0.0-6.0-6.30","2699201","co38479","norming","","","{""aha"":3}","[0]","../img/tt/098tt.jpg","",""
"null","<div style=""font-size:60px;""> </div>","null","fixation","html-keyboard-response","223","727657","0.0-6.0-0.31","2699201","co38479","norming","","","","","","",""
"null","../img/tt/1251tt.jpg","null","mooney1","image-keyboard-response","224","730660","0.0-6.0-1.31","2699201","co38479","norming","","","","","","",""
"3678","","","post_mooney1_questions","survey-likert","225","734339","0.0-6.0-2.31","2699201","co38479","norming","","","{""curiosity"":0,""confidence"":0}","[0,1]","../img/tt/1251tt.jpg","",""
"1295","","","recognition","survey-text","226","735641","0.0-6.0-3.31","2699201","co38479","norming","","","{""guess"":""""}","","../img/tt/1251tt.jpg","",""
"null","../img/gs/1251gs.jpg","null","reveal","image-keyboard-response","227","737643","0.0-6.0-4.31","2699201","co38479","norming","","","","","","",""
"null","../img/tt/1251tt.jpg","null","mooney2","image-keyboard-response","228","739645","0.0-6.0-5.31","2699201","co38479","norming","","","","","","",""
"2276","","","post_reveal_questions","survey-likert","229","741921","0.0-6.0-6.31","2699201","co38479","norming","","","{""aha"":3}","[0]","../img/tt/1251tt.jpg","",""
"null","<div style=""font-size:60px;""> </div>","null","fixation","html-keyboard-response","230","742125","0.0-6.0-0.32","2699201","co38479","norming","","","","","","",""
"null","../img/tt/1173tt.jpg","null","mooney1","image-keyboard-response","231","745127","0.0-6.0-1.32","2699201","co38479","norming","","","","","","",""
"4779","","","post_mooney1_questions","survey-likert","232","749907","0.0-6.0-2.32","2699201","co38479","norming","","","{""curiosity"":2,""confidence"":1}","[0,1]","../img/tt/1173tt.jpg","",""
"3194","","","recognition","survey-text","233","753109","0.0-6.0-3.32","2699201","co38479","norming","","","{""guess"":""hockey""}","","../img/tt/1173tt.jpg","",""
"null","../img/gs/1173gs.jpg","null","reveal","image-keyboard-response","234","755112","0.0-6.0-4.32","2699201","co38479","norming","","","","","","",""
"null","../img/tt/1173tt.jpg","null","mooney2","image-keyboard-response","235","757114","0.0-6.0-5.32","2699201","co38479","norming","","","","","","",""
"2857","","","post_reveal_questions","survey-likert","236","759973","0.0-6.0-6.32","2699201","co38479","norming","","","{""aha"":3}","[0]","../img/tt/1173tt.jpg","",""
"null","<div style=""font-size:60px;""> </div>","null","fixation","html-keyboard-response","237","760176","0.0-6.0-0.33","2699201","co38479","norming","","","","","","",""
"null","../img/tt/1189tt.jpg","null","mooney1","image-keyboard-response","238","763179","0.0-6.0-1.33","2699201","co38479","norming","","","","","","",""
"6796","","","post_mooney1_questions","survey-likert","239","769977","0.0-6.0-2.33","2699201","co38479","norming","","","{""curiosity"":2,""confidence"":0}","[0,1]","../img/tt/1189tt.jpg","",""
"1147","","","recognition","survey-text","240","771131","0.0-6.0-3.33","2699201","co38479","norming","","","{""guess"":""""}","","../img/tt/1189tt.jpg","",""
"null","../img/gs/1189gs.jpg","null","reveal","image-keyboard-response","241","773133","0.0-6.0-4.33","2699201","co38479","norming","","","","","","",""
"null","../img/tt/1189tt.jpg","null","mooney2","image-keyboard-response","242","775135","0.0-6.0-5.33","2699201","co38479","norming","","","","","","",""
"5156","","","post_reveal_questions","survey-likert","243","780293","0.0-6.0-6.33","2699201","co38479","norming","","","{""aha"":3}","[0]","../img/tt/1189tt.jpg","",""
"null","<div style=""font-size:60px;""> </div>","null","fixation","html-keyboard-response","244","780497","0.0-6.0-0.34","2699201","co38479","norming","","","","","","",""
"null","../img/tt/517tt.jpg","null","mooney1","image-keyboard-response","245","783499","0.0-6.0-1.34","2699201","co38479","norming","","","","","","",""
"4761","","","post_mooney1_questions","survey-likert","246","788261","0.0-6.0-2.34","2699201","co38479","norming","","","{""curiosity"":3,""confidence"":0}","[0,1]","../img/tt/517tt.jpg","",""
"889","","","recognition","survey-text","247","789157","0.0-6.0-3.34","2699201","co38479","norming","","","{""guess"":""""}","","../img/tt/517tt.jpg","",""
"null","../img/gs/517gs.jpg","null","reveal","image-keyboard-response","248","791159","0.0-6.0-4.34","2699201","co38479","norming","","","","","","",""
"null","../img/tt/517tt.jpg","null","mooney2","image-keyboard-response","249","793161","0.0-6.0-5.34","2699201","co38479","norming","","","","","","",""
"99102.99999999988","","","post_reveal_questions","survey-likert","250","892265","0.0-6.0-6.34","2699201","co38479","norming","","","{""aha"":2}","[0]","../img/tt/517tt.jpg","",""
"null","<div style=""font-size:60px;""> </div>","null","fixation","html-keyboard-response","251","892468","0.0-6.0-0.35","2699201","co38479","norming","","","","","","",""
"null","../img/tt/1186tt.jpg","null","mooney1","image-keyboard-response","252","895471","0.0-6.0-1.35","2699201","co38479","norming","","","","","","",""
"3875","","","post_mooney1_questions","survey-likert","253","899348","0.0-6.0-2.35","2699201","co38479","norming","","","{""curiosity"":2,""confidence"":0}","[0,1]","../img/tt/1186tt.jpg","",""
"1560","","","recognition","survey-text","254","900915","0.0-6.0-3.35","2699201","co38479","norming","","","{""guess"":""skater""}","","../img/tt/1186tt.jpg","",""
"null","../img/gs/1186gs.jpg","null","reveal","image-keyboard-response","255","902917","0.0-6.0-4.35","2699201","co38479","norming","","","","","","",""
"null","../img/tt/1186tt.jpg","null","mooney2","image-keyboard-response","256","904919","0.0-6.0-5.35","2699201","co38479","norming","","","","","","",""
"3692.9999999998836","","","post_reveal_questions","survey-likert","257","908614","0.0-6.0-6.35","2699201","co38479","norming","","","{""aha"":3}","[0]","../img/tt/1186tt.jpg","",""
"null","<div style=""font-size:60px;""> </div>","null","fixation","html-keyboard-response","258","908818","0.0-6.0-0.36","2699201","co38479","norming","","","","","","",""
"null","../img/tt/507tt.jpg","null","mooney1","image-keyboard-response","259","911820","0.0-6.0-1.36","2699201","co38479","norming","","","","","","",""
"4096","","","post_mooney1_questions","survey-likert","260","915918","0.0-6.0-2.36","2699201","co38479","norming","","","{""curiosity"":0,""confidence"":0}","[0,1]","../img/tt/507tt.jpg","",""
"669","","","recognition","survey-text","261","916593","0.0-6.0-3.36","2699201","co38479","norming","","","{""guess"":""""}","","../img/tt/507tt.jpg","",""
"null","../img/gs/507gs.jpg","null","reveal","image-keyboard-response","262","918596","0.0-6.0-4.36","2699201","co38479","norming","","","","","","",""
"null","../img/tt/507tt.jpg","null","mooney2","image-keyboard-response","263","920598","0.0-6.0-5.36","2699201","co38479","norming","","","","","","",""
"3246.9999999998836","","","post_reveal_questions","survey-likert","264","923846","0.0-6.0-6.36","2699201","co38479","norming","","","{""aha"":2}","[0]","../img/tt/507tt.jpg","",""
"null","<div style=""font-size:60px;""> </div>","null","fixation","html-keyboard-response","265","924049","0.0-6.0-0.37","2699201","co38479","norming","","","","","","",""
"null","../img/tt/1122tt.jpg","null","mooney1","image-keyboard-response","266","927051","0.0-6.0-1.37","2699201","co38479","norming","","","","","","",""
"4537","","","post_mooney1_questions","survey-likert","267","931590","0.0-6.0-2.37","2699201","co38479","norming","","","{""curiosity"":0,""confidence"":6}","[0,1]","../img/tt/1122tt.jpg","",""
"2220","","","recognition","survey-text","268","933817","0.0-6.0-3.37","2699201","co38479","norming","","","{""guess"":""boat""}","","../img/tt/1122tt.jpg","",""
"null","../img/gs/1122gs.jpg","null","reveal","image-keyboard-response","269","935819","0.0-6.0-4.37","2699201","co38479","norming","","","","","","",""
"null","../img/tt/1122tt.jpg","null","mooney2","image-keyboard-response","270","937821","0.0-6.0-5.37","2699201","co38479","norming","","","","","","",""
"5030","","","post_reveal_questions","survey-likert","271","942853","0.0-6.0-6.37","2699201","co38479","norming","","","{""aha"":0}","[0]","../img/tt/1122tt.jpg","",""
"null","<div style=""font-size:60px;""> </div>","null","fixation","html-keyboard-response","272","943056","0.0-6.0-0.38","2699201","co38479","norming","","","","","","",""
"null","../img/tt/1091tt.jpg","null","mooney1","image-keyboard-response","273","946058","0.0-6.0-1.38","2699201","co38479","norming","","","","","","",""
"4518","","","post_mooney1_questions","survey-likert","274","950578","0.0-6.0-2.38","2699201","co38479","norming","","","{""curiosity"":0,""confidence"":6}","[0,1]","../img/tt/1091tt.jpg","",""
"2602.9999999998836","","","recognition","survey-text","275","953187","0.0-6.0-3.38","2699201","co38479","norming","","","{""guess"":""horse""}","","../img/tt/1091tt.jpg","",""
"null","../img/gs/1091gs.jpg","null","reveal","image-keyboard-response","276","955190","0.0-6.0-4.38","2699201","co38479","norming","","","","","","",""
"null","../img/tt/1091tt.jpg","null","mooney2","image-keyboard-response","277","957192","0.0-6.0-5.38","2699201","co38479","norming","","","","","","",""
"5197","","","post_reveal_questions","survey-likert","278","962390","0.0-6.0-6.38","2699201","co38479","norming","","","{""aha"":0}","[0]","../img/tt/1091tt.jpg","",""
"null","<div style=""font-size:60px;""> </div>","null","fixation","html-keyboard-response","279","962593","0.0-6.0-0.39","2699201","co38479","norming","","","","","","",""
"null","../img/tt/1125tt.jpg","null","mooney1","image-keyboard-response","280","965596","0.0-6.0-1.39","2699201","co38479","norming","","","","","","",""
"7209","","","post_mooney1_questions","survey-likert","281","972807","0.0-6.0-2.39","2699201","co38479","norming","","","{""curiosity"":2,""confidence"":1}","[0,1]","../img/tt/1125tt.jpg","",""
"1703","","","recognition","survey-text","282","974517","0.0-6.0-3.39","2699201","co38479","norming","","","{""guess"":""children""}","","../img/tt/1125tt.jpg","",""
"null","../img/gs/1125gs.jpg","null","reveal","image-keyboard-response","283","976520","0.0-6.0-4.39","2699201","co38479","norming","","","","","","",""
"null","../img/tt/1125tt.jpg","null","mooney2","image-keyboard-response","284","978522","0.0-6.0-5.39","2699201","co38479","norming","","","","","","",""
"2693","","","post_reveal_questions","survey-likert","285","981216","0.0-6.0-6.39","2699201","co38479","norming","","","{""aha"":6}","[0]","../img/tt/1125tt.jpg","",""
"null","<div style=""font-size:60px;""> </div>","null","fixation","html-keyboard-response","286","981419","0.0-6.0-0.40","2699201","co38479","norming","","","","","","",""
"null","../img/tt/436tt.jpg","null","mooney1","image-keyboard-response","287","984421","0.0-6.0-1.40","2699201","co38479","norming","","","","","","",""
"6698","","","post_mooney1_questions","survey-likert","288","991120","0.0-6.0-2.40","2699201","co38479","norming","","","{""curiosity"":1,""confidence"":3}","[0,1]","../img/tt/436tt.jpg","",""
"2874","","","recognition","survey-text","289","994000","0.0-6.0-3.40","2699201","co38479","norming","","","{""guess"":""lizard""}","","../img/tt/436tt.jpg","",""
"null","../img/gs/436gs.jpg","null","reveal","image-keyboard-response","290","996002","0.0-6.0-4.40","2699201","co38479","norming","","","","","","",""
"null","../img/tt/436tt.jpg","null","mooney2","image-keyboard-response","291","998005","0.0-6.0-5.40","2699201","co38479","norming","","","","","","",""
"4716","","","post_reveal_questions","survey-likert","292","1002721","0.0-6.0-6.40","2699201","co38479","norming","","","{""aha"":0}","[0]","../img/tt/436tt.jpg","",""
"null","<div style=""font-size:60px;""> </div>","null","fixation","html-keyboard-response","293","1002925","0.0-6.0-0.41","2699201","co38479","norming","","","","","","",""
"null","../img/tt/1275tt.jpg","null","mooney1","image-keyboard-response","294","1005927","0.0-6.0-1.41","2699201","co38479","norming","","","","","","",""
"7214","","","post_mooney1_questions","survey-likert","295","1013142","0.0-6.0-2.41","2699201","co38479","norming","","","{""curiosity"":0,""confidence"":6}","[0,1]","../img/tt/1275tt.jpg","",""
"1913","","","recognition","survey-text","296","1015062","0.0-6.0-3.41","2699201","co38479","norming","","","{""guess"":""boar""}","","../img/tt/1275tt.jpg","",""
"null","../img/gs/1275gs.jpg","null","reveal","image-keyboard-response","297","1017065","0.0-6.0-4.41","2699201","co38479","norming","","","","","","",""
"null","../img/tt/1275tt.jpg","null","mooney2","image-keyboard-response","298","1019067","0.0-6.0-5.41","2699201","co38479","norming","","","","","","",""
"3131","","","post_reveal_questions","survey-likert","299","1022200","0.0-6.0-6.41","2699201","co38479","norming","","","{""aha"":0}","[0]","../img/tt/1275tt.jpg","",""
"null","<div style=""font-size:60px;""> </div>","null","fixation","html-keyboard-response","300","1022403","0.0-6.0-0.42","2699201","co38479","norming","","","","","","",""
"null","../img/tt/584tt.jpg","null","mooney1","image-keyboard-response","301","1025405","0.0-6.0-1.42","2699201","co38479","norming","","","","","","",""
"7446.000000000233","","","post_mooney1_questions","survey-likert","302","1032852","0.0-6.0-2.42","2699201","co38479","norming","","","{""curiosity"":0,""confidence"":6}","[0,1]","../img/tt/584tt.jpg","",""
"6415","","","recognition","survey-text","303","1039274","0.0-6.0-3.42","2699201","co38479","norming","","","{""guess"":""finger star""}","","../img/tt/584tt.jpg","",""
"null","../img/gs/584gs.jpg","null","reveal","image-keyboard-response","304","1041276","0.0-6.0-4.42","2699201","co38479","norming","","","","","","",""
"null","../img/tt/584tt.jpg","null","mooney2","image-keyboard-response","305","1043278","0.0-6.0-5.42","2699201","co38479","norming","","","","","","",""
"7112","","","post_reveal_questions","survey-likert","306","1050391","0.0-6.0-6.42","2699201","co38479","norming","","","{""aha"":3}","[0]","../img/tt/584tt.jpg","",""
"null","<div style=""font-size:60px;""> </div>","null","fixation","html-keyboard-response","307","1050595","0.0-6.0-0.43","2699201","co38479","norming","","","","","","",""
"null","../img/tt/416tt.jpg","null","mooney1","image-keyboard-response","308","1053597","0.0-6.0-1.43","2699201","co38479","norming","","","","","","",""
"4483","","","post_mooney1_questions","survey-likert","309","1058082","0.0-6.0-2.43","2699201","co38479","norming","","","{""curiosity"":2,""confidence"":2}","[0,1]","../img/tt/416tt.jpg","",""
"30744","","","recognition","survey-text","310","1088832","0.0-6.0-3.43","2699201","co38479","norming","","","{""guess"":""ostrich""}","","../img/tt/416tt.jpg","",""
"null","../img/gs/416gs.jpg","null","reveal","image-keyboard-response","311","1090835","0.0-6.0-4.43","2699201","co38479","norming","","","","","","",""
"null","../img/tt/416tt.jpg","null","mooney2","image-keyboard-response","312","1092836","0.0-6.0-5.43","2699201","co38479","norming","","","","","","",""
"1609","","","post_reveal_questions","survey-likert","313","1094447","0.0-6.0-6.43","2699201","co38479","norming","","","{""aha"":6}","[0]","../img/tt/416tt.jpg","",""
"null","<div style=""font-size:60px;""> </div>","null","fixation","html-keyboard-response","314","1094650","0.0-6.0-0.44","2699201","co38479","norming","","","","","","",""
"null","../img/tt/440tt.jpg","null","mooney1","image-keyboard-response","315","1097652","0.0-6.0-1.44","2699201","co38479","norming","","","","","","",""
"4359","","","post_mooney1_questions","survey-likert","316","1102014","0.0-6.0-2.44","2699201","co38479","norming","","","{""curiosity"":3,""confidence"":0}","[0,1]","../img/tt/440tt.jpg","",""
"636","","","recognition","survey-text","317","1102658","0.0-6.0-3.44","2699201","co38479","norming","","","{""guess"":""""}","","../img/tt/440tt.jpg","",""
"null","../img/gs/440gs.jpg","null","reveal","image-keyboard-response","318","1104660","0.0-6.0-4.44","2699201","co38479","norming","","","","","","",""
"null","../img/tt/440tt.jpg","null","mooney2","image-keyboard-response","319","1106662","0.0-6.0-5.44","2699201","co38479","norming","","","","","","",""
"3538","","","post_reveal_questions","survey-likert","320","1110202","0.0-6.0-6.44","2699201","co38479","norming","","","{""aha"":3}","[0]","../img/tt/440tt.jpg","",""
"null","<div style=""font-size:60px;""> </div>","null","fixation","html-keyboard-response","321","1110405","0.0-6.0-0.45","2699201","co38479","norming","","","","","","",""
"null","../img/tt/296tt.jpg","null","mooney1","image-keyboard-response","322","1113408","0.0-6.0-1.45","2699201","co38479","norming","","","","","","",""
"5231","","","post_mooney1_questions","survey-likert","323","1118641","0.0-6.0-2.45","2699201","co38479","norming","","","{""curiosity"":3,""confidence"":2}","[0,1]","../img/tt/296tt.jpg","",""
"3560","","","recognition","survey-text","324","1122209","0.0-6.0-3.45","2699201","co38479","norming","","","{""guess"":""doctor chair""}","","../img/tt/296tt.jpg","",""
"null","../img/gs/296gs.jpg","null","reveal","image-keyboard-response","325","1124211","0.0-6.0-4.45","2699201","co38479","norming","","","","","","",""
"null","../img/tt/296tt.jpg","null","mooney2","image-keyboard-response","326","1126213","0.0-6.0-5.45","2699201","co38479","norming","","","","","","",""
"4163","","","post_reveal_questions","survey-likert","327","1130377","0.0-6.0-6.45","2699201","co38479","norming","","","{""aha"":3}","[0]","../img/tt/296tt.jpg","",""
"null","<div style=""font-size:60px;""> </div>","null","fixation","html-keyboard-response","328","1130580","0.0-6.0-0.46","2699201","co38479","norming","","","","","","",""
"null","../img/tt/1205tt.jpg","null","mooney1","image-keyboard-response","329","1133583","0.0-6.0-1.46","2699201","co38479","norming","","","","","","",""
"4295","","","post_mooney1_questions","survey-likert","330","1137880","0.0-6.0-2.46","2699201","co38479","norming","","","{""curiosity"":0,""confidence"":0}","[0,1]","../img/tt/1205tt.jpg","",""
"1027","","","recognition","survey-text","331","1138913","0.0-6.0-3.46","2699201","co38479","norming","","","{""guess"":""""}","","../img/tt/1205tt.jpg","",""
"null","../img/gs/1205gs.jpg","null","reveal","image-keyboard-response","332","1140916","0.0-6.0-4.46","2699201","co38479","norming","","","","","","",""
"null","../img/tt/1205tt.jpg","null","mooney2","image-keyboard-response","333","1142918","0.0-6.0-5.46","2699201","co38479","norming","","","","","","",""
"1658","","","post_reveal_questions","survey-likert","334","1144577","0.0-6.0-6.46","2699201","co38479","norming","","","{""aha"":3}","[0]","../img/tt/1205tt.jpg","",""
"null","<div style=""font-size:60px;""> </div>","null","fixation","html-keyboard-response","335","1144780","0.0-6.0-0.47","2699201","co38479","norming","","","","","","",""
"null","../img/tt/222tt.jpg","null","mooney1","image-keyboard-response","336","1147783","0.0-6.0-1.47","2699201","co38479","norming","","","","","","",""
"4556","","","post_mooney1_questions","survey-likert","337","1152340","0.0-6.0-2.47","2699201","co38479","norming","","","{""curiosity"":1,""confidence"":0}","[0,1]","../img/tt/222tt.jpg","",""
"816","","","recognition","survey-text","338","1153163","0.0-6.0-3.47","2699201","co38479","norming","","","{""guess"":""""}","","../img/tt/222tt.jpg","",""
"null","../img/gs/222gs.jpg","null","reveal","image-keyboard-response","339","1155165","0.0-6.0-4.47","2699201","co38479","norming","","","","","","",""
"null","../img/tt/222tt.jpg","null","mooney2","image-keyboard-response","340","1157167","0.0-6.0-5.47","2699201","co38479","norming","","","","","","",""
"2574","","","post_reveal_questions","survey-likert","341","1159742","0.0-6.0-6.47","2699201","co38479","norming","","","{""aha"":3}","[0]","../img/tt/222tt.jpg","",""
"null","<div style=""font-size:60px;""> </div>","null","fixation","html-keyboard-response","342","1159945","0.0-6.0-0.48","2699201","co38479","norming","","","","","","",""
"null","../img/tt/1069tt.jpg","null","mooney1","image-keyboard-response","343","1162947","0.0-6.0-1.48","2699201","co38479","norming","","","","","","",""
"4115","","","post_mooney1_questions","survey-likert","344","1167064","0.0-6.0-2.48","2699201","co38479","norming","","","{""curiosity"":0,""confidence"":6}","[0,1]","../img/tt/1069tt.jpg","",""
"2195","","","recognition","survey-text","345","1169265","0.0-6.0-3.48","2699201","co38479","norming","","","{""guess"":""goats""}","","../img/tt/1069tt.jpg","",""
"null","../img/gs/1069gs.jpg","null","reveal","image-keyboard-response","346","1171268","0.0-6.0-4.48","2699201","co38479","norming","","","","","","",""
"null","../img/tt/1069tt.jpg","null","mooney2","image-keyboard-response","347","1173270","0.0-6.0-5.48","2699201","co38479","norming","","","","","","",""
"1908","","","post_reveal_questions","survey-likert","348","1175180","0.0-6.0-6.48","2699201","co38479","norming","","","{""aha"":6}","[0]","../img/tt/1069tt.jpg","",""
"null","<div style=""font-size:60px;""> </div>","null","fixation","html-keyboard-response","349","1175383","0.0-6.0-0.49","2699201","co38479","norming","","","","","","",""
"null","../img/tt/468tt.jpg","null","mooney1","image-keyboard-response","350","1178385","0.0-6.0-1.49","2699201","co38479","norming","","","","","","",""
"5107.999999999767","","","post_mooney1_questions","survey-likert","351","1183495","0.0-6.0-2.49","2699201","co38479","norming","","","{""curiosity"":6,""confidence"":0}","[0,1]","../img/tt/468tt.jpg","",""
"782.9999999997672","","","recognition","survey-text","352","1184285","0.0-6.0-3.49","2699201","co38479","norming","","","{""guess"":""""}","","../img/tt/468tt.jpg","",""
"null","../img/gs/468gs.jpg","null","reveal","image-keyboard-response","353","1186287","0.0-6.0-4.49","2699201","co38479","norming","","","","","","",""
"null","../img/tt/468tt.jpg","null","mooney2","image-keyboard-response","354","1188288","0.0-6.0-5.49","2699201","co38479","norming","","","","","","",""
"1660","","","post_reveal_questions","survey-likert","355","1189949","0.0-6.0-6.49","2699201","co38479","norming","","","{""aha"":6}","[0]","../img/tt/468tt.jpg","",""
"null","<div style=""font-size:60px;""> </div>","null","fixation","html-keyboard-response","356","1190152","0.0-6.0-0.50","2699201","co38479","norming","","","","","","",""
"null","../img/tt/406tt.jpg","null","mooney1","image-keyboard-response","357","1193154","0.0-6.0-1.50","2699201","co38479","norming","","","","","","",""
"4376.999999999767","","","post_mooney1_questions","survey-likert","358","1197532","0.0-6.0-2.50","2699201","co38479","norming","","","{""curiosity"":3,""confidence"":0}","[0,1]","../img/tt/406tt.jpg","",""
"684","","","recognition","survey-text","359","1198224","0.0-6.0-3.50","2699201","co38479","norming","","","{""guess"":""""}","","../img/tt/406tt.jpg","",""
"null","../img/gs/406gs.jpg","null","reveal","image-keyboard-response","360","1200226","0.0-6.0-4.50","2699201","co38479","norming","","","","","","",""
"null","../img/tt/406tt.jpg","null","mooney2","image-keyboard-response","361","1202228","0.0-6.0-5.50","2699201","co38479","norming","","","","","","",""
"2713","","","post_reveal_questions","survey-likert","362","1204943","0.0-6.0-6.50","2699201","co38479","norming","","","{""aha"":3}","[0]","../img/tt/406tt.jpg","",""
"null","<div style=""font-size:60px;""> </div>","null","fixation","html-keyboard-response","363","1205146","0.0-6.0-0.51","2699201","co38479","norming","","","","","","",""
"null","../img/tt/515tt.jpg","null","mooney1","image-keyboard-response","364","1208148","0.0-6.0-1.51","2699201","co38479","norming","","","","","","",""
"8538","","","post_mooney1_questions","survey-likert","365","1216689","0.0-6.0-2.51","2699201","co38479","norming","","","{""curiosity"":1,""confidence"":4}","[0,1]","../img/tt/515tt.jpg","",""
"1540","","","recognition","survey-text","366","1218235","0.0-6.0-3.51","2699201","co38479","norming","","","{""guess"":""bird""}","","../img/tt/515tt.jpg","",""
"null","../img/gs/515gs.jpg","null","reveal","image-keyboard-response","367","1220237","0.0-6.0-4.51","2699201","co38479","norming","","","","","","",""
"null","../img/tt/515tt.jpg","null","mooney2","image-keyboard-response","368","1222238","0.0-6.0-5.51","2699201","co38479","norming","","","","","","",""
"2612","","","post_reveal_questions","survey-likert","369","1224851","0.0-6.0-6.51","2699201","co38479","norming","","","{""aha"":3}","[0]","../img/tt/515tt.jpg","",""
"null","<div style=""font-size:60px;""> </div>","null","fixation","html-keyboard-response","370","1225054","0.0-6.0-0.52","2699201","co38479","norming","","","","","","",""
"null","../img/tt/1276tt.jpg","null","mooney1","image-keyboard-response","371","1228056","0.0-6.0-1.52","2699201","co38479","norming","","","","","","",""
"3928","","","post_mooney1_questions","survey-likert","372","1231985","0.0-6.0-2.52","2699201","co38479","norming","","","{""curiosity"":3,""confidence"":0}","[0,1]","../img/tt/1276tt.jpg","",""
"1086","","","recognition","survey-text","373","1233078","0.0-6.0-3.52","2699201","co38479","norming","","","{""guess"":""""}","","../img/tt/1276tt.jpg","",""
"null","../img/gs/1276gs.jpg","null","reveal","image-keyboard-response","374","1235080","0.0-6.0-4.52","2699201","co38479","norming","","","","","","",""
"null","../img/tt/1276tt.jpg","null","mooney2","image-keyboard-response","375","1237082","0.0-6.0-5.52","2699201","co38479","norming","","","","","","",""
"2804","","","post_reveal_questions","survey-likert","376","1239886","0.0-6.0-6.52","2699201","co38479","norming","","","{""aha"":0}","[0]","../img/tt/1276tt.jpg","",""
"null","<div style=""font-size:60px;""> </div>","null","fixation","html-keyboard-response","377","1240089","0.0-6.0-0.53","2699201","co38479","norming","","","","","","",""
"null","../img/tt/163tt.jpg","null","mooney1","image-keyboard-response","378","1243092","0.0-6.0-1.53","2699201","co38479","norming","","","","","","",""
"29286","","","post_mooney1_questions","survey-likert","379","1272380","0.0-6.0-2.53","2699201","co38479","norming","","","{""curiosity"":0,""confidence"":4}","[0,1]","../img/tt/163tt.jpg","",""
"1874.0000000002328","","","recognition","survey-text","380","1274261","0.0-6.0-3.53","2699201","co38479","norming","","","{""guess"":""leopard""}","","../img/tt/163tt.jpg","",""
"null","../img/gs/163gs.jpg","null","reveal","image-keyboard-response","381","1276264","0.0-6.0-4.53","2699201","co38479","norming","","","","","","",""
"null","../img/tt/163tt.jpg","null","mooney2","image-keyboard-response","382","1278266","0.0-6.0-5.53","2699201","co38479","norming","","","","","","",""
"1933","","","post_reveal_questions","survey-likert","383","1280200","0.0-6.0-6.53","2699201","co38479","norming","","","{""aha"":6}","[0]","../img/tt/163tt.jpg","",""
"null","<div style=""font-size:60px;""> </div>","null","fixation","html-keyboard-response","384","1280403","0.0-6.0-0.54","2699201","co38479","norming","","","","","","",""
"null","../img/tt/1217tt.jpg","null","mooney1","image-keyboard-response","385","1283406","0.0-6.0-1.54","2699201","co38479","norming","","","","","","",""
"4095","","","post_mooney1_questions","survey-likert","386","1287502","0.0-6.0-2.54","2699201","co38479","norming","","","{""curiosity"":0,""confidence"":0}","[0,1]","../img/tt/1217tt.jpg","",""
"1059.0000000002328","","","recognition","survey-text","387","1288568","0.0-6.0-3.54","2699201","co38479","norming","","","{""guess"":""""}","","../img/tt/1217tt.jpg","",""
"null","../img/gs/1217gs.jpg","null","reveal","image-keyboard-response","388","1290570","0.0-6.0-4.54","2699201","co38479","norming","","","","","","",""
"null","../img/tt/1217tt.jpg","null","mooney2","image-keyboard-response","389","1292572","0.0-6.0-5.54","2699201","co38479","norming","","","","","","",""
"3039","","","post_reveal_questions","survey-likert","390","1295614","0.0-6.0-6.54","2699201","co38479","norming","","","{""aha"":3}","[0]","../img/tt/1217tt.jpg","",""
"null","<div style=""font-size:60px;""> </div>","null","fixation","html-keyboard-response","391","1295817","0.0-6.0-0.55","2699201","co38479","norming","","","","","","",""
"null","../img/tt/497tt.jpg","null","mooney1","image-keyboard-response","392","1298819","0.0-6.0-1.55","2699201","co38479","norming","","","","","","",""
"4705","","","post_mooney1_questions","survey-likert","393","1303526","0.0-6.0-2.55","2699201","co38479","norming","","","{""curiosity"":3,""confidence"":0}","[0,1]","../img/tt/497tt.jpg","",""
"857","","","recognition","survey-text","394","1304389","0.0-6.0-3.55","2699201","co38479","norming","","","{""guess"":""""}","","../img/tt/497tt.jpg","",""
"null","../img/gs/497gs.jpg","null","reveal","image-keyboard-response","395","1306391","0.0-6.0-4.55","2699201","co38479","norming","","","","","","",""
"null","../img/tt/497tt.jpg","null","mooney2","image-keyboard-response","396","1308393","0.0-6.0-5.55","2699201","co38479","norming","","","","","","",""
"4607","","","post_reveal_questions","survey-likert","397","1313002","0.0-6.0-6.55","2699201","co38479","norming","","","{""aha"":2}","[0]","../img/tt/497tt.jpg","",""
"null","<div style=""font-size:60px;""> </div>","null","fixation","html-keyboard-response","398","1313205","0.0-6.0-0.56","2699201","co38479","norming","","","","","","",""
"null","../img/tt/1353tt.jpg","null","mooney1","image-keyboard-response","399","1316207","0.0-6.0-1.56","2699201","co38479","norming","","","","","","",""
"3803","","","post_mooney1_questions","survey-likert","400","1320012","0.0-6.0-2.56","2699201","co38479","norming","","","{""curiosity"":2,""confidence"":0}","[0,1]","../img/tt/1353tt.jpg","",""
"602.9999999997672","","","recognition","survey-text","401","1320622","0.0-6.0-3.56","2699201","co38479","norming","","","{""guess"":""""}","","../img/tt/1353tt.jpg","",""
"null","../img/gs/1353gs.jpg","null","reveal","image-keyboard-response","402","1322624","0.0-6.0-4.56","2699201","co38479","norming","","","","","","",""
"null","../img/tt/1353tt.jpg","null","mooney2","image-keyboard-response","403","1324626","0.0-6.0-5.56","2699201","co38479","norming","","","","","","",""
"2723","","","post_reveal_questions","survey-likert","404","1327351","0.0-6.0-6.56","2699201","co38479","norming","","","{""aha"":4}","[0]","../img/tt/1353tt.jpg","",""
"null","<div style=""font-size:60px;""> </div>","null","fixation","html-keyboard-response","405","1327554","0.0-6.0-0.57","2699201","co38479","norming","","","","","","",""
"null","../img/tt/1101tt.jpg","null","mooney1","image-keyboard-response","406","1330557","0.0-6.0-1.57","2699201","co38479","norming","","","","","","",""
"5123.999999999767","","","post_mooney1_questions","survey-likert","407","1335682","0.0-6.0-2.57","2699201","co38479","norming","","","{""curiosity"":0,""confidence"":1}","[0,1]","../img/tt/1101tt.jpg","",""
"1117","","","recognition","survey-text","408","1336806","0.0-6.0-3.57","2699201","co38479","norming","","","{""guess"":""""}","","../img/tt/1101tt.jpg","",""
"null","../img/gs/1101gs.jpg","null","reveal","image-keyboard-response","409","1338808","0.0-6.0-4.57","2699201","co38479","norming","","","","","","",""
"null","../img/tt/1101tt.jpg","null","mooney2","image-keyboard-response","410","1340809","0.0-6.0-5.57","2699201","co38479","norming","","","","","","",""
"1741","","","post_reveal_questions","survey-likert","411","1342552","0.0-6.0-6.57","2699201","co38479","norming","","","{""aha"":3}","[0]","../img/tt/1101tt.jpg","",""
"null","<div style=""font-size:60px;""> </div>","null","fixation","html-keyboard-response","412","1342755","0.0-6.0-0.58","2699201","co38479","norming","","","","","","",""
"null","../img/tt/1227tt.jpg","null","mooney1","image-keyboard-response","413","1345757","0.0-6.0-1.58","2699201","co38479","norming","","","","","","",""
"3317","","","post_mooney1_questions","survey-likert","414","1349075","0.0-6.0-2.58","2699201","co38479","norming","","","{""curiosity"":0,""confidence"":0}","[0,1]","../img/tt/1227tt.jpg","",""
"775","","","recognition","survey-text","415","1349856","0.0-6.0-3.58","2699201","co38479","norming","","","{""guess"":""""}","","../img/tt/1227tt.jpg","",""
"null","../img/gs/1227gs.jpg","null","reveal","image-keyboard-response","416","1351858","0.0-6.0-4.58","2699201","co38479","norming","","","","","","",""
"null","../img/tt/1227tt.jpg","null","mooney2","image-keyboard-response","417","1353860","0.0-6.0-5.58","2699201","co38479","norming","","","","","","",""
"2088","","","post_reveal_questions","survey-likert","418","1355950","0.0-6.0-6.58","2699201","co38479","norming","","","{""aha"":4}","[0]","../img/tt/1227tt.jpg","",""
"null","<div style=""font-size:60px;""> </div>","null","fixation","html-keyboard-response","419","1356152","0.0-6.0-0.59","2699201","co38479","norming","","","","","","",""
"null","../img/tt/1243tt.jpg","null","mooney1","image-keyboard-response","420","1359155","0.0-6.0-1.59","2699201","co38479","norming","","","","","","",""
"3778","","","post_mooney1_questions","survey-likert","421","1362934","0.0-6.0-2.59","2699201","co38479","norming","","","{""curiosity"":3,""confidence"":0}","[0,1]","../img/tt/1243tt.jpg","",""
"857.0000000002328","","","recognition","survey-text","422","1363797","0.0-6.0-3.59","2699201","co38479","norming","","","{""guess"":""""}","","../img/tt/1243tt.jpg","",""
"null","../img/gs/1243gs.jpg","null","reveal","image-keyboard-response","423","1365799","0.0-6.0-4.59","2699201","co38479","norming","","","","","","",""
"null","../img/tt/1243tt.jpg","null","mooney2","image-keyboard-response","424","1367800","0.0-6.0-5.59","2699201","co38479","norming","","","","","","",""
"3212","","","post_reveal_questions","survey-likert","425","1371014","0.0-6.0-6.59","2699201","co38479","norming","","","{""aha"":0}","[0]","../img/tt/1243tt.jpg","",""
"null","<div style=""font-size:60px;""> </div>","null","fixation","html-keyboard-response","426","1371217","0.0-6.0-0.60","2699201","co38479","norming","","","","","","",""
"null","../img/tt/534tt.jpg","null","mooney1","image-keyboard-response","427","1374219","0.0-6.0-1.60","2699201","co38479","norming","","","","","","",""
"2881.999999999767","","","post_mooney1_questions","survey-likert","428","1377103","0.0-6.0-2.60","2699201","co38479","norming","","","{""curiosity"":1,""confidence"":1}","[0,1]","../img/tt/534tt.jpg","",""
"3309","","","recognition","survey-text","429","1380419","0.0-6.0-3.60","2699201","co38479","norming","","","{""guess"":""cactus""}","","../img/tt/534tt.jpg","",""
"null","../img/gs/534gs.jpg","null","reveal","image-keyboard-response","430","1382422","0.0-6.0-4.60","2699201","co38479","norming","","","","","","",""
"null","../img/tt/534tt.jpg","null","mooney2","image-keyboard-response","431","1384424","0.0-6.0-5.60","2699201","co38479","norming","","","","","","",""
"2130","","","post_reveal_questions","survey-likert","432","1386555","0.0-6.0-6.60","2699201","co38479","norming","","","{""aha"":4}","[0]","../img/tt/534tt.jpg","",""
"null","<div style=""font-size:60px;""> </div>","null","fixation","html-keyboard-response","433","1386757","0.0-6.0-0.61","2699201","co38479","norming","","","","","","",""
"null","../img/tt/1049tt.jpg","null","mooney1","image-keyboard-response","434","1389758","0.0-6.0-1.61","2699201","co38479","norming","","","","","","",""
"5334","","","post_mooney1_questions","survey-likert","435","1395094","0.0-6.0-2.61","2699201","co38479","norming","","","{""curiosity"":2,""confidence"":0}","[0,1]","../img/tt/1049tt.jpg","",""
"995","","","recognition","survey-text","436","1396096","0.0-6.0-3.61","2699201","co38479","norming","","","{""guess"":""""}","","../img/tt/1049tt.jpg","",""
"null","../img/gs/1049gs.jpg","null","reveal","image-keyboard-response","437","1398098","0.0-6.0-4.61","2699201","co38479","norming","","","","","","",""
"null","../img/tt/1049tt.jpg","null","mooney2","image-keyboard-response","438","1400100","0.0-6.0-5.61","2699201","co38479","norming","","","","","","",""
"2044","","","post_reveal_questions","survey-likert","439","1402146","0.0-6.0-6.61","2699201","co38479","norming","","","{""aha"":3}","[0]","../img/tt/1049tt.jpg","",""
"null","<div style=""font-size:60px;""> </div>","null","fixation","html-keyboard-response","440","1402349","0.0-6.0-0.62","2699201","co38479","norming","","","","","","",""
"null","../img/tt/135tt.jpg","null","mooney1","image-keyboard-response","441","1405351","0.0-6.0-1.62","2699201","co38479","norming","","","","","","",""
"2845","","","post_mooney1_questions","survey-likert","442","1408197","0.0-6.0-2.62","2699201","co38479","norming","","","{""curiosity"":0,""confidence"":6}","[0,1]","../img/tt/135tt.jpg","",""
"2232","","","recognition","survey-text","443","1410436","0.0-6.0-3.62","2699201","co38479","norming","","","{""guess"":""toilet""}","","../img/tt/135tt.jpg","",""
"null","../img/gs/135gs.jpg","null","reveal","image-keyboard-response","444","1412438","0.0-6.0-4.62","2699201","co38479","norming","","","","","","",""
"null","../img/tt/135tt.jpg","null","mooney2","image-keyboard-response","445","1414440","0.0-6.0-5.62","2699201","co38479","norming","","","","","","",""
"1459.9999999997672","","","post_reveal_questions","survey-likert","446","1415902","0.0-6.0-6.62","2699201","co38479","norming","","","{""aha"":6}","[0]","../img/tt/135tt.jpg","",""
"null","<div style=""font-size:60px;""> </div>","null","fixation","html-keyboard-response","447","1416105","0.0-6.0-0.63","2699201","co38479","norming","","","","","","",""
"null","../img/tt/040tt.jpg","null","mooney1","image-keyboard-response","448","1419107","0.0-6.0-1.63","2699201","co38479","norming","","","","","","",""
"3430","","","post_mooney1_questions","survey-likert","449","1422539","0.0-6.0-2.63","2699201","co38479","norming","","","{""curiosity"":0,""confidence"":1}","[0,1]","../img/tt/040tt.jpg","",""
"5533","","","recognition","survey-text","450","1428079","0.0-6.0-3.63","2699201","co38479","norming","","","{""guess"":""basketball player""}","","../img/tt/040tt.jpg","",""
"null","../img/gs/040gs.jpg","null","reveal","image-keyboard-response","451","1430081","0.0-6.0-4.63","2699201","co38479","norming","","","","","","",""
"null","../img/tt/040tt.jpg","null","mooney2","image-keyboard-response","452","1432083","0.0-6.0-5.63","2699201","co38479","norming","","","","","","",""
"5760.000000000233","","","post_reveal_questions","survey-likert","453","1437844","0.0-6.0-6.63","2699201","co38479","norming","","","{""aha"":4}","[0]","../img/tt/040tt.jpg","",""
"null","<div style=""font-size:60px;""> </div>","null","fixation","html-keyboard-response","454","1438047","0.0-6.0-0.64","2699201","co38479","norming","","","","","","",""
"null","../img/tt/1236tt.jpg","null","mooney1","image-keyboard-response","455","1441050","0.0-6.0-1.64","2699201","co38479","norming","","","","","","",""
"3035","","","post_mooney1_questions","survey-likert","456","1444087","0.0-6.0-2.64","2699201","co38479","norming","","","{""curiosity"":0,""confidence"":0}","[0,1]","../img/tt/1236tt.jpg","",""
"725","","","recognition","survey-text","457","1444819","0.0-6.0-3.64","2699201","co38479","norming","","","{""guess"":""""}","","../img/tt/1236tt.jpg","",""
"null","../img/gs/1236gs.jpg","null","reveal","image-keyboard-response","458","1446821","0.0-6.0-4.64","2699201","co38479","norming","","","","","","",""
"null","../img/tt/1236tt.jpg","null","mooney2","image-keyboard-response","459","1448822","0.0-6.0-5.64","2699201","co38479","norming","","","","","","",""
"2567","","","post_reveal_questions","survey-likert","460","1451391","0.0-6.0-6.64","2699201","co38479","norming","","","{""aha"":4}","[0]","../img/tt/1236tt.jpg","",""
"null","<div style=""font-size:60px;""> </div>","null","fixation","html-keyboard-response","461","1451594","0.0-6.0-0.65","2699201","co38479","norming","","","","","","",""
"null","../img/tt/1234tt.jpg","null","mooney1","image-keyboard-response","462","1454596","0.0-6.0-1.65","2699201","co38479","norming","","","","","","",""
"3631.000000000233","","","post_mooney1_questions","survey-likert","463","1458229","0.0-6.0-2.65","2699201","co38479","norming","","","{""curiosity"":3,""confidence"":0}","[0,1]","../img/tt/1234tt.jpg","",""
"1036","","","recognition","survey-text","464","1459272","0.0-6.0-3.65","2699201","co38479","norming","","","{""guess"":""""}","","../img/tt/1234tt.jpg","",""
"null","../img/gs/1234gs.jpg","null","reveal","image-keyboard-response","465","1461274","0.0-6.0-4.65","2699201","co38479","norming","","","","","","",""
"null","../img/tt/1234tt.jpg","null","mooney2","image-keyboard-response","466","1463276","0.0-6.0-5.65","2699201","co38479","norming","","","","","","",""
"4000.999999999767","","","post_reveal_questions","survey-likert","467","1467278","0.0-6.0-6.65","2699201","co38479","norming","","","{""aha"":2}","[0]","../img/tt/1234tt.jpg","",""
"null","<div style=""font-size:60px;""> </div>","null","fixation","html-keyboard-response","468","1467481","0.0-6.0-0.66","2699201","co38479","norming","","","","","","",""
"null","../img/tt/315tt.jpg","null","mooney1","image-keyboard-response","469","1470484","0.0-6.0-1.66","2699201","co38479","norming","","","","","","",""
"5064","","","post_mooney1_questions","survey-likert","470","1475549","0.0-6.0-2.66","2699201","co38479","norming","","","{""curiosity"":1,""confidence"":1}","[0,1]","../img/tt/315tt.jpg","",""
"892.9999999997672","","","recognition","survey-text","471","1476449","0.0-6.0-3.66","2699201","co38479","norming","","","{""guess"":""bird""}","","../img/tt/315tt.jpg","",""
"null","../img/gs/315gs.jpg","null","reveal","image-keyboard-response","472","1478452","0.0-6.0-4.66","2699201","co38479","norming","","","","","","",""
"null","../img/tt/315tt.jpg","null","mooney2","image-keyboard-response","473","1480454","0.0-6.0-5.66","2699201","co38479","norming","","","","","","",""
"2601.000000000233","","","post_reveal_questions","survey-likert","474","1483056","0.0-6.0-6.66","2699201","co38479","norming","","","{""aha"":5}","[0]","../img/tt/315tt.jpg","",""
"null","<div style=""font-size:60px;""> </div>","null","fixation","html-keyboard-response","475","1483259","0.0-6.0-0.67","2699201","co38479","norming","","","","","","",""
"null","../img/tt/1127tt.jpg","null","mooney1","image-keyboard-response","476","1486262","0.0-6.0-1.67","2699201","co38479","norming","","","","","","",""
"5432","","","post_mooney1_questions","survey-likert","477","1491695","0.0-6.0-2.67","2699201","co38479","norming","","","{""curiosity"":3,""confidence"":0}","[0,1]","../img/tt/1127tt.jpg","",""
"799","","","recognition","survey-text","478","1492500","0.0-6.0-3.67","2699201","co38479","norming","","","{""guess"":""""}","","../img/tt/1127tt.jpg","",""
"null","../img/gs/1127gs.jpg","null","reveal","image-keyboard-response","479","1494503","0.0-6.0-4.67","2699201","co38479","norming","","","","","","",""
"null","../img/tt/1127tt.jpg","null","mooney2","image-keyboard-response","480","1496505","0.0-6.0-5.67","2699201","co38479","norming","","","","","","",""
"2463.000000000233","","","post_reveal_questions","survey-likert","481","1498969","0.0-6.0-6.67","2699201","co38479","norming","","","{""aha"":3}","[0]","../img/tt/1127tt.jpg","",""
"null","<div style=""font-size:60px;""> </div>","null","fixation","html-keyboard-response","482","1499172","0.0-6.0-0.68","2699201","co38479","norming","","","","","","",""
"null","../img/tt/1307tt.jpg","null","mooney1","image-keyboard-response","483","1502175","0.0-6.0-1.68","2699201","co38479","norming","","","","","","",""
"4353","","","post_mooney1_questions","survey-likert","484","1506530","0.0-6.0-2.68","2699201","co38479","norming","","","{""curiosity"":1,""confidence"":5}","[0,1]","../img/tt/1307tt.jpg","",""
"4543.999999999767","","","recognition","survey-text","485","1511081","0.0-6.0-3.68","2699201","co38479","norming","","","{""guess"":""air balloon""}","","../img/tt/1307tt.jpg","",""
"null","../img/gs/1307gs.jpg","null","reveal","image-keyboard-response","486","1513084","0.0-6.0-4.68","2699201","co38479","norming","","","","","","",""
"null","../img/tt/1307tt.jpg","null","mooney2","image-keyboard-response","487","1515085","0.0-6.0-5.68","2699201","co38479","norming","","","","","","",""
"1635","","","post_reveal_questions","survey-likert","488","1516721","0.0-6.0-6.68","2699201","co38479","norming","","","{""aha"":6}","[0]","../img/tt/1307tt.jpg","",""
"null","<div style=""font-size:60px;""> </div>","null","fixation","html-keyboard-response","489","1516924","0.0-6.0-0.69","2699201","co38479","norming","","","","","","",""
"null","../img/tt/1268tt.jpg","null","mooney1","image-keyboard-response","490","1519926","0.0-6.0-1.69","2699201","co38479","norming","","","","","","",""
"3720","","","post_mooney1_questions","survey-likert","491","1523647","0.0-6.0-2.69","2699201","co38479","norming","","","{""curiosity"":0,""confidence"":0}","[0,1]","../img/tt/1268tt.jpg","",""
"1027","","","recognition","survey-text","492","1524681","0.0-6.0-3.69","2699201","co38479","norming","","","{""guess"":""""}","","../img/tt/1268tt.jpg","",""
"null","../img/gs/1268gs.jpg","null","reveal","image-keyboard-response","493","1526683","0.0-6.0-4.69","2699201","co38479","norming","","","","","","",""
"null","../img/tt/1268tt.jpg","null","mooney2","image-keyboard-response","494","1528686","0.0-6.0-5.69","2699201","co38479","norming","","","","","","",""
"1614","","","post_reveal_questions","survey-likert","495","1530302","0.0-6.0-6.69","2699201","co38479","norming","","","{""aha"":2}","[0]","../img/tt/1268tt.jpg","",""
"null","<div style=""font-size:60px;""> </div>","null","fixation","html-keyboard-response","496","1530505","0.0-6.0-0.70","2699201","co38479","norming","","","","","","",""
"null","../img/tt/094tt.jpg","null","mooney1","image-keyboard-response","497","1533507","0.0-6.0-1.70","2699201","co38479","norming","","","","","","",""
"5341","","","post_mooney1_questions","survey-likert","498","1538850","0.0-6.0-2.70","2699201","co38479","norming","","","{""curiosity"":2,""confidence"":0}","[0,1]","../img/tt/094tt.jpg","",""
"1279","","","recognition","survey-text","499","1540135","0.0-6.0-3.70","2699201","co38479","norming","","","{""guess"":""""}","","../img/tt/094tt.jpg","",""
"null","../img/gs/094gs.jpg","null","reveal","image-keyboard-response","500","1542137","0.0-6.0-4.70","2699201","co38479","norming","","","","","","",""
"null","../img/tt/094tt.jpg","null","mooney2","image-keyboard-response","501","1544139","0.0-6.0-5.70","2699201","co38479","norming","","","","","","",""
"1814","","","post_reveal_questions","survey-likert","502","1545955","0.0-6.0-6.70","2699201","co38479","norming","","","{""aha"":0}","[0]","../img/tt/094tt.jpg","",""
"null","<div style=""font-size:60px;""> </div>","null","fixation","html-keyboard-response","503","1546158","0.0-6.0-0.71","2699201","co38479","norming","","","","","","",""
"null","../img/tt/307tt.jpg","null","mooney1","image-keyboard-response","504","1549160","0.0-6.0-1.71","2699201","co38479","norming","","","","","","",""
"4490","","","post_mooney1_questions","survey-likert","505","1553651","0.0-6.0-2.71","2699201","co38479","norming","","","{""curiosity"":1,""confidence"":1}","[0,1]","../img/tt/307tt.jpg","",""
"2183","","","recognition","survey-text","506","1555841","0.0-6.0-3.71","2699201","co38479","norming","","","{""guess"":""hat""}","","../img/tt/307tt.jpg","",""
"null","../img/gs/307gs.jpg","null","reveal","image-keyboard-response","507","1557844","0.0-6.0-4.71","2699201","co38479","norming","","","","","","",""
"null","../img/tt/307tt.jpg","null","mooney2","image-keyboard-response","508","1559846","0.0-6.0-5.71","2699201","co38479","norming","","","","","","",""
"3098","","","post_reveal_questions","survey-likert","509","1562945","0.0-6.0-6.71","2699201","co38479","norming","","","{""aha"":2}","[0]","../img/tt/307tt.jpg","",""
"null","<div style=""font-size:60px;""> </div>","null","fixation","html-keyboard-response","510","1563148","0.0-6.0-0.72","2699201","co38479","norming","","","","","","",""
"null","../img/tt/121tt.jpg","null","mooney1","image-keyboard-response","511","1566150","0.0-6.0-1.72","2699201","co38479","norming","","","","","","",""
"4223","","","post_mooney1_questions","survey-likert","512","1570375","0.0-6.0-2.72","2699201","co38479","norming","","","{""curiosity"":1,""confidence"":1}","[0,1]","../img/tt/121tt.jpg","",""
"1183.9999999997672","","","recognition","survey-text","513","1571566","0.0-6.0-3.72","2699201","co38479","norming","","","{""guess"":""river""}","","../img/tt/121tt.jpg","",""
"null","../img/gs/121gs.jpg","null","reveal","image-keyboard-response","514","1573568","0.0-6.0-4.72","2699201","co38479","norming","","","","","","",""
"null","../img/tt/121tt.jpg","null","mooney2","image-keyboard-response","515","1575571","0.0-6.0-5.72","2699201","co38479","norming","","","","","","",""
"2908","","","post_reveal_questions","survey-likert","516","1578479","0.0-6.0-6.72","2699201","co38479","norming","","","{""aha"":3}","[0]","../img/tt/121tt.jpg","",""
"null","<div style=""font-size:60px;""> </div>","null","fixation","html-keyboard-response","517","1578683","0.0-6.0-0.73","2699201","co38479","norming","","","","","","",""
"null","../img/tt/1261tt.jpg","null","mooney1","image-keyboard-response","518","1581685","0.0-6.0-1.73","2699201","co38479","norming","","","","","","",""
"3442","","","post_mooney1_questions","survey-likert","519","1585129","0.0-6.0-2.73","2699201","co38479","norming","","","{""curiosity"":2,""confidence"":0}","[0,1]","../img/tt/1261tt.jpg","",""
"727.0000000002328","","","recognition","survey-text","520","1585863","0.0-6.0-3.73","2699201","co38479","norming","","","{""guess"":""""}","","../img/tt/1261tt.jpg","",""
"null","../img/gs/1261gs.jpg","null","reveal","image-keyboard-response","521","1587865","0.0-6.0-4.73","2699201","co38479","norming","","","","","","",""
"null","../img/tt/1261tt.jpg","null","mooney2","image-keyboard-response","522","1589867","0.0-6.0-5.73","2699201","co38479","norming","","","","","","",""
"3786","","","post_reveal_questions","survey-likert","523","1593655","0.0-6.0-6.73","2699201","co38479","norming","","","{""aha"":4}","[0]","../img/tt/1261tt.jpg","",""
"null","<div style=""font-size:60px;""> </div>","null","fixation","html-keyboard-response","524","1593858","0.0-6.0-0.74","2699201","co38479","norming","","","","","","",""
"null","../img/tt/1012tt.jpg","null","mooney1","image-keyboard-response","525","1596860","0.0-6.0-1.74","2699201","co38479","norming","","","","","","",""
"5811.999999999767","","","post_mooney1_questions","survey-likert","526","1602674","0.0-6.0-2.74","2699201","co38479","norming","","","{""curiosity"":1,""confidence"":0}","[0,1]","../img/tt/1012tt.jpg","",""
"767","","","recognition","survey-text","527","1603448","0.0-6.0-3.74","2699201","co38479","norming","","","{""guess"":""""}","","../img/tt/1012tt.jpg","",""
"null","../img/gs/1012gs.jpg","null","reveal","image-keyboard-response","528","1605450","0.0-6.0-4.74","2699201","co38479","norming","","","","","","",""
"null","../img/tt/1012tt.jpg","null","mooney2","image-keyboard-response","529","1607452","0.0-6.0-5.74","2699201","co38479","norming","","","","","","",""
"3520","","","post_reveal_questions","survey-likert","530","1610974","0.0-6.0-6.74","2699201","co38479","norming","","","{""aha"":4}","[0]","../img/tt/1012tt.jpg","",""
"null","<div style=""font-size:60px;""> </div>","null","fixation","html-keyboard-response","531","1611176","0.0-6.0-0.75","2699201","co38479","norming","","","","","","",""
"null","../img/tt/080tt.jpg","null","mooney1","image-keyboard-response","532","1614179","0.0-6.0-1.75","2699201","co38479","norming","","","","","","",""
"4929","","","post_mooney1_questions","survey-likert","533","1619109","0.0-6.0-2.75","2699201","co38479","norming","","","{""curiosity"":1,""confidence"":1}","[0,1]","../img/tt/080tt.jpg","",""
"3929","","","recognition","survey-text","534","1623045","0.0-6.0-3.75","2699201","co38479","norming","","","{""guess"":""mushroom""}","","../img/tt/080tt.jpg","",""
"null","../img/gs/080gs.jpg","null","reveal","image-keyboard-response","535","1625047","0.0-6.0-4.75","2699201","co38479","norming","","","","","","",""
"null","../img/tt/080tt.jpg","null","mooney2","image-keyboard-response","536","1627049","0.0-6.0-5.75","2699201","co38479","norming","","","","","","",""
"1805","","","post_reveal_questions","survey-likert","537","1628855","0.0-6.0-6.75","2699201","co38479","norming","","","{""aha"":5}","[0]","../img/tt/080tt.jpg","",""
"null","<div style=""font-size:60px;""> </div>","null","fixation","html-keyboard-response","538","1629058","0.0-6.0-0.76","2699201","co38479","norming","","","","","","",""
"null","../img/tt/1362tt.jpg","null","mooney1","image-keyboard-response","539","1632060","0.0-6.0-1.76","2699201","co38479","norming","","","","","","",""
"4694.000000000233","","","post_mooney1_questions","survey-likert","540","1636756","0.0-6.0-2.76","2699201","co38479","norming","","","{""curiosity"":0,""confidence"":2}","[0,1]","../img/tt/1362tt.jpg","",""
"4021.000000000233","","","recognition","survey-text","541","1640784","0.0-6.0-3.76","2699201","co38479","norming","","","{""guess"":""record player""}","","../img/tt/1362tt.jpg","",""
"null","../img/gs/1362gs.jpg","null","reveal","image-keyboard-response","542","1642787","0.0-6.0-4.76","2699201","co38479","norming","","","","","","",""
"null","../img/tt/1362tt.jpg","null","mooney2","image-keyboard-response","543","1644789","0.0-6.0-5.76","2699201","co38479","norming","","","","","","",""
"55753","","","post_reveal_questions","survey-likert","544","1700544","0.0-6.0-6.76","2699201","co38479","norming","","","{""aha"":0}","[0]","../img/tt/1362tt.jpg","",""
"null","<div style=""font-size:60px;""> </div>","null","fixation","html-keyboard-response","545","1700747","0.0-6.0-0.77","2699201","co38479","norming","","","","","","",""
"null","../img/tt/559tt.jpg","null","mooney1","image-keyboard-response","546","1703750","0.0-6.0-1.77","2699201","co38479","norming","","","","","","",""
"5512","","","post_mooney1_questions","survey-likert","547","1709263","0.0-6.0-2.77","2699201","co38479","norming","","","{""curiosity"":3,""confidence"":0}","[0,1]","../img/tt/559tt.jpg","",""
"700","","","recognition","survey-text","548","1709971","0.0-6.0-3.77","2699201","co38479","norming","","","{""guess"":""""}","","../img/tt/559tt.jpg","",""
"null","../img/gs/559gs.jpg","null","reveal","image-keyboard-response","549","1711973","0.0-6.0-4.77","2699201","co38479","norming","","","","","","",""
"null","../img/tt/559tt.jpg","null","mooney2","image-keyboard-response","550","1713975","0.0-6.0-5.77","2699201","co38479","norming","","","","","","",""
"1300.9999999997672","","","post_reveal_questions","survey-likert","551","1715278","0.0-6.0-6.77","2699201","co38479","norming","","","{""aha"":2}","[0]","../img/tt/559tt.jpg","",""
"null","<div style=""font-size:60px;""> </div>","null","fixation","html-keyboard-response","552","1715480","0.0-6.0-0.78","2699201","co38479","norming","","","","","","",""
"null","../img/tt/036tt.jpg","null","mooney1","image-keyboard-response","553","1718483","0.0-6.0-1.78","2699201","co38479","norming","","","","","","",""
"2948","","","post_mooney1_questions","survey-likert","554","1721432","0.0-6.0-2.78","2699201","co38479","norming","","","{""curiosity"":4,""confidence"":0}","[0,1]","../img/tt/036tt.jpg","",""
"596","","","recognition","survey-text","555","1722036","0.0-6.0-3.78","2699201","co38479","norming","","","{""guess"":""""}","","../img/tt/036tt.jpg","",""
"null","../img/gs/036gs.jpg","null","reveal","image-keyboard-response","556","1724038","0.0-6.0-4.78","2699201","co38479","norming","","","","","","",""
"null","../img/tt/036tt.jpg","null","mooney2","image-keyboard-response","557","1726040","0.0-6.0-5.78","2699201","co38479","norming","","","","","","",""
"1368.0000000002328","","","post_reveal_questions","survey-likert","558","1727409","0.0-6.0-6.78","2699201","co38479","norming","","","{""aha"":4}","[0]","../img/tt/036tt.jpg","",""
"null","<div style=""font-size:60px;""> </div>","null","fixation","html-keyboard-response","559","1727611","0.0-6.0-0.79","2699201","co38479","norming","","","","","","",""
"null","../img/tt/111tt.jpg","null","mooney1","image-keyboard-response","560","1730614","0.0-6.0-1.79","2699201","co38479","norming","","","","","","",""
"3836","","","post_mooney1_questions","survey-likert","561","1734451","0.0-6.0-2.79","2699201","co38479","norming","","","{""curiosity"":0,""confidence"":0}","[0,1]","../img/tt/111tt.jpg","",""
"709","","","recognition","survey-text","562","1735167","0.0-6.0-3.79","2699201","co38479","norming","","","{""guess"":""""}","","../img/tt/111tt.jpg","",""
"null","../img/gs/111gs.jpg","null","reveal","image-keyboard-response","563","1737169","0.0-6.0-4.79","2699201","co38479","norming","","","","","","",""
"null","../img/tt/111tt.jpg","null","mooney2","image-keyboard-response","564","1739172","0.0-6.0-5.79","2699201","co38479","norming","","","","","","",""
"2699","","","post_reveal_questions","survey-likert","565","1741872","0.0-6.0-6.79","2699201","co38479","norming","","","{""aha"":4}","[0]","../img/tt/111tt.jpg","",""
