"rt","stimulus","key_press","test_part","trial_type","trial_index","time_elapsed","internal_node_id","totalTime","subject","experiment_name","button_pressed","success","responses","question_order","currentStim","old","correct"
"7054","Welcome to the experiment. This is an online experiment so please don't close the tab/window until we say goodbye.  Press any key to begin.","32","instructions","html-keyboard-response","0","7076","0.0-0.0","2768847","co38056","norming","","","","","","",""
"16925","<div style='word-wrap: break-word; width: 900px'><h3>Please consider this information carefully before deciding whether to participate in this research</h3><ul style='text-align: left; font-size: .8em;'><li><b>Purpose of the research</b>: To examine how people process images.</li><li><b>What you will do in this research</b>:  Stimuli (images) will be presented on the computer and you will be asked different questions about them.</li><li><b>Time required</b>: Participation will take between 45 and 60 minutes to complete.</li><li><b>Risks</b>:  There are no anticipated risks associated with participating in this study. The effects of participating should be comparable to those you would experience from viewing a computer monitor for 30 minutes and using a mouse or keyboard.</li><li><b>Benefits</b>:  This study provides no benefits to you individually except for the credit. The study provides important information about the nature of perception and learning.</li><li><b>Confidentiality</b>:  Your participation in this study will remain confidential. No personally identifiable information will be associated with your data. Your de-identified data may be shared with other researchers and used in future projects.</li><li><b>Participation and withdrawal</b>:  Your participation in this study is completely voluntary and you may refuse to participate or you may choose to withdraw at any time without penalty.</li><li><b>How to contact the researchers</b>: If you have questions or concerns about your participation or payment, or want to request a summary of research findings, please contact Sander Van de Cruys (KU Leuven), at sander.vandecruys@kuleuven.be.</li></ul><p>The nature and purpose of this research have been sufficiently explained and I agree to participate in this study.  I understand that I am free to withdraw at any time without incurring any penalty.</p><p>Please consent by clicking the button below to continue. Otherwise, please exit the study at this time.</p></div>","","instructions","html-button-response","1","24004","0.0-1.0","2768847","co38056","norming","0","","","","","",""
"","","","instructions","fullscreen","2","26476","0.0-2.0","2768847","co38056","norming","","true","","","","",""
"34741","","","sona","survey-html-form","3","61220","0.0-3.0","2768847","co38056","norming","","","[{""name"":""sonaid"",""value"":""38056""},{""name"":""debrief"",""value"":""no""},{""name"":""datajoin"",""value"":""yes""}]","","","",""
"58258","<div style='word-wrap: break-word; width: 900px'><h3>Instructions</h3><p>This experiment will have 3 parts. In the first part you will see a series of distorted images like the one below on the left. As you can see in the righthand image, the distorted images are derived from actual photographs. In what follows, you will <strong>briefly</strong> be presented with <strong>only</strong> the distorted image.</p> <div style='float: left; margin-right: 20px;'><img src='../img/018tt.jpg' height='250' width='250'></img></div><div style='float: right; margin-left: 20px;'><img src='../img/018gs.jpg' height='250' width='250'></img></div><p>Subsequently you will be asked a few questions about the image: One question on how <strong>curious</strong> you are about the solution and one on how <strong>confident</strong> you are that you know the solution.</p>Next, we ask you to make a guess on what is in the image. Note that it is OK to name just the <strong>basic level category</strong>. For example when you see a parrot in the image, 'parrot' will obviously be a correct answer but also correct is 'bird'. However, 'animal' will <strong>not</strong> be counted as a correct response. For the example above, 'rose' would be correct or 'flower', but not 'plant'. When soccer players are depicted, 'soccer', 'football', 'soccer players' will be correct, but not 'humans', 'outdoors', or 'sports'. You do not need to describe the image in full, just name the main object in it <strong>in one or two words</strong>. All images depict objects from one of the following broad level categories: animals, inanimate objects, plants, sports, vehicles, and food. Recognizing means knowing <strong>more</strong> than these broad labels for a given image. But we always encourage you to <strong>make a guess</strong> if you can. Note that you are allowed to use <strong>Dutch and English</strong> in your answers, whatever comes easiest for you.</p><p>Press any key to continue.</p></div>","32","instructions","html-keyboard-response","4","119481","0.0-4.0","2768847","co38056","norming","","","","","","",""
"19264","<div style='word-wrap: break-word; width: 900px'><h3>Instructions</h3> <p>Next, the solution image will be revealed to you and you'll be asked to indicate how strong your <strong>aha-experience</strong> was after seeing the solution. This describes the positive feeling of the 'click' you sometimes experience, when the pieces of the 'puzzle' fall together and you suddenly have 'insight' in the image.</p><img src='aha.jpg' height='188' width='250'></img><p>Note that there are no right or wrong answers. We are interested in what <strong>you</strong> see in the image and how <strong>you</strong> feel about it.</p><p>Press any key to start the experiment.</p></div>","32","instructions","html-keyboard-response","5","138747","0.0-5.0","2768847","co38056","norming","","","","","","",""
"null","<div style=""font-size:60px;""> </div>","null","fixation","html-keyboard-response","6","138949","0.0-6.0-0.0","2768847","co38056","norming","","","","","","",""
"null","../img/tt/1046tt.jpg","null","mooney1","image-keyboard-response","7","141952","0.0-6.0-1.0","2768847","co38056","norming","","","","","","",""
"6531","","","post_mooney1_questions","survey-likert","8","148486","0.0-6.0-2.0","2768847","co38056","norming","","","{""curiosity"":2,""confidence"":2}","[0,1]","../img/tt/1046tt.jpg","",""
"2713","","","recognition","survey-text","9","151207","0.0-6.0-3.0","2768847","co38056","norming","","","{""guess"":""Pizza""}","","../img/tt/1046tt.jpg","",""
"null","../img/gs/1046gs.jpg","null","reveal","image-keyboard-response","10","153209","0.0-6.0-4.0","2768847","co38056","norming","","","","","","",""
"null","../img/tt/1046tt.jpg","null","mooney2","image-keyboard-response","11","155211","0.0-6.0-5.0","2768847","co38056","norming","","","","","","",""
"3428.000000000029","","","post_reveal_questions","survey-likert","12","158641","0.0-6.0-6.0","2768847","co38056","norming","","","{""aha"":1}","[0]","../img/tt/1046tt.jpg","",""
"null","<div style=""font-size:60px;""> </div>","null","fixation","html-keyboard-response","13","158845","0.0-6.0-0.1","2768847","co38056","norming","","","","","","",""
"null","../img/tt/1156tt.jpg","null","mooney1","image-keyboard-response","14","161847","0.0-6.0-1.1","2768847","co38056","norming","","","","","","",""
"8462","","","post_mooney1_questions","survey-likert","15","170312","0.0-6.0-2.1","2768847","co38056","norming","","","{""curiosity"":4,""confidence"":1}","[0,1]","../img/tt/1156tt.jpg","",""
"3202","","","recognition","survey-text","16","173522","0.0-6.0-3.1","2768847","co38056","norming","","","{""guess"":""Bird""}","","../img/tt/1156tt.jpg","",""
"null","../img/gs/1156gs.jpg","null","reveal","image-keyboard-response","17","175524","0.0-6.0-4.1","2768847","co38056","norming","","","","","","",""
"null","../img/tt/1156tt.jpg","null","mooney2","image-keyboard-response","18","177526","0.0-6.0-5.1","2768847","co38056","norming","","","","","","",""
"4323","","","post_reveal_questions","survey-likert","19","181850","0.0-6.0-6.1","2768847","co38056","norming","","","{""aha"":3}","[0]","../img/tt/1156tt.jpg","",""
"null","<div style=""font-size:60px;""> </div>","null","fixation","html-keyboard-response","20","182053","0.0-6.0-0.2","2768847","co38056","norming","","","","","","",""
"null","../img/tt/1087tt.jpg","null","mooney1","image-keyboard-response","21","185056","0.0-6.0-1.2","2768847","co38056","norming","","","","","","",""
"5045","","","post_mooney1_questions","survey-likert","22","190102","0.0-6.0-2.2","2768847","co38056","norming","","","{""curiosity"":3,""confidence"":1}","[0,1]","../img/tt/1087tt.jpg","",""
"2803","","","recognition","survey-text","23","192913","0.0-6.0-3.2","2768847","co38056","norming","","","{""guess"":""Cow""}","","../img/tt/1087tt.jpg","",""
"null","../img/gs/1087gs.jpg","null","reveal","image-keyboard-response","24","194915","0.0-6.0-4.2","2768847","co38056","norming","","","","","","",""
"null","../img/tt/1087tt.jpg","null","mooney2","image-keyboard-response","25","196918","0.0-6.0-5.2","2768847","co38056","norming","","","","","","",""
"4062","","","post_reveal_questions","survey-likert","26","200981","0.0-6.0-6.2","2768847","co38056","norming","","","{""aha"":2}","[0]","../img/tt/1087tt.jpg","",""
"null","<div style=""font-size:60px;""> </div>","null","fixation","html-keyboard-response","27","201184","0.0-6.0-0.3","2768847","co38056","norming","","","","","","",""
"null","../img/tt/001tt.jpg","null","mooney1","image-keyboard-response","28","204187","0.0-6.0-1.3","2768847","co38056","norming","","","","","","",""
"8471.00000000003","","","post_mooney1_questions","survey-likert","29","212660","0.0-6.0-2.3","2768847","co38056","norming","","","{""curiosity"":3,""confidence"":0}","[0,1]","../img/tt/001tt.jpg","",""
"8618.00000000003","","","recognition","survey-text","30","221285","0.0-6.0-3.3","2768847","co38056","norming","","","{""guess"":""Cow""}","","../img/tt/001tt.jpg","",""
"null","../img/gs/001gs.jpg","null","reveal","image-keyboard-response","31","223287","0.0-6.0-4.3","2768847","co38056","norming","","","","","","",""
"null","../img/tt/001tt.jpg","null","mooney2","image-keyboard-response","32","225290","0.0-6.0-5.3","2768847","co38056","norming","","","","","","",""
"4304","","","post_reveal_questions","survey-likert","33","229596","0.0-6.0-6.3","2768847","co38056","norming","","","{""aha"":2}","[0]","../img/tt/001tt.jpg","",""
"null","<div style=""font-size:60px;""> </div>","null","fixation","html-keyboard-response","34","229799","0.0-6.0-0.4","2768847","co38056","norming","","","","","","",""
"null","../img/tt/222tt.jpg","null","mooney1","image-keyboard-response","35","232801","0.0-6.0-1.4","2768847","co38056","norming","","","","","","",""
"8078","","","post_mooney1_questions","survey-likert","36","240882","0.0-6.0-2.4","2768847","co38056","norming","","","{""curiosity"":5,""confidence"":2}","[0,1]","../img/tt/222tt.jpg","",""
"3738.999999999971","","","recognition","survey-text","37","244629","0.0-6.0-3.4","2768847","co38056","norming","","","{""guess"":""Koe""}","","../img/tt/222tt.jpg","",""
"null","../img/gs/222gs.jpg","null","reveal","image-keyboard-response","38","246631","0.0-6.0-4.4","2768847","co38056","norming","","","","","","",""
"null","../img/tt/222tt.jpg","null","mooney2","image-keyboard-response","39","248633","0.0-6.0-5.4","2768847","co38056","norming","","","","","","",""
"2781","","","post_reveal_questions","survey-likert","40","251416","0.0-6.0-6.4","2768847","co38056","norming","","","{""aha"":5}","[0]","../img/tt/222tt.jpg","",""
"null","<div style=""font-size:60px;""> </div>","null","fixation","html-keyboard-response","41","251619","0.0-6.0-0.5","2768847","co38056","norming","","","","","","",""
"null","../img/tt/1101tt.jpg","null","mooney1","image-keyboard-response","42","254621","0.0-6.0-1.5","2768847","co38056","norming","","","","","","",""
"6579","","","post_mooney1_questions","survey-likert","43","261202","0.0-6.0-2.5","2768847","co38056","norming","","","{""curiosity"":4,""confidence"":2}","[0,1]","../img/tt/1101tt.jpg","",""
"3721","","","recognition","survey-text","44","264929","0.0-6.0-3.5","2768847","co38056","norming","","","{""guess"":""Voetbal""}","","../img/tt/1101tt.jpg","",""
"null","../img/gs/1101gs.jpg","null","reveal","image-keyboard-response","45","266932","0.0-6.0-4.5","2768847","co38056","norming","","","","","","",""
"null","../img/tt/1101tt.jpg","null","mooney2","image-keyboard-response","46","268934","0.0-6.0-5.5","2768847","co38056","norming","","","","","","",""
"2416","","","post_reveal_questions","survey-likert","47","271351","0.0-6.0-6.5","2768847","co38056","norming","","","{""aha"":1}","[0]","../img/tt/1101tt.jpg","",""
"null","<div style=""font-size:60px;""> </div>","null","fixation","html-keyboard-response","48","271554","0.0-6.0-0.6","2768847","co38056","norming","","","","","","",""
"null","../img/tt/378tt.jpg","null","mooney1","image-keyboard-response","49","274557","0.0-6.0-1.6","2768847","co38056","norming","","","","","","",""
"4205","","","post_mooney1_questions","survey-likert","50","278764","0.0-6.0-2.6","2768847","co38056","norming","","","{""curiosity"":3,""confidence"":0}","[0,1]","../img/tt/378tt.jpg","",""
"3532.999999999942","","","recognition","survey-text","51","282304","0.0-6.0-3.6","2768847","co38056","norming","","","{""guess"":""Food""}","","../img/tt/378tt.jpg","",""
"null","../img/gs/378gs.jpg","null","reveal","image-keyboard-response","52","284307","0.0-6.0-4.6","2768847","co38056","norming","","","","","","",""
"null","../img/tt/378tt.jpg","null","mooney2","image-keyboard-response","53","286309","0.0-6.0-5.6","2768847","co38056","norming","","","","","","",""
"2510","","","post_reveal_questions","survey-likert","54","288821","0.0-6.0-6.6","2768847","co38056","norming","","","{""aha"":4}","[0]","../img/tt/378tt.jpg","",""
"null","<div style=""font-size:60px;""> </div>","null","fixation","html-keyboard-response","55","289023","0.0-6.0-0.7","2768847","co38056","norming","","","","","","",""
"null","../img/tt/442tt.jpg","null","mooney1","image-keyboard-response","56","292025","0.0-6.0-1.7","2768847","co38056","norming","","","","","","",""
"6090.000000000058","","","post_mooney1_questions","survey-likert","57","298118","0.0-6.0-2.7","2768847","co38056","norming","","","{""curiosity"":5,""confidence"":1}","[0,1]","../img/tt/442tt.jpg","",""
"3233","","","recognition","survey-text","58","301359","0.0-6.0-3.7","2768847","co38056","norming","","","{""guess"":""Bloem""}","","../img/tt/442tt.jpg","",""
"null","../img/gs/442gs.jpg","null","reveal","image-keyboard-response","59","303361","0.0-6.0-4.7","2768847","co38056","norming","","","","","","",""
"null","../img/tt/442tt.jpg","null","mooney2","image-keyboard-response","60","305364","0.0-6.0-5.7","2768847","co38056","norming","","","","","","",""
"3489","","","post_reveal_questions","survey-likert","61","308855","0.0-6.0-6.7","2768847","co38056","norming","","","{""aha"":4}","[0]","../img/tt/442tt.jpg","",""
"null","<div style=""font-size:60px;""> </div>","null","fixation","html-keyboard-response","62","309058","0.0-6.0-0.8","2768847","co38056","norming","","","","","","",""
"null","../img/tt/1154tt.jpg","null","mooney1","image-keyboard-response","63","312061","0.0-6.0-1.8","2768847","co38056","norming","","","","","","",""
"6685","","","post_mooney1_questions","survey-likert","64","318747","0.0-6.0-2.8","2768847","co38056","norming","","","{""curiosity"":4,""confidence"":1}","[0,1]","../img/tt/1154tt.jpg","",""
"3798","","","recognition","survey-text","65","322553","0.0-6.0-3.8","2768847","co38056","norming","","","{""guess"":""Koe""}","","../img/tt/1154tt.jpg","",""
"null","../img/gs/1154gs.jpg","null","reveal","image-keyboard-response","66","324555","0.0-6.0-4.8","2768847","co38056","norming","","","","","","",""
"null","../img/tt/1154tt.jpg","null","mooney2","image-keyboard-response","67","326557","0.0-6.0-5.8","2768847","co38056","norming","","","","","","",""
"10615","","","post_reveal_questions","survey-likert","68","337174","0.0-6.0-6.8","2768847","co38056","norming","","","{""aha"":4}","[0]","../img/tt/1154tt.jpg","",""
"null","<div style=""font-size:60px;""> </div>","null","fixation","html-keyboard-response","69","337377","0.0-6.0-0.9","2768847","co38056","norming","","","","","","",""
"null","../img/tt/517tt.jpg","null","mooney1","image-keyboard-response","70","340380","0.0-6.0-1.9","2768847","co38056","norming","","","","","","",""
"3906","","","post_mooney1_questions","survey-likert","71","344288","0.0-6.0-2.9","2768847","co38056","norming","","","{""curiosity"":5,""confidence"":2}","[0,1]","../img/tt/517tt.jpg","",""
"1649","","","recognition","survey-text","72","345944","0.0-6.0-3.9","2768847","co38056","norming","","","{""guess"":""Beer""}","","../img/tt/517tt.jpg","",""
"null","../img/gs/517gs.jpg","null","reveal","image-keyboard-response","73","347947","0.0-6.0-4.9","2768847","co38056","norming","","","","","","",""
"null","../img/tt/517tt.jpg","null","mooney2","image-keyboard-response","74","349949","0.0-6.0-5.9","2768847","co38056","norming","","","","","","",""
"3099","","","post_reveal_questions","survey-likert","75","353050","0.0-6.0-6.9","2768847","co38056","norming","","","{""aha"":4}","[0]","../img/tt/517tt.jpg","",""
"null","<div style=""font-size:60px;""> </div>","null","fixation","html-keyboard-response","76","353253","0.0-6.0-0.10","2768847","co38056","norming","","","","","","",""
"null","../img/tt/1260tt.jpg","null","mooney1","image-keyboard-response","77","356255","0.0-6.0-1.10","2768847","co38056","norming","","","","","","",""
"5349","","","post_mooney1_questions","survey-likert","78","361607","0.0-6.0-2.10","2768847","co38056","norming","","","{""curiosity"":3,""confidence"":0}","[0,1]","../img/tt/1260tt.jpg","",""
"7069","","","recognition","survey-text","79","368683","0.0-6.0-3.10","2768847","co38056","norming","","","{""guess"":""Tennis""}","","../img/tt/1260tt.jpg","",""
"null","../img/gs/1260gs.jpg","null","reveal","image-keyboard-response","80","370685","0.0-6.0-4.10","2768847","co38056","norming","","","","","","",""
"null","../img/tt/1260tt.jpg","null","mooney2","image-keyboard-response","81","372687","0.0-6.0-5.10","2768847","co38056","norming","","","","","","",""
"2392","","","post_reveal_questions","survey-likert","82","375082","0.0-6.0-6.10","2768847","co38056","norming","","","{""aha"":5}","[0]","../img/tt/1260tt.jpg","",""
"null","<div style=""font-size:60px;""> </div>","null","fixation","html-keyboard-response","83","375285","0.0-6.0-0.11","2768847","co38056","norming","","","","","","",""
"null","../img/tt/552tt.jpg","null","mooney1","image-keyboard-response","84","378287","0.0-6.0-1.11","2768847","co38056","norming","","","","","","",""
"4617.000000000058","","","post_mooney1_questions","survey-likert","85","382906","0.0-6.0-2.11","2768847","co38056","norming","","","{""curiosity"":6,""confidence"":2}","[0,1]","../img/tt/552tt.jpg","",""
"3532","","","recognition","survey-text","86","386445","0.0-6.0-3.11","2768847","co38056","norming","","","{""guess"":""Stinkdier""}","","../img/tt/552tt.jpg","",""
"null","../img/gs/552gs.jpg","null","reveal","image-keyboard-response","87","388447","0.0-6.0-4.11","2768847","co38056","norming","","","","","","",""
"null","../img/tt/552tt.jpg","null","mooney2","image-keyboard-response","88","390449","0.0-6.0-5.11","2768847","co38056","norming","","","","","","",""
"2789","","","post_reveal_questions","survey-likert","89","393239","0.0-6.0-6.11","2768847","co38056","norming","","","{""aha"":2}","[0]","../img/tt/552tt.jpg","",""
"null","<div style=""font-size:60px;""> </div>","null","fixation","html-keyboard-response","90","393442","0.0-6.0-0.12","2768847","co38056","norming","","","","","","",""
"null","../img/tt/079tt.jpg","null","mooney1","image-keyboard-response","91","396445","0.0-6.0-1.12","2768847","co38056","norming","","","","","","",""
"3024.999999999942","","","post_mooney1_questions","survey-likert","92","399472","0.0-6.0-2.12","2768847","co38056","norming","","","{""curiosity"":5,""confidence"":2}","[0,1]","../img/tt/079tt.jpg","",""
"3401","","","recognition","survey-text","93","402879","0.0-6.0-3.12","2768847","co38056","norming","","","{""guess"":""Beer""}","","../img/tt/079tt.jpg","",""
"null","../img/gs/079gs.jpg","null","reveal","image-keyboard-response","94","404881","0.0-6.0-4.12","2768847","co38056","norming","","","","","","",""
"null","../img/tt/079tt.jpg","null","mooney2","image-keyboard-response","95","406883","0.0-6.0-5.12","2768847","co38056","norming","","","","","","",""
"2756","","","post_reveal_questions","survey-likert","96","409641","0.0-6.0-6.12","2768847","co38056","norming","","","{""aha"":1}","[0]","../img/tt/079tt.jpg","",""
"null","<div style=""font-size:60px;""> </div>","null","fixation","html-keyboard-response","97","409844","0.0-6.0-0.13","2768847","co38056","norming","","","","","","",""
"null","../img/tt/496tt.jpg","null","mooney1","image-keyboard-response","98","412846","0.0-6.0-1.13","2768847","co38056","norming","","","","","","",""
"5059","","","post_mooney1_questions","survey-likert","99","417908","0.0-6.0-2.13","2768847","co38056","norming","","","{""curiosity"":3,""confidence"":0}","[0,1]","../img/tt/496tt.jpg","",""
"2800","","","recognition","survey-text","100","420714","0.0-6.0-3.13","2768847","co38056","norming","","","{""guess"":""Beer""}","","../img/tt/496tt.jpg","",""
"null","../img/gs/496gs.jpg","null","reveal","image-keyboard-response","101","422716","0.0-6.0-4.13","2768847","co38056","norming","","","","","","",""
"null","../img/tt/496tt.jpg","null","mooney2","image-keyboard-response","102","424719","0.0-6.0-5.13","2768847","co38056","norming","","","","","","",""
"4091","","","post_reveal_questions","survey-likert","103","428811","0.0-6.0-6.13","2768847","co38056","norming","","","{""aha"":4}","[0]","../img/tt/496tt.jpg","",""
"null","<div style=""font-size:60px;""> </div>","null","fixation","html-keyboard-response","104","429013","0.0-6.0-0.14","2768847","co38056","norming","","","","","","",""
"null","../img/tt/1066tt.jpg","null","mooney1","image-keyboard-response","105","432016","0.0-6.0-1.14","2768847","co38056","norming","","","","","","",""
"5191","","","post_mooney1_questions","survey-likert","106","437209","0.0-6.0-2.14","2768847","co38056","norming","","","{""curiosity"":5,""confidence"":2}","[0,1]","../img/tt/1066tt.jpg","",""
"3744.999999999942","","","recognition","survey-text","107","440962","0.0-6.0-3.14","2768847","co38056","norming","","","{""guess"":""Vrachtwagen""}","","../img/tt/1066tt.jpg","",""
"null","../img/gs/1066gs.jpg","null","reveal","image-keyboard-response","108","442964","0.0-6.0-4.14","2768847","co38056","norming","","","","","","",""
"null","../img/tt/1066tt.jpg","null","mooney2","image-keyboard-response","109","444966","0.0-6.0-5.14","2768847","co38056","norming","","","","","","",""
"4007","","","post_reveal_questions","survey-likert","110","448974","0.0-6.0-6.14","2768847","co38056","norming","","","{""aha"":3}","[0]","../img/tt/1066tt.jpg","",""
"null","<div style=""font-size:60px;""> </div>","null","fixation","html-keyboard-response","111","449177","0.0-6.0-0.15","2768847","co38056","norming","","","","","","",""
"null","../img/tt/1235tt.jpg","null","mooney1","image-keyboard-response","112","452180","0.0-6.0-1.15","2768847","co38056","norming","","","","","","",""
"5134.999999999942","","","post_mooney1_questions","survey-likert","113","457316","0.0-6.0-2.15","2768847","co38056","norming","","","{""curiosity"":4,""confidence"":1}","[0,1]","../img/tt/1235tt.jpg","",""
"2137.999999999942","","","recognition","survey-text","114","459461","0.0-6.0-3.15","2768847","co38056","norming","","","{""guess"":""Vogel""}","","../img/tt/1235tt.jpg","",""
"null","../img/gs/1235gs.jpg","null","reveal","image-keyboard-response","115","461463","0.0-6.0-4.15","2768847","co38056","norming","","","","","","",""
"null","../img/tt/1235tt.jpg","null","mooney2","image-keyboard-response","116","463465","0.0-6.0-5.15","2768847","co38056","norming","","","","","","",""
"2702.999999999942","","","post_reveal_questions","survey-likert","117","466170","0.0-6.0-6.15","2768847","co38056","norming","","","{""aha"":1}","[0]","../img/tt/1235tt.jpg","",""
"null","<div style=""font-size:60px;""> </div>","null","fixation","html-keyboard-response","118","466373","0.0-6.0-0.16","2768847","co38056","norming","","","","","","",""
"null","../img/tt/380tt.jpg","null","mooney1","image-keyboard-response","119","469375","0.0-6.0-1.16","2768847","co38056","norming","","","","","","",""
"4359","","","post_mooney1_questions","survey-likert","120","473735","0.0-6.0-2.16","2768847","co38056","norming","","","{""curiosity"":5,""confidence"":2}","[0,1]","../img/tt/380tt.jpg","",""
"1598","","","recognition","survey-text","121","475340","0.0-6.0-3.16","2768847","co38056","norming","","","{""guess"":""Kat""}","","../img/tt/380tt.jpg","",""
"null","../img/gs/380gs.jpg","null","reveal","image-keyboard-response","122","477343","0.0-6.0-4.16","2768847","co38056","norming","","","","","","",""
"null","../img/tt/380tt.jpg","null","mooney2","image-keyboard-response","123","479345","0.0-6.0-5.16","2768847","co38056","norming","","","","","","",""
"3279","","","post_reveal_questions","survey-likert","124","482626","0.0-6.0-6.16","2768847","co38056","norming","","","{""aha"":5}","[0]","../img/tt/380tt.jpg","",""
"null","<div style=""font-size:60px;""> </div>","null","fixation","html-keyboard-response","125","482829","0.0-6.0-0.17","2768847","co38056","norming","","","","","","",""
"null","../img/tt/301tt.jpg","null","mooney1","image-keyboard-response","126","485832","0.0-6.0-1.17","2768847","co38056","norming","","","","","","",""
"11473","","","post_mooney1_questions","survey-likert","127","497307","0.0-6.0-2.17","2768847","co38056","norming","","","{""curiosity"":4,""confidence"":0}","[0,1]","../img/tt/301tt.jpg","",""
"2585.000000000058","","","recognition","survey-text","128","499900","0.0-6.0-3.17","2768847","co38056","norming","","","{""guess"":""Cinema""}","","../img/tt/301tt.jpg","",""
"null","../img/gs/301gs.jpg","null","reveal","image-keyboard-response","129","501902","0.0-6.0-4.17","2768847","co38056","norming","","","","","","",""
"null","../img/tt/301tt.jpg","null","mooney2","image-keyboard-response","130","503903","0.0-6.0-5.17","2768847","co38056","norming","","","","","","",""
"2238.9999999998836","","","post_reveal_questions","survey-likert","131","506144","0.0-6.0-6.17","2768847","co38056","norming","","","{""aha"":5}","[0]","../img/tt/301tt.jpg","",""
"null","<div style=""font-size:60px;""> </div>","null","fixation","html-keyboard-response","132","506347","0.0-6.0-0.18","2768847","co38056","norming","","","","","","",""
"null","../img/tt/1181tt.jpg","null","mooney1","image-keyboard-response","133","509349","0.0-6.0-1.18","2768847","co38056","norming","","","","","","",""
"5153","","","post_mooney1_questions","survey-likert","134","514504","0.0-6.0-2.18","2768847","co38056","norming","","","{""curiosity"":5,""confidence"":1}","[0,1]","../img/tt/1181tt.jpg","",""
"2507","","","recognition","survey-text","135","517018","0.0-6.0-3.18","2768847","co38056","norming","","","{""guess"":""Baseball""}","","../img/tt/1181tt.jpg","",""
"null","../img/gs/1181gs.jpg","null","reveal","image-keyboard-response","136","519020","0.0-6.0-4.18","2768847","co38056","norming","","","","","","",""
"null","../img/tt/1181tt.jpg","null","mooney2","image-keyboard-response","137","521022","0.0-6.0-5.18","2768847","co38056","norming","","","","","","",""
"2268","","","post_reveal_questions","survey-likert","138","523291","0.0-6.0-6.18","2768847","co38056","norming","","","{""aha"":5}","[0]","../img/tt/1181tt.jpg","",""
"null","<div style=""font-size:60px;""> </div>","null","fixation","html-keyboard-response","139","523494","0.0-6.0-0.19","2768847","co38056","norming","","","","","","",""
"null","../img/tt/440tt.jpg","null","mooney1","image-keyboard-response","140","526497","0.0-6.0-1.19","2768847","co38056","norming","","","","","","",""
"5799","","","post_mooney1_questions","survey-likert","141","532297","0.0-6.0-2.19","2768847","co38056","norming","","","{""curiosity"":5,""confidence"":1}","[0,1]","../img/tt/440tt.jpg","",""
"3135.0000000001164","","","recognition","survey-text","142","535439","0.0-6.0-3.19","2768847","co38056","norming","","","{""guess"":""Paardrijden""}","","../img/tt/440tt.jpg","",""
"null","../img/gs/440gs.jpg","null","reveal","image-keyboard-response","143","537441","0.0-6.0-4.19","2768847","co38056","norming","","","","","","",""
"null","../img/tt/440tt.jpg","null","mooney2","image-keyboard-response","144","539443","0.0-6.0-5.19","2768847","co38056","norming","","","","","","",""
"4053","","","post_reveal_questions","survey-likert","145","543498","0.0-6.0-6.19","2768847","co38056","norming","","","{""aha"":4}","[0]","../img/tt/440tt.jpg","",""
"null","<div style=""font-size:60px;""> </div>","null","fixation","html-keyboard-response","146","543701","0.0-6.0-0.20","2768847","co38056","norming","","","","","","",""
"null","../img/tt/315tt.jpg","null","mooney1","image-keyboard-response","147","546704","0.0-6.0-1.20","2768847","co38056","norming","","","","","","",""
"6705","","","post_mooney1_questions","survey-likert","148","553411","0.0-6.0-2.20","2768847","co38056","norming","","","{""curiosity"":4,""confidence"":0}","[0,1]","../img/tt/315tt.jpg","",""
"3736","","","recognition","survey-text","149","557154","0.0-6.0-3.20","2768847","co38056","norming","","","{""guess"":""""}","","../img/tt/315tt.jpg","",""
"null","../img/gs/315gs.jpg","null","reveal","image-keyboard-response","150","559156","0.0-6.0-4.20","2768847","co38056","norming","","","","","","",""
"null","../img/tt/315tt.jpg","null","mooney2","image-keyboard-response","151","561158","0.0-6.0-5.20","2768847","co38056","norming","","","","","","",""
"3589.9999999998836","","","post_reveal_questions","survey-likert","152","564750","0.0-6.0-6.20","2768847","co38056","norming","","","{""aha"":4}","[0]","../img/tt/315tt.jpg","",""
"null","<div style=""font-size:60px;""> </div>","null","fixation","html-keyboard-response","153","564953","0.0-6.0-0.21","2768847","co38056","norming","","","","","","",""
"null","../img/tt/1006tt.jpg","null","mooney1","image-keyboard-response","154","567955","0.0-6.0-1.21","2768847","co38056","norming","","","","","","",""
"5638","","","post_mooney1_questions","survey-likert","155","573596","0.0-6.0-2.21","2768847","co38056","norming","","","{""curiosity"":4,""confidence"":3}","[0,1]","../img/tt/1006tt.jpg","",""
"2443.0000000001164","","","recognition","survey-text","156","576045","0.0-6.0-3.21","2768847","co38056","norming","","","{""guess"":""Schaap""}","","../img/tt/1006tt.jpg","",""
"null","../img/gs/1006gs.jpg","null","reveal","image-keyboard-response","157","578047","0.0-6.0-4.21","2768847","co38056","norming","","","","","","",""
"null","../img/tt/1006tt.jpg","null","mooney2","image-keyboard-response","158","580048","0.0-6.0-5.21","2768847","co38056","norming","","","","","","",""
"2520.0000000001164","","","post_reveal_questions","survey-likert","159","582569","0.0-6.0-6.21","2768847","co38056","norming","","","{""aha"":1}","[0]","../img/tt/1006tt.jpg","",""
"null","<div style=""font-size:60px;""> </div>","null","fixation","html-keyboard-response","160","582773","0.0-6.0-0.22","2768847","co38056","norming","","","","","","",""
"null","../img/tt/1200tt.jpg","null","mooney1","image-keyboard-response","161","585775","0.0-6.0-1.22","2768847","co38056","norming","","","","","","",""
"8105","","","post_mooney1_questions","survey-likert","162","593882","0.0-6.0-2.22","2768847","co38056","norming","","","{""curiosity"":4,""confidence"":2}","[0,1]","../img/tt/1200tt.jpg","",""
"2241","","","recognition","survey-text","163","596130","0.0-6.0-3.22","2768847","co38056","norming","","","{""guess"":""Kajak""}","","../img/tt/1200tt.jpg","",""
"null","../img/gs/1200gs.jpg","null","reveal","image-keyboard-response","164","598132","0.0-6.0-4.22","2768847","co38056","norming","","","","","","",""
"null","../img/tt/1200tt.jpg","null","mooney2","image-keyboard-response","165","600135","0.0-6.0-5.22","2768847","co38056","norming","","","","","","",""
"3990","","","post_reveal_questions","survey-likert","166","604126","0.0-6.0-6.22","2768847","co38056","norming","","","{""aha"":1}","[0]","../img/tt/1200tt.jpg","",""
"null","<div style=""font-size:60px;""> </div>","null","fixation","html-keyboard-response","167","604330","0.0-6.0-0.23","2768847","co38056","norming","","","","","","",""
"null","../img/tt/559tt.jpg","null","mooney1","image-keyboard-response","168","607332","0.0-6.0-1.23","2768847","co38056","norming","","","","","","",""
"3461","","","post_mooney1_questions","survey-likert","169","610795","0.0-6.0-2.23","2768847","co38056","norming","","","{""curiosity"":5,""confidence"":0}","[0,1]","../img/tt/559tt.jpg","",""
"848","","","recognition","survey-text","170","611648","0.0-6.0-3.23","2768847","co38056","norming","","","{""guess"":""""}","","../img/tt/559tt.jpg","",""
"null","../img/gs/559gs.jpg","null","reveal","image-keyboard-response","171","613650","0.0-6.0-4.23","2768847","co38056","norming","","","","","","",""
"null","../img/tt/559tt.jpg","null","mooney2","image-keyboard-response","172","615653","0.0-6.0-5.23","2768847","co38056","norming","","","","","","",""
"2657","","","post_reveal_questions","survey-likert","173","618311","0.0-6.0-6.23","2768847","co38056","norming","","","{""aha"":5}","[0]","../img/tt/559tt.jpg","",""
"null","<div style=""font-size:60px;""> </div>","null","fixation","html-keyboard-response","174","618514","0.0-6.0-0.24","2768847","co38056","norming","","","","","","",""
"null","../img/tt/126tt.jpg","null","mooney1","image-keyboard-response","175","621517","0.0-6.0-1.24","2768847","co38056","norming","","","","","","",""
"4382","","","post_mooney1_questions","survey-likert","176","625901","0.0-6.0-2.24","2768847","co38056","norming","","","{""curiosity"":5,""confidence"":4}","[0,1]","../img/tt/126tt.jpg","",""
"1674","","","recognition","survey-text","177","627581","0.0-6.0-3.24","2768847","co38056","norming","","","{""guess"":""Koe""}","","../img/tt/126tt.jpg","",""
"null","../img/gs/126gs.jpg","null","reveal","image-keyboard-response","178","629583","0.0-6.0-4.24","2768847","co38056","norming","","","","","","",""
"null","../img/tt/126tt.jpg","null","mooney2","image-keyboard-response","179","631585","0.0-6.0-5.24","2768847","co38056","norming","","","","","","",""
"2614","","","post_reveal_questions","survey-likert","180","634201","0.0-6.0-6.24","2768847","co38056","norming","","","{""aha"":0}","[0]","../img/tt/126tt.jpg","",""
"null","<div style=""font-size:60px;""> </div>","null","fixation","html-keyboard-response","181","634404","0.0-6.0-0.25","2768847","co38056","norming","","","","","","",""
"null","../img/tt/096tt.jpg","null","mooney1","image-keyboard-response","182","637406","0.0-6.0-1.25","2768847","co38056","norming","","","","","","",""
"3362","","","post_mooney1_questions","survey-likert","183","640770","0.0-6.0-2.25","2768847","co38056","norming","","","{""curiosity"":5,""confidence"":0}","[0,1]","../img/tt/096tt.jpg","",""
"691","","","recognition","survey-text","184","641467","0.0-6.0-3.25","2768847","co38056","norming","","","{""guess"":""""}","","../img/tt/096tt.jpg","",""
"null","../img/gs/096gs.jpg","null","reveal","image-keyboard-response","185","643470","0.0-6.0-4.25","2768847","co38056","norming","","","","","","",""
"null","../img/tt/096tt.jpg","null","mooney2","image-keyboard-response","186","645472","0.0-6.0-5.25","2768847","co38056","norming","","","","","","",""
"1851","","","post_reveal_questions","survey-likert","187","647325","0.0-6.0-6.25","2768847","co38056","norming","","","{""aha"":5}","[0]","../img/tt/096tt.jpg","",""
"null","<div style=""font-size:60px;""> </div>","null","fixation","html-keyboard-response","188","647528","0.0-6.0-0.26","2768847","co38056","norming","","","","","","",""
"null","../img/tt/1148tt.jpg","null","mooney1","image-keyboard-response","189","650531","0.0-6.0-1.26","2768847","co38056","norming","","","","","","",""
"3881","","","post_mooney1_questions","survey-likert","190","654414","0.0-6.0-2.26","2768847","co38056","norming","","","{""curiosity"":3,""confidence"":0}","[0,1]","../img/tt/1148tt.jpg","",""
"625","","","recognition","survey-text","191","655047","0.0-6.0-3.26","2768847","co38056","norming","","","{""guess"":""""}","","../img/tt/1148tt.jpg","",""
"null","../img/gs/1148gs.jpg","null","reveal","image-keyboard-response","192","657050","0.0-6.0-4.26","2768847","co38056","norming","","","","","","",""
"null","../img/tt/1148tt.jpg","null","mooney2","image-keyboard-response","193","659052","0.0-6.0-5.26","2768847","co38056","norming","","","","","","",""
"2841","","","post_reveal_questions","survey-likert","194","661895","0.0-6.0-6.26","2768847","co38056","norming","","","{""aha"":4}","[0]","../img/tt/1148tt.jpg","",""
"null","<div style=""font-size:60px;""> </div>","null","fixation","html-keyboard-response","195","662099","0.0-6.0-0.27","2768847","co38056","norming","","","","","","",""
"null","../img/tt/184tt.jpg","null","mooney1","image-keyboard-response","196","665101","0.0-6.0-1.27","2768847","co38056","norming","","","","","","",""
"6643","","","post_mooney1_questions","survey-likert","197","671746","0.0-6.0-2.27","2768847","co38056","norming","","","{""curiosity"":4,""confidence"":1}","[0,1]","../img/tt/184tt.jpg","",""
"2227","","","recognition","survey-text","198","673980","0.0-6.0-3.27","2768847","co38056","norming","","","{""guess"":""Eten""}","","../img/tt/184tt.jpg","",""
"null","../img/gs/184gs.jpg","null","reveal","image-keyboard-response","199","675982","0.0-6.0-4.27","2768847","co38056","norming","","","","","","",""
"null","../img/tt/184tt.jpg","null","mooney2","image-keyboard-response","200","677984","0.0-6.0-5.27","2768847","co38056","norming","","","","","","",""
"3504.0000000001164","","","post_reveal_questions","survey-likert","201","681489","0.0-6.0-6.27","2768847","co38056","norming","","","{""aha"":1}","[0]","../img/tt/184tt.jpg","",""
"null","<div style=""font-size:60px;""> </div>","null","fixation","html-keyboard-response","202","681693","0.0-6.0-0.28","2768847","co38056","norming","","","","","","",""
"null","../img/tt/1151tt.jpg","null","mooney1","image-keyboard-response","203","684695","0.0-6.0-1.28","2768847","co38056","norming","","","","","","",""
"3232","","","post_mooney1_questions","survey-likert","204","687930","0.0-6.0-2.28","2768847","co38056","norming","","","{""curiosity"":5,""confidence"":0}","[0,1]","../img/tt/1151tt.jpg","",""
"601.9999999998836","","","recognition","survey-text","205","688538","0.0-6.0-3.28","2768847","co38056","norming","","","{""guess"":""""}","","../img/tt/1151tt.jpg","",""
"null","../img/gs/1151gs.jpg","null","reveal","image-keyboard-response","206","690540","0.0-6.0-4.28","2768847","co38056","norming","","","","","","",""
"null","../img/tt/1151tt.jpg","null","mooney2","image-keyboard-response","207","692543","0.0-6.0-5.28","2768847","co38056","norming","","","","","","",""
"3626","","","post_reveal_questions","survey-likert","208","696170","0.0-6.0-6.28","2768847","co38056","norming","","","{""aha"":4}","[0]","../img/tt/1151tt.jpg","",""
"null","<div style=""font-size:60px;""> </div>","null","fixation","html-keyboard-response","209","696373","0.0-6.0-0.29","2768847","co38056","norming","","","","","","",""
"null","../img/tt/1232tt.jpg","null","mooney1","image-keyboard-response","210","699376","0.0-6.0-1.29","2768847","co38056","norming","","","","","","",""
"5148","","","post_mooney1_questions","survey-likert","211","704526","0.0-6.0-2.29","2768847","co38056","norming","","","{""curiosity"":4,""confidence"":1}","[0,1]","../img/tt/1232tt.jpg","",""
"2289.0000000001164","","","recognition","survey-text","212","706822","0.0-6.0-3.29","2768847","co38056","norming","","","{""guess"":""Zwemmen""}","","../img/tt/1232tt.jpg","",""
"null","../img/gs/1232gs.jpg","null","reveal","image-keyboard-response","213","708824","0.0-6.0-4.29","2768847","co38056","norming","","","","","","",""
"null","../img/tt/1232tt.jpg","null","mooney2","image-keyboard-response","214","710826","0.0-6.0-5.29","2768847","co38056","norming","","","","","","",""
"2058","","","post_reveal_questions","survey-likert","215","712886","0.0-6.0-6.29","2768847","co38056","norming","","","{""aha"":6}","[0]","../img/tt/1232tt.jpg","",""
"null","<div style=""font-size:60px;""> </div>","null","fixation","html-keyboard-response","216","713088","0.0-6.0-0.30","2768847","co38056","norming","","","","","","",""
"null","../img/tt/1362tt.jpg","null","mooney1","image-keyboard-response","217","716091","0.0-6.0-1.30","2768847","co38056","norming","","","","","","",""
"8027.000000000116","","","post_mooney1_questions","survey-likert","218","724120","0.0-6.0-2.30","2768847","co38056","norming","","","{""curiosity"":4,""confidence"":0}","[0,1]","../img/tt/1362tt.jpg","",""
"781","","","recognition","survey-text","219","724907","0.0-6.0-3.30","2768847","co38056","norming","","","{""guess"":""""}","","../img/tt/1362tt.jpg","",""
"null","../img/gs/1362gs.jpg","null","reveal","image-keyboard-response","220","726910","0.0-6.0-4.30","2768847","co38056","norming","","","","","","",""
"null","../img/tt/1362tt.jpg","null","mooney2","image-keyboard-response","221","728911","0.0-6.0-5.30","2768847","co38056","norming","","","","","","",""
"1689","","","post_reveal_questions","survey-likert","222","730602","0.0-6.0-6.30","2768847","co38056","norming","","","{""aha"":5}","[0]","../img/tt/1362tt.jpg","",""
"null","<div style=""font-size:60px;""> </div>","null","fixation","html-keyboard-response","223","730805","0.0-6.0-0.31","2768847","co38056","norming","","","","","","",""
"null","../img/tt/436tt.jpg","null","mooney1","image-keyboard-response","224","733807","0.0-6.0-1.31","2768847","co38056","norming","","","","","","",""
"3234","","","post_mooney1_questions","survey-likert","225","737043","0.0-6.0-2.31","2768847","co38056","norming","","","{""curiosity"":3,""confidence"":0}","[0,1]","../img/tt/436tt.jpg","",""
"779","","","recognition","survey-text","226","737829","0.0-6.0-3.31","2768847","co38056","norming","","","{""guess"":""""}","","../img/tt/436tt.jpg","",""
"null","../img/gs/436gs.jpg","null","reveal","image-keyboard-response","227","739831","0.0-6.0-4.31","2768847","co38056","norming","","","","","","",""
"null","../img/tt/436tt.jpg","null","mooney2","image-keyboard-response","228","741833","0.0-6.0-5.31","2768847","co38056","norming","","","","","","",""
"2000","","","post_reveal_questions","survey-likert","229","743835","0.0-6.0-6.31","2768847","co38056","norming","","","{""aha"":3}","[0]","../img/tt/436tt.jpg","",""
"null","<div style=""font-size:60px;""> </div>","null","fixation","html-keyboard-response","230","744038","0.0-6.0-0.32","2768847","co38056","norming","","","","","","",""
"null","../img/tt/1130tt.jpg","null","mooney1","image-keyboard-response","231","747041","0.0-6.0-1.32","2768847","co38056","norming","","","","","","",""
"6129","","","post_mooney1_questions","survey-likert","232","753171","0.0-6.0-2.32","2768847","co38056","norming","","","{""curiosity"":5,""confidence"":1}","[0,1]","../img/tt/1130tt.jpg","",""
"2080","","","recognition","survey-text","233","755258","0.0-6.0-3.32","2768847","co38056","norming","","","{""guess"":""Tennis""}","","../img/tt/1130tt.jpg","",""
"null","../img/gs/1130gs.jpg","null","reveal","image-keyboard-response","234","757261","0.0-6.0-4.32","2768847","co38056","norming","","","","","","",""
"null","../img/tt/1130tt.jpg","null","mooney2","image-keyboard-response","235","759262","0.0-6.0-5.32","2768847","co38056","norming","","","","","","",""
"2586","","","post_reveal_questions","survey-likert","236","761850","0.0-6.0-6.32","2768847","co38056","norming","","","{""aha"":4}","[0]","../img/tt/1130tt.jpg","",""
"null","<div style=""font-size:60px;""> </div>","null","fixation","html-keyboard-response","237","762053","0.0-6.0-0.33","2768847","co38056","norming","","","","","","",""
"null","../img/tt/1290tt.jpg","null","mooney1","image-keyboard-response","238","765056","0.0-6.0-1.33","2768847","co38056","norming","","","","","","",""
"15837.000000000116","","","post_mooney1_questions","survey-likert","239","780896","0.0-6.0-2.33","2768847","co38056","norming","","","{""curiosity"":5,""confidence"":2}","[0,1]","../img/tt/1290tt.jpg","",""
"3379","","","recognition","survey-text","240","784282","0.0-6.0-3.33","2768847","co38056","norming","","","{""guess"":""Kabelbaan""}","","../img/tt/1290tt.jpg","",""
"null","../img/gs/1290gs.jpg","null","reveal","image-keyboard-response","241","786285","0.0-6.0-4.33","2768847","co38056","norming","","","","","","",""
"null","../img/tt/1290tt.jpg","null","mooney2","image-keyboard-response","242","788287","0.0-6.0-5.33","2768847","co38056","norming","","","","","","",""
"2404","","","post_reveal_questions","survey-likert","243","790693","0.0-6.0-6.33","2768847","co38056","norming","","","{""aha"":1}","[0]","../img/tt/1290tt.jpg","",""
"null","<div style=""font-size:60px;""> </div>","null","fixation","html-keyboard-response","244","790896","0.0-6.0-0.34","2768847","co38056","norming","","","","","","",""
"null","../img/tt/1175tt.jpg","null","mooney1","image-keyboard-response","245","793898","0.0-6.0-1.34","2768847","co38056","norming","","","","","","",""
"4220","","","post_mooney1_questions","survey-likert","246","798120","0.0-6.0-2.34","2768847","co38056","norming","","","{""curiosity"":5,""confidence"":1}","[0,1]","../img/tt/1175tt.jpg","",""
"4954","","","recognition","survey-text","247","803081","0.0-6.0-3.34","2768847","co38056","norming","","","{""guess"":""Sombrero""}","","../img/tt/1175tt.jpg","",""
"null","../img/gs/1175gs.jpg","null","reveal","image-keyboard-response","248","805083","0.0-6.0-4.34","2768847","co38056","norming","","","","","","",""
"null","../img/tt/1175tt.jpg","null","mooney2","image-keyboard-response","249","807085","0.0-6.0-5.34","2768847","co38056","norming","","","","","","",""
"3076","","","post_reveal_questions","survey-likert","250","810163","0.0-6.0-6.34","2768847","co38056","norming","","","{""aha"":5}","[0]","../img/tt/1175tt.jpg","",""
"null","<div style=""font-size:60px;""> </div>","null","fixation","html-keyboard-response","251","810366","0.0-6.0-0.35","2768847","co38056","norming","","","","","","",""
"null","../img/tt/435tt.jpg","null","mooney1","image-keyboard-response","252","813368","0.0-6.0-1.35","2768847","co38056","norming","","","","","","",""
"4068","","","post_mooney1_questions","survey-likert","253","817438","0.0-6.0-2.35","2768847","co38056","norming","","","{""curiosity"":5,""confidence"":2}","[0,1]","../img/tt/435tt.jpg","",""
"12230.000000000116","","","recognition","survey-text","254","829676","0.0-6.0-3.35","2768847","co38056","norming","","","{""guess"":""Snooker""}","","../img/tt/435tt.jpg","",""
"null","../img/gs/435gs.jpg","null","reveal","image-keyboard-response","255","831678","0.0-6.0-4.35","2768847","co38056","norming","","","","","","",""
"null","../img/tt/435tt.jpg","null","mooney2","image-keyboard-response","256","833680","0.0-6.0-5.35","2768847","co38056","norming","","","","","","",""
"7070","","","post_reveal_questions","survey-likert","257","840751","0.0-6.0-6.35","2768847","co38056","norming","","","{""aha"":1}","[0]","../img/tt/435tt.jpg","",""
"null","<div style=""font-size:60px;""> </div>","null","fixation","html-keyboard-response","258","840955","0.0-6.0-0.36","2768847","co38056","norming","","","","","","",""
"null","../img/tt/1091tt.jpg","null","mooney1","image-keyboard-response","259","843957","0.0-6.0-1.36","2768847","co38056","norming","","","","","","",""
"6599.999999999884","","","post_mooney1_questions","survey-likert","260","850559","0.0-6.0-2.36","2768847","co38056","norming","","","{""curiosity"":2,""confidence"":4}","[0,1]","../img/tt/1091tt.jpg","",""
"3642","","","recognition","survey-text","261","854208","0.0-6.0-3.36","2768847","co38056","norming","","","{""guess"":""Paard""}","","../img/tt/1091tt.jpg","",""
"null","../img/gs/1091gs.jpg","null","reveal","image-keyboard-response","262","856210","0.0-6.0-4.36","2768847","co38056","norming","","","","","","",""
"null","../img/tt/1091tt.jpg","null","mooney2","image-keyboard-response","263","858212","0.0-6.0-5.36","2768847","co38056","norming","","","","","","",""
"2992","","","post_reveal_questions","survey-likert","264","861205","0.0-6.0-6.36","2768847","co38056","norming","","","{""aha"":0}","[0]","../img/tt/1091tt.jpg","",""
"null","<div style=""font-size:60px;""> </div>","null","fixation","html-keyboard-response","265","861408","0.0-6.0-0.37","2768847","co38056","norming","","","","","","",""
"null","../img/tt/118tt.jpg","null","mooney1","image-keyboard-response","266","864411","0.0-6.0-1.37","2768847","co38056","norming","","","","","","",""
"4798","","","post_mooney1_questions","survey-likert","267","869210","0.0-6.0-2.37","2768847","co38056","norming","","","{""curiosity"":5,""confidence"":0}","[0,1]","../img/tt/118tt.jpg","",""
"723.0000000001164","","","recognition","survey-text","268","869940","0.0-6.0-3.37","2768847","co38056","norming","","","{""guess"":""""}","","../img/tt/118tt.jpg","",""
"null","../img/gs/118gs.jpg","null","reveal","image-keyboard-response","269","871942","0.0-6.0-4.37","2768847","co38056","norming","","","","","","",""
"null","../img/tt/118tt.jpg","null","mooney2","image-keyboard-response","270","873945","0.0-6.0-5.37","2768847","co38056","norming","","","","","","",""
"1591","","","post_reveal_questions","survey-likert","271","875538","0.0-6.0-6.37","2768847","co38056","norming","","","{""aha"":5}","[0]","../img/tt/118tt.jpg","",""
"null","<div style=""font-size:60px;""> </div>","null","fixation","html-keyboard-response","272","875741","0.0-6.0-0.38","2768847","co38056","norming","","","","","","",""
"null","../img/tt/1226tt.jpg","null","mooney1","image-keyboard-response","273","878743","0.0-6.0-1.38","2768847","co38056","norming","","","","","","",""
"5365","","","post_mooney1_questions","survey-likert","274","884111","0.0-6.0-2.38","2768847","co38056","norming","","","{""curiosity"":5,""confidence"":2}","[0,1]","../img/tt/1226tt.jpg","",""
"2080","","","recognition","survey-text","275","886198","0.0-6.0-3.38","2768847","co38056","norming","","","{""guess"":""Eend""}","","../img/tt/1226tt.jpg","",""
"null","../img/gs/1226gs.jpg","null","reveal","image-keyboard-response","276","888200","0.0-6.0-4.38","2768847","co38056","norming","","","","","","",""
"null","../img/tt/1226tt.jpg","null","mooney2","image-keyboard-response","277","890202","0.0-6.0-5.38","2768847","co38056","norming","","","","","","",""
"1281","","","post_reveal_questions","survey-likert","278","891484","0.0-6.0-6.38","2768847","co38056","norming","","","{""aha"":5}","[0]","../img/tt/1226tt.jpg","",""
"null","<div style=""font-size:60px;""> </div>","null","fixation","html-keyboard-response","279","891688","0.0-6.0-0.39","2768847","co38056","norming","","","","","","",""
"null","../img/tt/1118tt.jpg","null","mooney1","image-keyboard-response","280","894690","0.0-6.0-1.39","2768847","co38056","norming","","","","","","",""
"6724","","","post_mooney1_questions","survey-likert","281","901416","0.0-6.0-2.39","2768847","co38056","norming","","","{""curiosity"":4,""confidence"":1}","[0,1]","../img/tt/1118tt.jpg","",""
"2298","","","recognition","survey-text","282","903721","0.0-6.0-3.39","2768847","co38056","norming","","","{""guess"":""Dier""}","","../img/tt/1118tt.jpg","",""
"null","../img/gs/1118gs.jpg","null","reveal","image-keyboard-response","283","905723","0.0-6.0-4.39","2768847","co38056","norming","","","","","","",""
"null","../img/tt/1118tt.jpg","null","mooney2","image-keyboard-response","284","907725","0.0-6.0-5.39","2768847","co38056","norming","","","","","","",""
"2584.0000000001164","","","post_reveal_questions","survey-likert","285","910311","0.0-6.0-6.39","2768847","co38056","norming","","","{""aha"":4}","[0]","../img/tt/1118tt.jpg","",""
"null","<div style=""font-size:60px;""> </div>","null","fixation","html-keyboard-response","286","910514","0.0-6.0-0.40","2768847","co38056","norming","","","","","","",""
"null","../img/tt/1127tt.jpg","null","mooney1","image-keyboard-response","287","913517","0.0-6.0-1.40","2768847","co38056","norming","","","","","","",""
"5928.999999999884","","","post_mooney1_questions","survey-likert","288","919448","0.0-6.0-2.40","2768847","co38056","norming","","","{""curiosity"":5,""confidence"":0}","[0,1]","../img/tt/1127tt.jpg","",""
"1261.0000000001164","","","recognition","survey-text","289","920716","0.0-6.0-3.40","2768847","co38056","norming","","","{""guess"":""""}","","../img/tt/1127tt.jpg","",""
"null","../img/gs/1127gs.jpg","null","reveal","image-keyboard-response","290","922718","0.0-6.0-4.40","2768847","co38056","norming","","","","","","",""
"null","../img/tt/1127tt.jpg","null","mooney2","image-keyboard-response","291","924719","0.0-6.0-5.40","2768847","co38056","norming","","","","","","",""
"2337.9999999998836","","","post_reveal_questions","survey-likert","292","927059","0.0-6.0-6.40","2768847","co38056","norming","","","{""aha"":4}","[0]","../img/tt/1127tt.jpg","",""
"null","<div style=""font-size:60px;""> </div>","null","fixation","html-keyboard-response","293","927262","0.0-6.0-0.41","2768847","co38056","norming","","","","","","",""
"null","../img/tt/468tt.jpg","null","mooney1","image-keyboard-response","294","930264","0.0-6.0-1.41","2768847","co38056","norming","","","","","","",""
"4127.000000000116","","","post_mooney1_questions","survey-likert","295","934394","0.0-6.0-2.41","2768847","co38056","norming","","","{""curiosity"":5,""confidence"":2}","[0,1]","../img/tt/468tt.jpg","",""
"2113.0000000001164","","","recognition","survey-text","296","936513","0.0-6.0-3.41","2768847","co38056","norming","","","{""guess"":""Viool""}","","../img/tt/468tt.jpg","",""
"null","../img/gs/468gs.jpg","null","reveal","image-keyboard-response","297","938516","0.0-6.0-4.41","2768847","co38056","norming","","","","","","",""
"null","../img/tt/468tt.jpg","null","mooney2","image-keyboard-response","298","940518","0.0-6.0-5.41","2768847","co38056","norming","","","","","","",""
"2234.9999999998836","","","post_reveal_questions","survey-likert","299","942753","0.0-6.0-6.41","2768847","co38056","norming","","","{""aha"":1}","[0]","../img/tt/468tt.jpg","",""
"null","<div style=""font-size:60px;""> </div>","null","fixation","html-keyboard-response","300","942957","0.0-6.0-0.42","2768847","co38056","norming","","","","","","",""
"null","../img/tt/1033tt.jpg","null","mooney1","image-keyboard-response","301","945960","0.0-6.0-1.42","2768847","co38056","norming","","","","","","",""
"4226.999999999884","","","post_mooney1_questions","survey-likert","302","950188","0.0-6.0-2.42","2768847","co38056","norming","","","{""curiosity"":5,""confidence"":1}","[0,1]","../img/tt/1033tt.jpg","",""
"2484","","","recognition","survey-text","303","952679","0.0-6.0-3.42","2768847","co38056","norming","","","{""guess"":""Sport""}","","../img/tt/1033tt.jpg","",""
"null","../img/gs/1033gs.jpg","null","reveal","image-keyboard-response","304","954681","0.0-6.0-4.42","2768847","co38056","norming","","","","","","",""
"null","../img/tt/1033tt.jpg","null","mooney2","image-keyboard-response","305","956683","0.0-6.0-5.42","2768847","co38056","norming","","","","","","",""
"1763.0000000001164","","","post_reveal_questions","survey-likert","306","958447","0.0-6.0-6.42","2768847","co38056","norming","","","{""aha"":5}","[0]","../img/tt/1033tt.jpg","",""
"null","<div style=""font-size:60px;""> </div>","null","fixation","html-keyboard-response","307","958650","0.0-6.0-0.43","2768847","co38056","norming","","","","","","",""
"null","../img/tt/007tt.jpg","null","mooney1","image-keyboard-response","308","961653","0.0-6.0-1.43","2768847","co38056","norming","","","","","","",""
"3969","","","post_mooney1_questions","survey-likert","309","965625","0.0-6.0-2.43","2768847","co38056","norming","","","{""curiosity"":6,""confidence"":0}","[0,1]","../img/tt/007tt.jpg","",""
"1398","","","recognition","survey-text","310","967029","0.0-6.0-3.43","2768847","co38056","norming","","","{""guess"":""""}","","../img/tt/007tt.jpg","",""
"null","../img/gs/007gs.jpg","null","reveal","image-keyboard-response","311","969031","0.0-6.0-4.43","2768847","co38056","norming","","","","","","",""
"null","../img/tt/007tt.jpg","null","mooney2","image-keyboard-response","312","971033","0.0-6.0-5.43","2768847","co38056","norming","","","","","","",""
"1519.0000000001164","","","post_reveal_questions","survey-likert","313","972553","0.0-6.0-6.43","2768847","co38056","norming","","","{""aha"":1}","[0]","../img/tt/007tt.jpg","",""
"null","<div style=""font-size:60px;""> </div>","null","fixation","html-keyboard-response","314","972757","0.0-6.0-0.44","2768847","co38056","norming","","","","","","",""
"null","../img/tt/1040tt.jpg","null","mooney1","image-keyboard-response","315","975759","0.0-6.0-1.44","2768847","co38056","norming","","","","","","",""
"5576.000000000116","","","post_mooney1_questions","survey-likert","316","981337","0.0-6.0-2.44","2768847","co38056","norming","","","{""curiosity"":3,""confidence"":1}","[0,1]","../img/tt/1040tt.jpg","",""
"4847","","","recognition","survey-text","317","986191","0.0-6.0-3.44","2768847","co38056","norming","","","{""guess"":""Olifant""}","","../img/tt/1040tt.jpg","",""
"null","../img/gs/1040gs.jpg","null","reveal","image-keyboard-response","318","988193","0.0-6.0-4.44","2768847","co38056","norming","","","","","","",""
"null","../img/tt/1040tt.jpg","null","mooney2","image-keyboard-response","319","990196","0.0-6.0-5.44","2768847","co38056","norming","","","","","","",""
"1694","","","post_reveal_questions","survey-likert","320","991891","0.0-6.0-6.44","2768847","co38056","norming","","","{""aha"":6}","[0]","../img/tt/1040tt.jpg","",""
"null","<div style=""font-size:60px;""> </div>","null","fixation","html-keyboard-response","321","992094","0.0-6.0-0.45","2768847","co38056","norming","","","","","","",""
"null","../img/tt/1269tt.jpg","null","mooney1","image-keyboard-response","322","995097","0.0-6.0-1.45","2768847","co38056","norming","","","","","","",""
"2759","","","post_mooney1_questions","survey-likert","323","997858","0.0-6.0-2.45","2768847","co38056","norming","","","{""curiosity"":5,""confidence"":1}","[0,1]","../img/tt/1269tt.jpg","",""
"1535","","","recognition","survey-text","324","999399","0.0-6.0-3.45","2768847","co38056","norming","","","{""guess"":""Vos""}","","../img/tt/1269tt.jpg","",""
"null","../img/gs/1269gs.jpg","null","reveal","image-keyboard-response","325","1001401","0.0-6.0-4.45","2768847","co38056","norming","","","","","","",""
"null","../img/tt/1269tt.jpg","null","mooney2","image-keyboard-response","326","1003403","0.0-6.0-5.45","2768847","co38056","norming","","","","","","",""
"2303","","","post_reveal_questions","survey-likert","327","1005708","0.0-6.0-6.45","2768847","co38056","norming","","","{""aha"":5}","[0]","../img/tt/1269tt.jpg","",""
"null","<div style=""font-size:60px;""> </div>","null","fixation","html-keyboard-response","328","1005911","0.0-6.0-0.46","2768847","co38056","norming","","","","","","",""
"null","../img/tt/549tt.jpg","null","mooney1","image-keyboard-response","329","1008914","0.0-6.0-1.46","2768847","co38056","norming","","","","","","",""
"3565.0000000001164","","","post_mooney1_questions","survey-likert","330","1012481","0.0-6.0-2.46","2768847","co38056","norming","","","{""curiosity"":3,""confidence"":0}","[0,1]","../img/tt/549tt.jpg","",""
"1125","","","recognition","survey-text","331","1013613","0.0-6.0-3.46","2768847","co38056","norming","","","{""guess"":""""}","","../img/tt/549tt.jpg","",""
"null","../img/gs/549gs.jpg","null","reveal","image-keyboard-response","332","1015615","0.0-6.0-4.46","2768847","co38056","norming","","","","","","",""
"null","../img/tt/549tt.jpg","null","mooney2","image-keyboard-response","333","1017617","0.0-6.0-5.46","2768847","co38056","norming","","","","","","",""
"2591.0000000001164","","","post_reveal_questions","survey-likert","334","1020210","0.0-6.0-6.46","2768847","co38056","norming","","","{""aha"":2}","[0]","../img/tt/549tt.jpg","",""
"null","<div style=""font-size:60px;""> </div>","null","fixation","html-keyboard-response","335","1020413","0.0-6.0-0.47","2768847","co38056","norming","","","","","","",""
"null","../img/tt/1126tt.jpg","null","mooney1","image-keyboard-response","336","1023416","0.0-6.0-1.47","2768847","co38056","norming","","","","","","",""
"4223.999999999884","","","post_mooney1_questions","survey-likert","337","1027642","0.0-6.0-2.47","2768847","co38056","norming","","","{""curiosity"":4,""confidence"":3}","[0,1]","../img/tt/1126tt.jpg","",""
"2425.9999999998836","","","recognition","survey-text","338","1030074","0.0-6.0-3.47","2768847","co38056","norming","","","{""guess"":""Klimmen""}","","../img/tt/1126tt.jpg","",""
"null","../img/gs/1126gs.jpg","null","reveal","image-keyboard-response","339","1032077","0.0-6.0-4.47","2768847","co38056","norming","","","","","","",""
"null","../img/tt/1126tt.jpg","null","mooney2","image-keyboard-response","340","1034078","0.0-6.0-5.47","2768847","co38056","norming","","","","","","",""
"1227.0000000002328","","","post_reveal_questions","survey-likert","341","1035307","0.0-6.0-6.47","2768847","co38056","norming","","","{""aha"":0}","[0]","../img/tt/1126tt.jpg","",""
"null","<div style=""font-size:60px;""> </div>","null","fixation","html-keyboard-response","342","1035510","0.0-6.0-0.48","2768847","co38056","norming","","","","","","",""
"null","../img/tt/1279tt.jpg","null","mooney1","image-keyboard-response","343","1038513","0.0-6.0-1.48","2768847","co38056","norming","","","","","","",""
"3793","","","post_mooney1_questions","survey-likert","344","1042308","0.0-6.0-2.48","2768847","co38056","norming","","","{""curiosity"":5,""confidence"":0}","[0,1]","../img/tt/1279tt.jpg","",""
"964","","","recognition","survey-text","345","1043279","0.0-6.0-3.48","2768847","co38056","norming","","","{""guess"":""""}","","../img/tt/1279tt.jpg","",""
"null","../img/gs/1279gs.jpg","null","reveal","image-keyboard-response","346","1045281","0.0-6.0-4.48","2768847","co38056","norming","","","","","","",""
"null","../img/tt/1279tt.jpg","null","mooney2","image-keyboard-response","347","1047283","0.0-6.0-5.48","2768847","co38056","norming","","","","","","",""
"2576","","","post_reveal_questions","survey-likert","348","1049861","0.0-6.0-6.48","2768847","co38056","norming","","","{""aha"":4}","[0]","../img/tt/1279tt.jpg","",""
"null","<div style=""font-size:60px;""> </div>","null","fixation","html-keyboard-response","349","1050065","0.0-6.0-0.49","2768847","co38056","norming","","","","","","",""
"null","../img/tt/055tt.jpg","null","mooney1","image-keyboard-response","350","1053067","0.0-6.0-1.49","2768847","co38056","norming","","","","","","",""
"3887","","","post_mooney1_questions","survey-likert","351","1056955","0.0-6.0-2.49","2768847","co38056","norming","","","{""curiosity"":5,""confidence"":0}","[0,1]","../img/tt/055tt.jpg","",""
"771","","","recognition","survey-text","352","1057734","0.0-6.0-3.49","2768847","co38056","norming","","","{""guess"":""""}","","../img/tt/055tt.jpg","",""
"null","../img/gs/055gs.jpg","null","reveal","image-keyboard-response","353","1059736","0.0-6.0-4.49","2768847","co38056","norming","","","","","","",""
"null","../img/tt/055tt.jpg","null","mooney2","image-keyboard-response","354","1061738","0.0-6.0-5.49","2768847","co38056","norming","","","","","","",""
"1909","","","post_reveal_questions","survey-likert","355","1063648","0.0-6.0-6.49","2768847","co38056","norming","","","{""aha"":5}","[0]","../img/tt/055tt.jpg","",""
"null","<div style=""font-size:60px;""> </div>","null","fixation","html-keyboard-response","356","1063852","0.0-6.0-0.50","2768847","co38056","norming","","","","","","",""
"null","../img/tt/1173tt.jpg","null","mooney1","image-keyboard-response","357","1066853","0.0-6.0-1.50","2768847","co38056","norming","","","","","","",""
"4995","","","post_mooney1_questions","survey-likert","358","1071850","0.0-6.0-2.50","2768847","co38056","norming","","","{""curiosity"":4,""confidence"":4}","[0,1]","../img/tt/1173tt.jpg","",""
"2652","","","recognition","survey-text","359","1074508","0.0-6.0-3.50","2768847","co38056","norming","","","{""guess"":""Hockey""}","","../img/tt/1173tt.jpg","",""
"null","../img/gs/1173gs.jpg","null","reveal","image-keyboard-response","360","1076511","0.0-6.0-4.50","2768847","co38056","norming","","","","","","",""
"null","../img/tt/1173tt.jpg","null","mooney2","image-keyboard-response","361","1078513","0.0-6.0-5.50","2768847","co38056","norming","","","","","","",""
"2304","","","post_reveal_questions","survey-likert","362","1080819","0.0-6.0-6.50","2768847","co38056","norming","","","{""aha"":5}","[0]","../img/tt/1173tt.jpg","",""
"null","<div style=""font-size:60px;""> </div>","null","fixation","html-keyboard-response","363","1081022","0.0-6.0-0.51","2768847","co38056","norming","","","","","","",""
"null","../img/tt/1002tt.jpg","null","mooney1","image-keyboard-response","364","1084025","0.0-6.0-1.51","2768847","co38056","norming","","","","","","",""
"2926","","","post_mooney1_questions","survey-likert","365","1086953","0.0-6.0-2.51","2768847","co38056","norming","","","{""curiosity"":5,""confidence"":1}","[0,1]","../img/tt/1002tt.jpg","",""
"2144","","","recognition","survey-text","366","1089104","0.0-6.0-3.51","2768847","co38056","norming","","","{""guess"":""Dier""}","","../img/tt/1002tt.jpg","",""
"null","../img/gs/1002gs.jpg","null","reveal","image-keyboard-response","367","1091105","0.0-6.0-4.51","2768847","co38056","norming","","","","","","",""
"null","../img/tt/1002tt.jpg","null","mooney2","image-keyboard-response","368","1093106","0.0-6.0-5.51","2768847","co38056","norming","","","","","","",""
"1638","","","post_reveal_questions","survey-likert","369","1094746","0.0-6.0-6.51","2768847","co38056","norming","","","{""aha"":5}","[0]","../img/tt/1002tt.jpg","",""
"null","<div style=""font-size:60px;""> </div>","null","fixation","html-keyboard-response","370","1094949","0.0-6.0-0.52","2768847","co38056","norming","","","","","","",""
"null","../img/tt/1161tt.jpg","null","mooney1","image-keyboard-response","371","1097951","0.0-6.0-1.52","2768847","co38056","norming","","","","","","",""
"5759.000000000233","","","post_mooney1_questions","survey-likert","372","1103712","0.0-6.0-2.52","2768847","co38056","norming","","","{""curiosity"":6,""confidence"":1}","[0,1]","../img/tt/1161tt.jpg","",""
"4304","","","recognition","survey-text","373","1108023","0.0-6.0-3.52","2768847","co38056","norming","","","{""guess"":""Hiking""}","","../img/tt/1161tt.jpg","",""
"null","../img/gs/1161gs.jpg","null","reveal","image-keyboard-response","374","1110026","0.0-6.0-4.52","2768847","co38056","norming","","","","","","",""
"null","../img/tt/1161tt.jpg","null","mooney2","image-keyboard-response","375","1112028","0.0-6.0-5.52","2768847","co38056","norming","","","","","","",""
"2284.999999999767","","","post_reveal_questions","survey-likert","376","1114314","0.0-6.0-6.52","2768847","co38056","norming","","","{""aha"":5}","[0]","../img/tt/1161tt.jpg","",""
"null","<div style=""font-size:60px;""> </div>","null","fixation","html-keyboard-response","377","1114517","0.0-6.0-0.53","2768847","co38056","norming","","","","","","",""
"null","../img/tt/412tt.jpg","null","mooney1","image-keyboard-response","378","1117520","0.0-6.0-1.53","2768847","co38056","norming","","","","","","",""
"2976","","","post_mooney1_questions","survey-likert","379","1120498","0.0-6.0-2.53","2768847","co38056","norming","","","{""curiosity"":5,""confidence"":0}","[0,1]","../img/tt/412tt.jpg","",""
"748","","","recognition","survey-text","380","1121252","0.0-6.0-3.53","2768847","co38056","norming","","","{""guess"":""""}","","../img/tt/412tt.jpg","",""
"null","../img/gs/412gs.jpg","null","reveal","image-keyboard-response","381","1123255","0.0-6.0-4.53","2768847","co38056","norming","","","","","","",""
"null","../img/tt/412tt.jpg","null","mooney2","image-keyboard-response","382","1125256","0.0-6.0-5.53","2768847","co38056","norming","","","","","","",""
"5427","","","post_reveal_questions","survey-likert","383","1130684","0.0-6.0-6.53","2768847","co38056","norming","","","{""aha"":1}","[0]","../img/tt/412tt.jpg","",""
"null","<div style=""font-size:60px;""> </div>","null","fixation","html-keyboard-response","384","1130887","0.0-6.0-0.54","2768847","co38056","norming","","","","","","",""
"null","../img/tt/1251tt.jpg","null","mooney1","image-keyboard-response","385","1133889","0.0-6.0-1.54","2768847","co38056","norming","","","","","","",""
"2530","","","post_mooney1_questions","survey-likert","386","1136421","0.0-6.0-2.54","2768847","co38056","norming","","","{""curiosity"":5,""confidence"":2}","[0,1]","../img/tt/1251tt.jpg","",""
"1639","","","recognition","survey-text","387","1138067","0.0-6.0-3.54","2768847","co38056","norming","","","{""guess"":""beer""}","","../img/tt/1251tt.jpg","",""
"null","../img/gs/1251gs.jpg","null","reveal","image-keyboard-response","388","1140070","0.0-6.0-4.54","2768847","co38056","norming","","","","","","",""
"null","../img/tt/1251tt.jpg","null","mooney2","image-keyboard-response","389","1142072","0.0-6.0-5.54","2768847","co38056","norming","","","","","","",""
"2953","","","post_reveal_questions","survey-likert","390","1145026","0.0-6.0-6.54","2768847","co38056","norming","","","{""aha"":0}","[0]","../img/tt/1251tt.jpg","",""
"null","<div style=""font-size:60px;""> </div>","null","fixation","html-keyboard-response","391","1145230","0.0-6.0-0.55","2768847","co38056","norming","","","","","","",""
"null","../img/tt/078tt.jpg","null","mooney1","image-keyboard-response","392","1148232","0.0-6.0-1.55","2768847","co38056","norming","","","","","","",""
"3984","","","post_mooney1_questions","survey-likert","393","1152218","0.0-6.0-2.55","2768847","co38056","norming","","","{""curiosity"":6,""confidence"":3}","[0,1]","../img/tt/078tt.jpg","",""
"4978.000000000233","","","recognition","survey-text","394","1157203","0.0-6.0-3.55","2768847","co38056","norming","","","{""guess"":""Druiven""}","","../img/tt/078tt.jpg","",""
"null","../img/gs/078gs.jpg","null","reveal","image-keyboard-response","395","1159205","0.0-6.0-4.55","2768847","co38056","norming","","","","","","",""
"null","../img/tt/078tt.jpg","null","mooney2","image-keyboard-response","396","1161206","0.0-6.0-5.55","2768847","co38056","norming","","","","","","",""
"1260","","","post_reveal_questions","survey-likert","397","1162468","0.0-6.0-6.55","2768847","co38056","norming","","","{""aha"":0}","[0]","../img/tt/078tt.jpg","",""
"null","<div style=""font-size:60px;""> </div>","null","fixation","html-keyboard-response","398","1162670","0.0-6.0-0.56","2768847","co38056","norming","","","","","","",""
"null","../img/tt/1069tt.jpg","null","mooney1","image-keyboard-response","399","1165672","0.0-6.0-1.56","2768847","co38056","norming","","","","","","",""
"5212","","","post_mooney1_questions","survey-likert","400","1170887","0.0-6.0-2.56","2768847","co38056","norming","","","{""curiosity"":3,""confidence"":2}","[0,1]","../img/tt/1069tt.jpg","",""
"3026","","","recognition","survey-text","401","1173920","0.0-6.0-3.56","2768847","co38056","norming","","","{""guess"":""Geit""}","","../img/tt/1069tt.jpg","",""
"null","../img/gs/1069gs.jpg","null","reveal","image-keyboard-response","402","1175922","0.0-6.0-4.56","2768847","co38056","norming","","","","","","",""
"null","../img/tt/1069tt.jpg","null","mooney2","image-keyboard-response","403","1177923","0.0-6.0-5.56","2768847","co38056","norming","","","","","","",""
"1606.9999999997672","","","post_reveal_questions","survey-likert","404","1179531","0.0-6.0-6.56","2768847","co38056","norming","","","{""aha"":0}","[0]","../img/tt/1069tt.jpg","",""
"null","<div style=""font-size:60px;""> </div>","null","fixation","html-keyboard-response","405","1179735","0.0-6.0-0.57","2768847","co38056","norming","","","","","","",""
"null","../img/tt/052tt.jpg","null","mooney1","image-keyboard-response","406","1182737","0.0-6.0-1.57","2768847","co38056","norming","","","","","","",""
"5867","","","post_mooney1_questions","survey-likert","407","1188606","0.0-6.0-2.57","2768847","co38056","norming","","","{""curiosity"":4,""confidence"":2}","[0,1]","../img/tt/052tt.jpg","",""
"2893","","","recognition","survey-text","408","1191506","0.0-6.0-3.57","2768847","co38056","norming","","","{""guess"":""Trommel""}","","../img/tt/052tt.jpg","",""
"null","../img/gs/052gs.jpg","null","reveal","image-keyboard-response","409","1193508","0.0-6.0-4.57","2768847","co38056","norming","","","","","","",""
"null","../img/tt/052tt.jpg","null","mooney2","image-keyboard-response","410","1195510","0.0-6.0-5.57","2768847","co38056","norming","","","","","","",""
"1738","","","post_reveal_questions","survey-likert","411","1197249","0.0-6.0-6.57","2768847","co38056","norming","","","{""aha"":5}","[0]","../img/tt/052tt.jpg","",""
"null","<div style=""font-size:60px;""> </div>","null","fixation","html-keyboard-response","412","1197452","0.0-6.0-0.58","2768847","co38056","norming","","","","","","",""
"null","../img/tt/105tt.jpg","null","mooney1","image-keyboard-response","413","1200454","0.0-6.0-1.58","2768847","co38056","norming","","","","","","",""
"3115","","","post_mooney1_questions","survey-likert","414","1203571","0.0-6.0-2.58","2768847","co38056","norming","","","{""curiosity"":6,""confidence"":1}","[0,1]","../img/tt/105tt.jpg","",""
"3689","","","recognition","survey-text","415","1207267","0.0-6.0-3.58","2768847","co38056","norming","","","{""guess"":""Paperclips""}","","../img/tt/105tt.jpg","",""
"null","../img/gs/105gs.jpg","null","reveal","image-keyboard-response","416","1209269","0.0-6.0-4.58","2768847","co38056","norming","","","","","","",""
"null","../img/tt/105tt.jpg","null","mooney2","image-keyboard-response","417","1211271","0.0-6.0-5.58","2768847","co38056","norming","","","","","","",""
"3933","","","post_reveal_questions","survey-likert","418","1215205","0.0-6.0-6.58","2768847","co38056","norming","","","{""aha"":5}","[0]","../img/tt/105tt.jpg","",""
"null","<div style=""font-size:60px;""> </div>","null","fixation","html-keyboard-response","419","1215409","0.0-6.0-0.59","2768847","co38056","norming","","","","","","",""
"null","../img/tt/1353tt.jpg","null","mooney1","image-keyboard-response","420","1218411","0.0-6.0-1.59","2768847","co38056","norming","","","","","","",""
"4175","","","post_mooney1_questions","survey-likert","421","1222588","0.0-6.0-2.59","2768847","co38056","norming","","","{""curiosity"":5,""confidence"":0}","[0,1]","../img/tt/1353tt.jpg","",""
"917","","","recognition","survey-text","422","1223512","0.0-6.0-3.59","2768847","co38056","norming","","","{""guess"":""""}","","../img/tt/1353tt.jpg","",""
"null","../img/gs/1353gs.jpg","null","reveal","image-keyboard-response","423","1225514","0.0-6.0-4.59","2768847","co38056","norming","","","","","","",""
"null","../img/tt/1353tt.jpg","null","mooney2","image-keyboard-response","424","1227516","0.0-6.0-5.59","2768847","co38056","norming","","","","","","",""
"1383","","","post_reveal_questions","survey-likert","425","1228901","0.0-6.0-6.59","2768847","co38056","norming","","","{""aha"":0}","[0]","../img/tt/1353tt.jpg","",""
"null","<div style=""font-size:60px;""> </div>","null","fixation","html-keyboard-response","426","1229104","0.0-6.0-0.60","2768847","co38056","norming","","","","","","",""
"null","../img/tt/580tt.jpg","null","mooney1","image-keyboard-response","427","1232107","0.0-6.0-1.60","2768847","co38056","norming","","","","","","",""
"4491.999999999767","","","post_mooney1_questions","survey-likert","428","1236601","0.0-6.0-2.60","2768847","co38056","norming","","","{""curiosity"":5,""confidence"":1}","[0,1]","../img/tt/580tt.jpg","",""
"2248","","","recognition","survey-text","429","1238856","0.0-6.0-3.60","2768847","co38056","norming","","","{""guess"":""Fruit""}","","../img/tt/580tt.jpg","",""
"null","../img/gs/580gs.jpg","null","reveal","image-keyboard-response","430","1240858","0.0-6.0-4.60","2768847","co38056","norming","","","","","","",""
"null","../img/tt/580tt.jpg","null","mooney2","image-keyboard-response","431","1242860","0.0-6.0-5.60","2768847","co38056","norming","","","","","","",""
"1464","","","post_reveal_questions","survey-likert","432","1244325","0.0-6.0-6.60","2768847","co38056","norming","","","{""aha"":6}","[0]","../img/tt/580tt.jpg","",""
"null","<div style=""font-size:60px;""> </div>","null","fixation","html-keyboard-response","433","1244528","0.0-6.0-0.61","2768847","co38056","norming","","","","","","",""
"null","../img/tt/085tt.jpg","null","mooney1","image-keyboard-response","434","1247531","0.0-6.0-1.61","2768847","co38056","norming","","","","","","",""
"3740","","","post_mooney1_questions","survey-likert","435","1251273","0.0-6.0-2.61","2768847","co38056","norming","","","{""curiosity"":5,""confidence"":1}","[0,1]","../img/tt/085tt.jpg","",""
"2521","","","recognition","survey-text","436","1253800","0.0-6.0-3.61","2768847","co38056","norming","","","{""guess"":""Dier""}","","../img/tt/085tt.jpg","",""
"null","../img/gs/085gs.jpg","null","reveal","image-keyboard-response","437","1255803","0.0-6.0-4.61","2768847","co38056","norming","","","","","","",""
"null","../img/tt/085tt.jpg","null","mooney2","image-keyboard-response","438","1257805","0.0-6.0-5.61","2768847","co38056","norming","","","","","","",""
"1902","","","post_reveal_questions","survey-likert","439","1259708","0.0-6.0-6.61","2768847","co38056","norming","","","{""aha"":1}","[0]","../img/tt/085tt.jpg","",""
"null","<div style=""font-size:60px;""> </div>","null","fixation","html-keyboard-response","440","1259912","0.0-6.0-0.62","2768847","co38056","norming","","","","","","",""
"null","../img/tt/1272tt.jpg","null","mooney1","image-keyboard-response","441","1262914","0.0-6.0-1.62","2768847","co38056","norming","","","","","","",""
"8257","","","post_mooney1_questions","survey-likert","442","1271172","0.0-6.0-2.62","2768847","co38056","norming","","","{""curiosity"":5,""confidence"":1}","[0,1]","../img/tt/1272tt.jpg","",""
"2779","","","recognition","survey-text","443","1273958","0.0-6.0-3.62","2768847","co38056","norming","","","{""guess"":""Stier""}","","../img/tt/1272tt.jpg","",""
"null","../img/gs/1272gs.jpg","null","reveal","image-keyboard-response","444","1275960","0.0-6.0-4.62","2768847","co38056","norming","","","","","","",""
"null","../img/tt/1272tt.jpg","null","mooney2","image-keyboard-response","445","1277961","0.0-6.0-5.62","2768847","co38056","norming","","","","","","",""
"2547","","","post_reveal_questions","survey-likert","446","1280509","0.0-6.0-6.62","2768847","co38056","norming","","","{""aha"":6}","[0]","../img/tt/1272tt.jpg","",""
"null","<div style=""font-size:60px;""> </div>","null","fixation","html-keyboard-response","447","1280712","0.0-6.0-0.63","2768847","co38056","norming","","","","","","",""
"null","../img/tt/1196tt.jpg","null","mooney1","image-keyboard-response","448","1283714","0.0-6.0-1.63","2768847","co38056","norming","","","","","","",""
"6073.999999999767","","","post_mooney1_questions","survey-likert","449","1289791","0.0-6.0-2.63","2768847","co38056","norming","","","{""curiosity"":3,""confidence"":1}","[0,1]","../img/tt/1196tt.jpg","",""
"2715","","","recognition","survey-text","450","1292512","0.0-6.0-3.63","2768847","co38056","norming","","","{""guess"":""Lopen""}","","../img/tt/1196tt.jpg","",""
"null","../img/gs/1196gs.jpg","null","reveal","image-keyboard-response","451","1294515","0.0-6.0-4.63","2768847","co38056","norming","","","","","","",""
"null","../img/tt/1196tt.jpg","null","mooney2","image-keyboard-response","452","1296517","0.0-6.0-5.63","2768847","co38056","norming","","","","","","",""
"2697","","","post_reveal_questions","survey-likert","453","1299215","0.0-6.0-6.63","2768847","co38056","norming","","","{""aha"":2}","[0]","../img/tt/1196tt.jpg","",""
"null","<div style=""font-size:60px;""> </div>","null","fixation","html-keyboard-response","454","1299418","0.0-6.0-0.64","2768847","co38056","norming","","","","","","",""
"null","../img/tt/049tt.jpg","null","mooney1","image-keyboard-response","455","1302421","0.0-6.0-1.64","2768847","co38056","norming","","","","","","",""
"13018","","","post_mooney1_questions","survey-likert","456","1315440","0.0-6.0-2.64","2768847","co38056","norming","","","{""curiosity"":5,""confidence"":0}","[0,1]","../img/tt/049tt.jpg","",""
"723","","","recognition","survey-text","457","1316170","0.0-6.0-3.64","2768847","co38056","norming","","","{""guess"":""""}","","../img/tt/049tt.jpg","",""
"null","../img/gs/049gs.jpg","null","reveal","image-keyboard-response","458","1318173","0.0-6.0-4.64","2768847","co38056","norming","","","","","","",""
"null","../img/tt/049tt.jpg","null","mooney2","image-keyboard-response","459","1320175","0.0-6.0-5.64","2768847","co38056","norming","","","","","","",""
"1559.0000000002328","","","post_reveal_questions","survey-likert","460","1321735","0.0-6.0-6.64","2768847","co38056","norming","","","{""aha"":5}","[0]","../img/tt/049tt.jpg","",""
"null","<div style=""font-size:60px;""> </div>","null","fixation","html-keyboard-response","461","1321938","0.0-6.0-0.65","2768847","co38056","norming","","","","","","",""
"null","../img/tt/1116tt.jpg","null","mooney1","image-keyboard-response","462","1324941","0.0-6.0-1.65","2768847","co38056","norming","","","","","","",""
"75158.00000000023","","","post_mooney1_questions","survey-likert","463","1400103","0.0-6.0-2.65","2768847","co38056","norming","","","{""curiosity"":5,""confidence"":0}","[0,1]","../img/tt/1116tt.jpg","",""
"908","","","recognition","survey-text","464","1401017","0.0-6.0-3.65","2768847","co38056","norming","","","{""guess"":""""}","","../img/tt/1116tt.jpg","",""
"null","../img/gs/1116gs.jpg","null","reveal","image-keyboard-response","465","1403019","0.0-6.0-4.65","2768847","co38056","norming","","","","","","",""
"null","../img/tt/1116tt.jpg","null","mooney2","image-keyboard-response","466","1405021","0.0-6.0-5.65","2768847","co38056","norming","","","","","","",""
"2162","","","post_reveal_questions","survey-likert","467","1407185","0.0-6.0-6.65","2768847","co38056","norming","","","{""aha"":5}","[0]","../img/tt/1116tt.jpg","",""
"null","<div style=""font-size:60px;""> </div>","null","fixation","html-keyboard-response","468","1407388","0.0-6.0-0.66","2768847","co38056","norming","","","","","","",""
"null","../img/tt/1228tt.jpg","null","mooney1","image-keyboard-response","469","1410389","0.0-6.0-1.66","2768847","co38056","norming","","","","","","",""
"3994.999999999767","","","post_mooney1_questions","survey-likert","470","1414386","0.0-6.0-2.66","2768847","co38056","norming","","","{""curiosity"":5,""confidence"":1}","[0,1]","../img/tt/1228tt.jpg","",""
"2400","","","recognition","survey-text","471","1416794","0.0-6.0-3.66","2768847","co38056","norming","","","{""guess"":""Vogel""}","","../img/tt/1228tt.jpg","",""
"null","../img/gs/1228gs.jpg","null","reveal","image-keyboard-response","472","1418796","0.0-6.0-4.66","2768847","co38056","norming","","","","","","",""
"null","../img/tt/1228tt.jpg","null","mooney2","image-keyboard-response","473","1420798","0.0-6.0-5.66","2768847","co38056","norming","","","","","","",""
"8183","","","post_reveal_questions","survey-likert","474","1428983","0.0-6.0-6.66","2768847","co38056","norming","","","{""aha"":1}","[0]","../img/tt/1228tt.jpg","",""
"null","<div style=""font-size:60px;""> </div>","null","fixation","html-keyboard-response","475","1429186","0.0-6.0-0.67","2768847","co38056","norming","","","","","","",""
"null","../img/tt/1307tt.jpg","null","mooney1","image-keyboard-response","476","1432188","0.0-6.0-1.67","2768847","co38056","norming","","","","","","",""
"7732.999999999767","","","post_mooney1_questions","survey-likert","477","1439923","0.0-6.0-2.67","2768847","co38056","norming","","","{""curiosity"":5,""confidence"":1}","[0,1]","../img/tt/1307tt.jpg","",""
"2806.999999999767","","","recognition","survey-text","478","1442737","0.0-6.0-3.67","2768847","co38056","norming","","","{""guess"":""Pauw""}","","../img/tt/1307tt.jpg","",""
"null","../img/gs/1307gs.jpg","null","reveal","image-keyboard-response","479","1444740","0.0-6.0-4.67","2768847","co38056","norming","","","","","","",""
"null","../img/tt/1307tt.jpg","null","mooney2","image-keyboard-response","480","1446742","0.0-6.0-5.67","2768847","co38056","norming","","","","","","",""
"4487","","","post_reveal_questions","survey-likert","481","1451230","0.0-6.0-6.67","2768847","co38056","norming","","","{""aha"":6}","[0]","../img/tt/1307tt.jpg","",""
"null","<div style=""font-size:60px;""> </div>","null","fixation","html-keyboard-response","482","1451433","0.0-6.0-0.68","2768847","co38056","norming","","","","","","",""
"null","../img/tt/296tt.jpg","null","mooney1","image-keyboard-response","483","1454435","0.0-6.0-1.68","2768847","co38056","norming","","","","","","",""
"5197","","","post_mooney1_questions","survey-likert","484","1459634","0.0-6.0-2.68","2768847","co38056","norming","","","{""curiosity"":5,""confidence"":1}","[0,1]","../img/tt/296tt.jpg","",""
"7931","","","recognition","survey-text","485","1467571","0.0-6.0-3.68","2768847","co38056","norming","","","{""guess"":""Mijnwerkerskar""}","","../img/tt/296tt.jpg","",""
"null","../img/gs/296gs.jpg","null","reveal","image-keyboard-response","486","1469573","0.0-6.0-4.68","2768847","co38056","norming","","","","","","",""
"null","../img/tt/296tt.jpg","null","mooney2","image-keyboard-response","487","1471576","0.0-6.0-5.68","2768847","co38056","norming","","","","","","",""
"6283","","","post_reveal_questions","survey-likert","488","1477860","0.0-6.0-6.68","2768847","co38056","norming","","","{""aha"":5}","[0]","../img/tt/296tt.jpg","",""
"null","<div style=""font-size:60px;""> </div>","null","fixation","html-keyboard-response","489","1478064","0.0-6.0-0.69","2768847","co38056","norming","","","","","","",""
"null","../img/tt/1261tt.jpg","null","mooney1","image-keyboard-response","490","1481065","0.0-6.0-1.69","2768847","co38056","norming","","","","","","",""
"4271","","","post_mooney1_questions","survey-likert","491","1485338","0.0-6.0-2.69","2768847","co38056","norming","","","{""curiosity"":5,""confidence"":1}","[0,1]","../img/tt/1261tt.jpg","",""
"2536.999999999767","","","recognition","survey-text","492","1487882","0.0-6.0-3.69","2768847","co38056","norming","","","{""guess"":""Kalf""}","","../img/tt/1261tt.jpg","",""
"null","../img/gs/1261gs.jpg","null","reveal","image-keyboard-response","493","1489885","0.0-6.0-4.69","2768847","co38056","norming","","","","","","",""
"null","../img/tt/1261tt.jpg","null","mooney2","image-keyboard-response","494","1491887","0.0-6.0-5.69","2768847","co38056","norming","","","","","","",""
"2700","","","post_reveal_questions","survey-likert","495","1494588","0.0-6.0-6.69","2768847","co38056","norming","","","{""aha"":6}","[0]","../img/tt/1261tt.jpg","",""
"null","<div style=""font-size:60px;""> </div>","null","fixation","html-keyboard-response","496","1494792","0.0-6.0-0.70","2768847","co38056","norming","","","","","","",""
"null","../img/tt/1171tt.jpg","null","mooney1","image-keyboard-response","497","1497794","0.0-6.0-1.70","2768847","co38056","norming","","","","","","",""
"4487.999999999767","","","post_mooney1_questions","survey-likert","498","1502284","0.0-6.0-2.70","2768847","co38056","norming","","","{""curiosity"":5,""confidence"":2}","[0,1]","../img/tt/1171tt.jpg","",""
"4950","","","recognition","survey-text","499","1507242","0.0-6.0-3.70","2768847","co38056","norming","","","{""guess"":""Pandabeer""}","","../img/tt/1171tt.jpg","",""
"null","../img/gs/1171gs.jpg","null","reveal","image-keyboard-response","500","1509244","0.0-6.0-4.70","2768847","co38056","norming","","","","","","",""
"null","../img/tt/1171tt.jpg","null","mooney2","image-keyboard-response","501","1511246","0.0-6.0-5.70","2768847","co38056","norming","","","","","","",""
"3607.000000000233","","","post_reveal_questions","survey-likert","502","1514854","0.0-6.0-6.70","2768847","co38056","norming","","","{""aha"":5}","[0]","../img/tt/1171tt.jpg","",""
"null","<div style=""font-size:60px;""> </div>","null","fixation","html-keyboard-response","503","1515057","0.0-6.0-0.71","2768847","co38056","norming","","","","","","",""
"null","../img/tt/306tt.jpg","null","mooney1","image-keyboard-response","504","1518060","0.0-6.0-1.71","2768847","co38056","norming","","","","","","",""
"3463","","","post_mooney1_questions","survey-likert","505","1521525","0.0-6.0-2.71","2768847","co38056","norming","","","{""curiosity"":6,""confidence"":0}","[0,1]","../img/tt/306tt.jpg","",""
"723","","","recognition","survey-text","506","1522255","0.0-6.0-3.71","2768847","co38056","norming","","","{""guess"":""""}","","../img/tt/306tt.jpg","",""
"null","../img/gs/306gs.jpg","null","reveal","image-keyboard-response","507","1524257","0.0-6.0-4.71","2768847","co38056","norming","","","","","","",""
"null","../img/tt/306tt.jpg","null","mooney2","image-keyboard-response","508","1526259","0.0-6.0-5.71","2768847","co38056","norming","","","","","","",""
"1507","","","post_reveal_questions","survey-likert","509","1527767","0.0-6.0-6.71","2768847","co38056","norming","","","{""aha"":5}","[0]","../img/tt/306tt.jpg","",""
"null","<div style=""font-size:60px;""> </div>","null","fixation","html-keyboard-response","510","1527970","0.0-6.0-0.72","2768847","co38056","norming","","","","","","",""
"null","../img/tt/1053tt.jpg","null","mooney1","image-keyboard-response","511","1530972","0.0-6.0-1.72","2768847","co38056","norming","","","","","","",""
"5242","","","post_mooney1_questions","survey-likert","512","1536216","0.0-6.0-2.72","2768847","co38056","norming","","","{""curiosity"":3,""confidence"":2}","[0,1]","../img/tt/1053tt.jpg","",""
"1646","","","recognition","survey-text","513","1537869","0.0-6.0-3.72","2768847","co38056","norming","","","{""guess"":""Koe""}","","../img/tt/1053tt.jpg","",""
"null","../img/gs/1053gs.jpg","null","reveal","image-keyboard-response","514","1539871","0.0-6.0-4.72","2768847","co38056","norming","","","","","","",""
"null","../img/tt/1053tt.jpg","null","mooney2","image-keyboard-response","515","1541873","0.0-6.0-5.72","2768847","co38056","norming","","","","","","",""
"2550.999999999767","","","post_reveal_questions","survey-likert","516","1544426","0.0-6.0-6.72","2768847","co38056","norming","","","{""aha"":1}","[0]","../img/tt/1053tt.jpg","",""
"null","<div style=""font-size:60px;""> </div>","null","fixation","html-keyboard-response","517","1544630","0.0-6.0-0.73","2768847","co38056","norming","","","","","","",""
"null","../img/tt/036tt.jpg","null","mooney1","image-keyboard-response","518","1547633","0.0-6.0-1.73","2768847","co38056","norming","","","","","","",""
"6118","","","post_mooney1_questions","survey-likert","519","1553754","0.0-6.0-2.73","2768847","co38056","norming","","","{""curiosity"":5,""confidence"":1}","[0,1]","../img/tt/036tt.jpg","",""
"2159","","","recognition","survey-text","520","1555919","0.0-6.0-3.73","2768847","co38056","norming","","","{""guess"":""Bloem""}","","../img/tt/036tt.jpg","",""
"null","../img/gs/036gs.jpg","null","reveal","image-keyboard-response","521","1557921","0.0-6.0-4.73","2768847","co38056","norming","","","","","","",""
"null","../img/tt/036tt.jpg","null","mooney2","image-keyboard-response","522","1559923","0.0-6.0-5.73","2768847","co38056","norming","","","","","","",""
"2866","","","post_reveal_questions","survey-likert","523","1562791","0.0-6.0-6.73","2768847","co38056","norming","","","{""aha"":5}","[0]","../img/tt/036tt.jpg","",""
"null","<div style=""font-size:60px;""> </div>","null","fixation","html-keyboard-response","524","1562994","0.0-6.0-0.74","2768847","co38056","norming","","","","","","",""
"null","../img/tt/318tt.jpg","null","mooney1","image-keyboard-response","525","1565997","0.0-6.0-1.74","2768847","co38056","norming","","","","","","",""
"7693","","","post_mooney1_questions","survey-likert","526","1573692","0.0-6.0-2.74","2768847","co38056","norming","","","{""curiosity"":5,""confidence"":2}","[0,1]","../img/tt/318tt.jpg","",""
"2406","","","recognition","survey-text","527","1576104","0.0-6.0-3.74","2768847","co38056","norming","","","{""guess"":""Stuur""}","","../img/tt/318tt.jpg","",""
"null","../img/gs/318gs.jpg","null","reveal","image-keyboard-response","528","1578107","0.0-6.0-4.74","2768847","co38056","norming","","","","","","",""
"null","../img/tt/318tt.jpg","null","mooney2","image-keyboard-response","529","1580109","0.0-6.0-5.74","2768847","co38056","norming","","","","","","",""
"1652","","","post_reveal_questions","survey-likert","530","1581762","0.0-6.0-6.74","2768847","co38056","norming","","","{""aha"":0}","[0]","../img/tt/318tt.jpg","",""
"null","<div style=""font-size:60px;""> </div>","null","fixation","html-keyboard-response","531","1581966","0.0-6.0-0.75","2768847","co38056","norming","","","","","","",""
"null","../img/tt/1063tt.jpg","null","mooney1","image-keyboard-response","532","1584968","0.0-6.0-1.75","2768847","co38056","norming","","","","","","",""
"4295","","","post_mooney1_questions","survey-likert","533","1589265","0.0-6.0-2.75","2768847","co38056","norming","","","{""curiosity"":4,""confidence"":0}","[0,1]","../img/tt/1063tt.jpg","",""
"626","","","recognition","survey-text","534","1589897","0.0-6.0-3.75","2768847","co38056","norming","","","{""guess"":""""}","","../img/tt/1063tt.jpg","",""
"null","../img/gs/1063gs.jpg","null","reveal","image-keyboard-response","535","1591899","0.0-6.0-4.75","2768847","co38056","norming","","","","","","",""
"null","../img/tt/1063tt.jpg","null","mooney2","image-keyboard-response","536","1593900","0.0-6.0-5.75","2768847","co38056","norming","","","","","","",""
"2772.000000000233","","","post_reveal_questions","survey-likert","537","1596675","0.0-6.0-6.75","2768847","co38056","norming","","","{""aha"":4}","[0]","../img/tt/1063tt.jpg","",""
"null","<div style=""font-size:60px;""> </div>","null","fixation","html-keyboard-response","538","1596878","0.0-6.0-0.76","2768847","co38056","norming","","","","","","",""
"null","../img/tt/140tt.jpg","null","mooney1","image-keyboard-response","539","1599880","0.0-6.0-1.76","2768847","co38056","norming","","","","","","",""
"4574","","","post_mooney1_questions","survey-likert","540","1604457","0.0-6.0-2.76","2768847","co38056","norming","","","{""curiosity"":2,""confidence"":4}","[0,1]","../img/tt/140tt.jpg","",""
"2984","","","recognition","survey-text","541","1607448","0.0-6.0-3.76","2768847","co38056","norming","","","{""guess"":""Vorken""}","","../img/tt/140tt.jpg","",""
"null","../img/gs/140gs.jpg","null","reveal","image-keyboard-response","542","1609450","0.0-6.0-4.76","2768847","co38056","norming","","","","","","",""
"null","../img/tt/140tt.jpg","null","mooney2","image-keyboard-response","543","1611452","0.0-6.0-5.76","2768847","co38056","norming","","","","","","",""
"1696","","","post_reveal_questions","survey-likert","544","1613150","0.0-6.0-6.76","2768847","co38056","norming","","","{""aha"":0}","[0]","../img/tt/140tt.jpg","",""
"null","<div style=""font-size:60px;""> </div>","null","fixation","html-keyboard-response","545","1613353","0.0-6.0-0.77","2768847","co38056","norming","","","","","","",""
"null","../img/tt/1024tt.jpg","null","mooney1","image-keyboard-response","546","1616355","0.0-6.0-1.77","2768847","co38056","norming","","","","","","",""
"5405.999999999767","","","post_mooney1_questions","survey-likert","547","1621763","0.0-6.0-2.77","2768847","co38056","norming","","","{""curiosity"":5,""confidence"":1}","[0,1]","../img/tt/1024tt.jpg","",""
"2005.9999999997672","","","recognition","survey-text","548","1623776","0.0-6.0-3.77","2768847","co38056","norming","","","{""guess"":""Tennis""}","","../img/tt/1024tt.jpg","",""
"null","../img/gs/1024gs.jpg","null","reveal","image-keyboard-response","549","1625778","0.0-6.0-4.77","2768847","co38056","norming","","","","","","",""
"null","../img/tt/1024tt.jpg","null","mooney2","image-keyboard-response","550","1627779","0.0-6.0-5.77","2768847","co38056","norming","","","","","","",""
"1692.0000000002328","","","post_reveal_questions","survey-likert","551","1629473","0.0-6.0-6.77","2768847","co38056","norming","","","{""aha"":0}","[0]","../img/tt/1024tt.jpg","",""
"null","<div style=""font-size:60px;""> </div>","null","fixation","html-keyboard-response","552","1629676","0.0-6.0-0.78","2768847","co38056","norming","","","","","","",""
"null","../img/tt/270tt.jpg","null","mooney1","image-keyboard-response","553","1632679","0.0-6.0-1.78","2768847","co38056","norming","","","","","","",""
"9864","","","post_mooney1_questions","survey-likert","554","1642544","0.0-6.0-2.78","2768847","co38056","norming","","","{""curiosity"":5,""confidence"":1}","[0,1]","../img/tt/270tt.jpg","",""
"1557.9999999997672","","","recognition","survey-text","555","1644108","0.0-6.0-3.78","2768847","co38056","norming","","","{""guess"":""Hert""}","","../img/tt/270tt.jpg","",""
"null","../img/gs/270gs.jpg","null","reveal","image-keyboard-response","556","1646111","0.0-6.0-4.78","2768847","co38056","norming","","","","","","",""
"null","../img/tt/270tt.jpg","null","mooney2","image-keyboard-response","557","1648113","0.0-6.0-5.78","2768847","co38056","norming","","","","","","",""
"8796","","","post_reveal_questions","survey-likert","558","1656911","0.0-6.0-6.78","2768847","co38056","norming","","","{""aha"":1}","[0]","../img/tt/270tt.jpg","",""
"null","<div style=""font-size:60px;""> </div>","null","fixation","html-keyboard-response","559","1657114","0.0-6.0-0.79","2768847","co38056","norming","","","","","","",""
"null","../img/tt/1027tt.jpg","null","mooney1","image-keyboard-response","560","1660117","0.0-6.0-1.79","2768847","co38056","norming","","","","","","",""
"3830","","","post_mooney1_questions","survey-likert","561","1663948","0.0-6.0-2.79","2768847","co38056","norming","","","{""curiosity"":2,""confidence"":1}","[0,1]","../img/tt/1027tt.jpg","",""
"1622","","","recognition","survey-text","562","1665576","0.0-6.0-3.79","2768847","co38056","norming","","","{""guess"":""Koe""}","","../img/tt/1027tt.jpg","",""
"null","../img/gs/1027gs.jpg","null","reveal","image-keyboard-response","563","1667578","0.0-6.0-4.79","2768847","co38056","norming","","","","","","",""
"null","../img/tt/1027tt.jpg","null","mooney2","image-keyboard-response","564","1669581","0.0-6.0-5.79","2768847","co38056","norming","","","","","","",""
"3049","","","post_reveal_questions","survey-likert","565","1672631","0.0-6.0-6.79","2768847","co38056","norming","","","{""aha"":0}","[0]","../img/tt/1027tt.jpg","",""
