"rt","stimulus","key_press","test_part","trial_type","trial_index","time_elapsed","internal_node_id","totalTime","subject","experiment_name","button_pressed","success","responses","question_order","currentStim","old","correct"
"8430","Welcome to the experiment. This is an online experiment so please don't close the tab/window until we say goodbye.  Press any key to begin.","76","instructions","html-keyboard-response","0","8450","0.0-0.0","3164550","co38206","norming","","","","","","",""
"3431","<div style='word-wrap: break-word; width: 900px'><h3>Please consider this information carefully before deciding whether to participate in this research</h3><ul style='text-align: left; font-size: .8em;'><li><b>Purpose of the research</b>: To examine how people process images.</li><li><b>What you will do in this research</b>:  Stimuli (images) will be presented on the computer and you will be asked different questions about them.</li><li><b>Time required</b>: Participation will take between 45 and 60 minutes to complete.</li><li><b>Risks</b>:  There are no anticipated risks associated with participating in this study. The effects of participating should be comparable to those you would experience from viewing a computer monitor for 30 minutes and using a mouse or keyboard.</li><li><b>Benefits</b>:  This study provides no benefits to you individually except for the credit. The study provides important information about the nature of perception and learning.</li><li><b>Confidentiality</b>:  Your participation in this study will remain confidential. No personally identifiable information will be associated with your data. Your de-identified data may be shared with other researchers and used in future projects.</li><li><b>Participation and withdrawal</b>:  Your participation in this study is completely voluntary and you may refuse to participate or you may choose to withdraw at any time without penalty.</li><li><b>How to contact the researchers</b>: If you have questions or concerns about your participation or payment, or want to request a summary of research findings, please contact Sander Van de Cruys (KU Leuven), at sander.vandecruys@kuleuven.be.</li></ul><p>The nature and purpose of this research have been sufficiently explained and I agree to participate in this study.  I understand that I am free to withdraw at any time without incurring any penalty.</p><p>Please consent by clicking the button below to continue. Otherwise, please exit the study at this time.</p></div>","","instructions","html-button-response","1","11885","0.0-1.0","3164550","co38206","norming","0","","","","","",""
"","","","instructions","fullscreen","2","16879","0.0-2.0","3164550","co38206","norming","","true","","","","",""
"24599.000000000007","","","sona","survey-html-form","3","41481","0.0-3.0","3164550","co38206","norming","","","[{""name"":""sonaid"",""value"":""38206""},{""name"":""debrief"",""value"":""no""},{""name"":""datajoin"",""value"":""yes""}]","","","",""
"79322","<div style='word-wrap: break-word; width: 900px'><h3>Instructions</h3><p>This experiment will have 3 parts. In the first part you will see a series of distorted images like the one below on the left. As you can see in the righthand image, the distorted images are derived from actual photographs. In what follows, you will <strong>briefly</strong> be presented with <strong>only</strong> the distorted image.</p> <div style='float: left; margin-right: 20px;'><img src='../img/018tt.jpg' height='250' width='250'></img></div><div style='float: right; margin-left: 20px;'><img src='../img/018gs.jpg' height='250' width='250'></img></div><p>Subsequently you will be asked a few questions about the image: One question on how <strong>curious</strong> you are about the solution and one on how <strong>confident</strong> you are that you know the solution.</p>Next, we ask you to make a guess on what is in the image. Note that it is OK to name just the <strong>basic level category</strong>. For example when you see a parrot in the image, 'parrot' will obviously be a correct answer but also correct is 'bird'. However, 'animal' will <strong>not</strong> be counted as a correct response. For the example above, 'rose' would be correct or 'flower', but not 'plant'. When soccer players are depicted, 'soccer', 'football', 'soccer players' will be correct, but not 'humans', 'outdoors', or 'sports'. You do not need to describe the image in full, just name the main object in it <strong>in one or two words</strong>. All images depict objects from one of the following broad level categories: animals, inanimate objects, plants, sports, vehicles, and food. Recognizing means knowing <strong>more</strong> than these broad labels for a given image. But we always encourage you to <strong>make a guess</strong> if you can. Note that you are allowed to use <strong>Dutch and English</strong> in your answers, whatever comes easiest for you.</p><p>Press any key to continue.</p></div>","76","instructions","html-keyboard-response","4","120807","0.0-4.0","3164550","co38206","norming","","","","","","",""
"2016","<div style='word-wrap: break-word; width: 900px'><h3>Instructions</h3> <p>Next, the solution image will be revealed to you and you'll be asked to indicate how strong your <strong>aha-experience</strong> was after seeing the solution. This describes the positive feeling of the 'click' you sometimes experience, when the pieces of the 'puzzle' fall together and you suddenly have 'insight' in the image.</p><img src='aha.jpg' height='188' width='250'></img><p>Note that there are no right or wrong answers. We are interested in what <strong>you</strong> see in the image and how <strong>you</strong> feel about it.</p><p>Press any key to start the experiment.</p></div>","76","instructions","html-keyboard-response","5","122823","0.0-5.0","3164550","co38206","norming","","","","","","",""
"null","<div style=""font-size:60px;""> </div>","null","fixation","html-keyboard-response","6","123025","0.0-6.0-0.0","3164550","co38206","norming","","","","","","",""
"null","../img/tt/121tt.jpg","null","mooney1","image-keyboard-response","7","126029","0.0-6.0-1.0","3164550","co38206","norming","","","","","","",""
"23642","","","post_mooney1_questions","survey-likert","8","149673","0.0-6.0-2.0","3164550","co38206","norming","","","{""curiosity"":6,""confidence"":0}","[0,1]","../img/tt/121tt.jpg","",""
"12389","","","recognition","survey-text","9","162071","0.0-6.0-3.0","3164550","co38206","norming","","","{""guess"":""nothing""}","","../img/tt/121tt.jpg","",""
"null","../img/gs/121gs.jpg","null","reveal","image-keyboard-response","10","164073","0.0-6.0-4.0","3164550","co38206","norming","","","","","","",""
"null","../img/tt/121tt.jpg","null","mooney2","image-keyboard-response","11","166076","0.0-6.0-5.0","3164550","co38206","norming","","","","","","",""
"4482","","","post_reveal_questions","survey-likert","12","170560","0.0-6.0-6.0","3164550","co38206","norming","","","{""aha"":0}","[0]","../img/tt/121tt.jpg","",""
"null","<div style=""font-size:60px;""> </div>","null","fixation","html-keyboard-response","13","170764","0.0-6.0-0.1","3164550","co38206","norming","","","","","","",""
"null","../img/tt/1097tt.jpg","null","mooney1","image-keyboard-response","14","173767","0.0-6.0-1.1","3164550","co38206","norming","","","","","","",""
"8968","","","post_mooney1_questions","survey-likert","15","182738","0.0-6.0-2.1","3164550","co38206","norming","","","{""curiosity"":6,""confidence"":1}","[0,1]","../img/tt/1097tt.jpg","",""
"4877","","","recognition","survey-text","16","187623","0.0-6.0-3.1","3164550","co38206","norming","","","{""guess"":""farmer""}","","../img/tt/1097tt.jpg","",""
"null","../img/gs/1097gs.jpg","null","reveal","image-keyboard-response","17","189625","0.0-6.0-4.1","3164550","co38206","norming","","","","","","",""
"null","../img/tt/1097tt.jpg","null","mooney2","image-keyboard-response","18","191627","0.0-6.0-5.1","3164550","co38206","norming","","","","","","",""
"4306.999999999971","","","post_reveal_questions","survey-likert","19","195936","0.0-6.0-6.1","3164550","co38206","norming","","","{""aha"":1}","[0]","../img/tt/1097tt.jpg","",""
"null","<div style=""font-size:60px;""> </div>","null","fixation","html-keyboard-response","20","196140","0.0-6.0-0.2","3164550","co38206","norming","","","","","","",""
"null","../img/tt/063tt.jpg","null","mooney1","image-keyboard-response","21","199142","0.0-6.0-1.2","3164550","co38206","norming","","","","","","",""
"5891","","","post_mooney1_questions","survey-likert","22","205036","0.0-6.0-2.2","3164550","co38206","norming","","","{""curiosity"":4,""confidence"":1}","[0,1]","../img/tt/063tt.jpg","",""
"2504","","","recognition","survey-text","23","207548","0.0-6.0-3.2","3164550","co38206","norming","","","{""guess"":""books""}","","../img/tt/063tt.jpg","",""
"null","../img/gs/063gs.jpg","null","reveal","image-keyboard-response","24","209550","0.0-6.0-4.2","3164550","co38206","norming","","","","","","",""
"null","../img/tt/063tt.jpg","null","mooney2","image-keyboard-response","25","211552","0.0-6.0-5.2","3164550","co38206","norming","","","","","","",""
"3970","","","post_reveal_questions","survey-likert","26","215525","0.0-6.0-6.2","3164550","co38206","norming","","","{""aha"":5}","[0]","../img/tt/063tt.jpg","",""
"null","<div style=""font-size:60px;""> </div>","null","fixation","html-keyboard-response","27","215727","0.0-6.0-0.3","3164550","co38206","norming","","","","","","",""
"null","../img/tt/584tt.jpg","null","mooney1","image-keyboard-response","28","218730","0.0-6.0-1.3","3164550","co38206","norming","","","","","","",""
"6260.999999999971","","","post_mooney1_questions","survey-likert","29","224995","0.0-6.0-2.3","3164550","co38206","norming","","","{""curiosity"":5,""confidence"":2}","[0,1]","../img/tt/584tt.jpg","",""
"4355","","","recognition","survey-text","30","229358","0.0-6.0-3.3","3164550","co38206","norming","","","{""guess"":""scissors""}","","../img/tt/584tt.jpg","",""
"null","../img/gs/584gs.jpg","null","reveal","image-keyboard-response","31","231360","0.0-6.0-4.3","3164550","co38206","norming","","","","","","",""
"null","../img/tt/584tt.jpg","null","mooney2","image-keyboard-response","32","233362","0.0-6.0-5.3","3164550","co38206","norming","","","","","","",""
"2745","","","post_reveal_questions","survey-likert","33","236109","0.0-6.0-6.3","3164550","co38206","norming","","","{""aha"":4}","[0]","../img/tt/584tt.jpg","",""
"null","<div style=""font-size:60px;""> </div>","null","fixation","html-keyboard-response","34","236313","0.0-6.0-0.4","3164550","co38206","norming","","","","","","",""
"null","../img/tt/1260tt.jpg","null","mooney1","image-keyboard-response","35","239315","0.0-6.0-1.4","3164550","co38206","norming","","","","","","",""
"4003","","","post_mooney1_questions","survey-likert","36","243321","0.0-6.0-2.4","3164550","co38206","norming","","","{""curiosity"":6,""confidence"":0}","[0,1]","../img/tt/1260tt.jpg","",""
"8806","","","recognition","survey-text","37","252121","0.0-6.0-3.4","3164550","co38206","norming","","","{""guess"":""""}","","../img/tt/1260tt.jpg","",""
"null","../img/gs/1260gs.jpg","null","reveal","image-keyboard-response","38","254120","0.0-6.0-4.4","3164550","co38206","norming","","","","","","",""
"null","../img/tt/1260tt.jpg","null","mooney2","image-keyboard-response","39","256120","0.0-6.0-5.4","3164550","co38206","norming","","","","","","",""
"2879","","","post_reveal_questions","survey-likert","40","258997","0.0-6.0-6.4","3164550","co38206","norming","","","{""aha"":6}","[0]","../img/tt/1260tt.jpg","",""
"null","<div style=""font-size:60px;""> </div>","null","fixation","html-keyboard-response","41","259201","0.0-6.0-0.5","3164550","co38206","norming","","","","","","",""
"null","../img/tt/1202tt.jpg","null","mooney1","image-keyboard-response","42","262200","0.0-6.0-1.5","3164550","co38206","norming","","","","","","",""
"6738","","","post_mooney1_questions","survey-likert","43","268937","0.0-6.0-2.5","3164550","co38206","norming","","","{""curiosity"":6,""confidence"":1}","[0,1]","../img/tt/1202tt.jpg","",""
"4978","","","recognition","survey-text","44","273920","0.0-6.0-3.5","3164550","co38206","norming","","","{""guess"":""""}","","../img/tt/1202tt.jpg","",""
"null","../img/gs/1202gs.jpg","null","reveal","image-keyboard-response","45","275922","0.0-6.0-4.5","3164550","co38206","norming","","","","","","",""
"null","../img/tt/1202tt.jpg","null","mooney2","image-keyboard-response","46","277923","0.0-6.0-5.5","3164550","co38206","norming","","","","","","",""
"2756","","","post_reveal_questions","survey-likert","47","280680","0.0-6.0-6.5","3164550","co38206","norming","","","{""aha"":3}","[0]","../img/tt/1202tt.jpg","",""
"null","<div style=""font-size:60px;""> </div>","null","fixation","html-keyboard-response","48","280883","0.0-6.0-0.6","3164550","co38206","norming","","","","","","",""
"null","../img/tt/507tt.jpg","null","mooney1","image-keyboard-response","49","283885","0.0-6.0-1.6","3164550","co38206","norming","","","","","","",""
"4966","","","post_mooney1_questions","survey-likert","50","288853","0.0-6.0-2.6","3164550","co38206","norming","","","{""curiosity"":6,""confidence"":1}","[0,1]","../img/tt/507tt.jpg","",""
"10797","","","recognition","survey-text","51","299658","0.0-6.0-3.6","3164550","co38206","norming","","","{""guess"":""two women""}","","../img/tt/507tt.jpg","",""
"null","../img/gs/507gs.jpg","null","reveal","image-keyboard-response","52","301661","0.0-6.0-4.6","3164550","co38206","norming","","","","","","",""
"null","../img/tt/507tt.jpg","null","mooney2","image-keyboard-response","53","303663","0.0-6.0-5.6","3164550","co38206","norming","","","","","","",""
"2523","","","post_reveal_questions","survey-likert","54","306188","0.0-6.0-6.6","3164550","co38206","norming","","","{""aha"":6}","[0]","../img/tt/507tt.jpg","",""
"null","<div style=""font-size:60px;""> </div>","null","fixation","html-keyboard-response","55","306392","0.0-6.0-0.7","3164550","co38206","norming","","","","","","",""
"null","../img/tt/098tt.jpg","null","mooney1","image-keyboard-response","56","309394","0.0-6.0-1.7","3164550","co38206","norming","","","","","","",""
"9294.999999999942","","","post_mooney1_questions","survey-likert","57","318690","0.0-6.0-2.7","3164550","co38206","norming","","","{""curiosity"":4,""confidence"":1}","[0,1]","../img/tt/098tt.jpg","",""
"6406.000000000058","","","recognition","survey-text","58","325104","0.0-6.0-3.7","3164550","co38206","norming","","","{""guess"":""guitar""}","","../img/tt/098tt.jpg","",""
"null","../img/gs/098gs.jpg","null","reveal","image-keyboard-response","59","327105","0.0-6.0-4.7","3164550","co38206","norming","","","","","","",""
"null","../img/tt/098tt.jpg","null","mooney2","image-keyboard-response","60","329108","0.0-6.0-5.7","3164550","co38206","norming","","","","","","",""
"3013.999999999942","","","post_reveal_questions","survey-likert","61","332124","0.0-6.0-6.7","3164550","co38206","norming","","","{""aha"":2}","[0]","../img/tt/098tt.jpg","",""
"null","<div style=""font-size:60px;""> </div>","null","fixation","html-keyboard-response","62","332328","0.0-6.0-0.8","3164550","co38206","norming","","","","","","",""
"null","../img/tt/055tt.jpg","null","mooney1","image-keyboard-response","63","335330","0.0-6.0-1.8","3164550","co38206","norming","","","","","","",""
"5271","","","post_mooney1_questions","survey-likert","64","340603","0.0-6.0-2.8","3164550","co38206","norming","","","{""curiosity"":6,""confidence"":1}","[0,1]","../img/tt/055tt.jpg","",""
"2048","","","recognition","survey-text","65","342659","0.0-6.0-3.8","3164550","co38206","norming","","","{""guess"":""""}","","../img/tt/055tt.jpg","",""
"null","../img/gs/055gs.jpg","null","reveal","image-keyboard-response","66","344661","0.0-6.0-4.8","3164550","co38206","norming","","","","","","",""
"null","../img/tt/055tt.jpg","null","mooney2","image-keyboard-response","67","346663","0.0-6.0-5.8","3164550","co38206","norming","","","","","","",""
"3585","","","post_reveal_questions","survey-likert","68","350250","0.0-6.0-6.8","3164550","co38206","norming","","","{""aha"":6}","[0]","../img/tt/055tt.jpg","",""
"null","<div style=""font-size:60px;""> </div>","null","fixation","html-keyboard-response","69","350454","0.0-6.0-0.9","3164550","co38206","norming","","","","","","",""
"null","../img/tt/1171tt.jpg","null","mooney1","image-keyboard-response","70","353456","0.0-6.0-1.9","3164550","co38206","norming","","","","","","",""
"8965","","","post_mooney1_questions","survey-likert","71","362423","0.0-6.0-2.9","3164550","co38206","norming","","","{""curiosity"":5,""confidence"":2}","[0,1]","../img/tt/1171tt.jpg","",""
"2835.000000000058","","","recognition","survey-text","72","365266","0.0-6.0-3.9","3164550","co38206","norming","","","{""guess"":""panda""}","","../img/tt/1171tt.jpg","",""
"null","../img/gs/1171gs.jpg","null","reveal","image-keyboard-response","73","367268","0.0-6.0-4.9","3164550","co38206","norming","","","","","","",""
"null","../img/tt/1171tt.jpg","null","mooney2","image-keyboard-response","74","369271","0.0-6.0-5.9","3164550","co38206","norming","","","","","","",""
"4212","","","post_reveal_questions","survey-likert","75","373484","0.0-6.0-6.9","3164550","co38206","norming","","","{""aha"":4}","[0]","../img/tt/1171tt.jpg","",""
"null","<div style=""font-size:60px;""> </div>","null","fixation","html-keyboard-response","76","373687","0.0-6.0-0.10","3164550","co38206","norming","","","","","","",""
"null","../img/tt/599tt.jpg","null","mooney1","image-keyboard-response","77","376690","0.0-6.0-1.10","3164550","co38206","norming","","","","","","",""
"8243","","","post_mooney1_questions","survey-likert","78","384935","0.0-6.0-2.10","3164550","co38206","norming","","","{""curiosity"":5,""confidence"":0}","[0,1]","../img/tt/599tt.jpg","",""
"1669","","","recognition","survey-text","79","386612","0.0-6.0-3.10","3164550","co38206","norming","","","{""guess"":""""}","","../img/tt/599tt.jpg","",""
"null","../img/gs/599gs.jpg","null","reveal","image-keyboard-response","80","388614","0.0-6.0-4.10","3164550","co38206","norming","","","","","","",""
"null","../img/tt/599tt.jpg","null","mooney2","image-keyboard-response","81","390617","0.0-6.0-5.10","3164550","co38206","norming","","","","","","",""
"5032.999999999942","","","post_reveal_questions","survey-likert","82","395651","0.0-6.0-6.10","3164550","co38206","norming","","","{""aha"":6}","[0]","../img/tt/599tt.jpg","",""
"null","<div style=""font-size:60px;""> </div>","null","fixation","html-keyboard-response","83","395854","0.0-6.0-0.11","3164550","co38206","norming","","","","","","",""
"null","../img/tt/118tt.jpg","null","mooney1","image-keyboard-response","84","398857","0.0-6.0-1.11","3164550","co38206","norming","","","","","","",""
"5494","","","post_mooney1_questions","survey-likert","85","404353","0.0-6.0-2.11","3164550","co38206","norming","","","{""curiosity"":5,""confidence"":1}","[0,1]","../img/tt/118tt.jpg","",""
"3155","","","recognition","survey-text","86","407516","0.0-6.0-3.11","3164550","co38206","norming","","","{""guess"":""ladder""}","","../img/tt/118tt.jpg","",""
"null","../img/gs/118gs.jpg","null","reveal","image-keyboard-response","87","409518","0.0-6.0-4.11","3164550","co38206","norming","","","","","","",""
"null","../img/tt/118tt.jpg","null","mooney2","image-keyboard-response","88","411521","0.0-6.0-5.11","3164550","co38206","norming","","","","","","",""
"3830","","","post_reveal_questions","survey-likert","89","415352","0.0-6.0-6.11","3164550","co38206","norming","","","{""aha"":5}","[0]","../img/tt/118tt.jpg","",""
"null","<div style=""font-size:60px;""> </div>","null","fixation","html-keyboard-response","90","415554","0.0-6.0-0.12","3164550","co38206","norming","","","","","","",""
"null","../img/tt/044tt.jpg","null","mooney1","image-keyboard-response","91","418557","0.0-6.0-1.12","3164550","co38206","norming","","","","","","",""
"7382.999999999942","","","post_mooney1_questions","survey-likert","92","425942","0.0-6.0-2.12","3164550","co38206","norming","","","{""curiosity"":5,""confidence"":1}","[0,1]","../img/tt/044tt.jpg","",""
"5517","","","recognition","survey-text","93","431467","0.0-6.0-3.12","3164550","co38206","norming","","","{""guess"":""volleybal""}","","../img/tt/044tt.jpg","",""
"null","../img/gs/044gs.jpg","null","reveal","image-keyboard-response","94","433470","0.0-6.0-4.12","3164550","co38206","norming","","","","","","",""
"null","../img/tt/044tt.jpg","null","mooney2","image-keyboard-response","95","435472","0.0-6.0-5.12","3164550","co38206","norming","","","","","","",""
"5576","","","post_reveal_questions","survey-likert","96","441050","0.0-6.0-6.12","3164550","co38206","norming","","","{""aha"":4}","[0]","../img/tt/044tt.jpg","",""
"null","<div style=""font-size:60px;""> </div>","null","fixation","html-keyboard-response","97","441254","0.0-6.0-0.13","3164550","co38206","norming","","","","","","",""
"null","../img/tt/053tt.jpg","null","mooney1","image-keyboard-response","98","444256","0.0-6.0-1.13","3164550","co38206","norming","","","","","","",""
"7168","","","post_mooney1_questions","survey-likert","99","451426","0.0-6.0-2.13","3164550","co38206","norming","","","{""curiosity"":5,""confidence"":1}","[0,1]","../img/tt/053tt.jpg","",""
"3807","","","recognition","survey-text","100","455240","0.0-6.0-3.13","3164550","co38206","norming","","","{""guess"":""surfer""}","","../img/tt/053tt.jpg","",""
"null","../img/gs/053gs.jpg","null","reveal","image-keyboard-response","101","457242","0.0-6.0-4.13","3164550","co38206","norming","","","","","","",""
"null","../img/tt/053tt.jpg","null","mooney2","image-keyboard-response","102","459245","0.0-6.0-5.13","3164550","co38206","norming","","","","","","",""
"3479","","","post_reveal_questions","survey-likert","103","462725","0.0-6.0-6.13","3164550","co38206","norming","","","{""aha"":4}","[0]","../img/tt/053tt.jpg","",""
"null","<div style=""font-size:60px;""> </div>","null","fixation","html-keyboard-response","104","462929","0.0-6.0-0.14","3164550","co38206","norming","","","","","","",""
"null","../img/tt/580tt.jpg","null","mooney1","image-keyboard-response","105","465931","0.0-6.0-1.14","3164550","co38206","norming","","","","","","",""
"22800.00000000006","","","post_mooney1_questions","survey-likert","106","488734","0.0-6.0-2.14","3164550","co38206","norming","","","{""curiosity"":5,""confidence"":1}","[0,1]","../img/tt/580tt.jpg","",""
"4043","","","recognition","survey-text","107","492785","0.0-6.0-3.14","3164550","co38206","norming","","","{""guess"":""""}","","../img/tt/580tt.jpg","",""
"null","../img/gs/580gs.jpg","null","reveal","image-keyboard-response","108","494787","0.0-6.0-4.14","3164550","co38206","norming","","","","","","",""
"null","../img/tt/580tt.jpg","null","mooney2","image-keyboard-response","109","496789","0.0-6.0-5.14","3164550","co38206","norming","","","","","","",""
"3029","","","post_reveal_questions","survey-likert","110","499820","0.0-6.0-6.14","3164550","co38206","norming","","","{""aha"":2}","[0]","../img/tt/580tt.jpg","",""
"null","<div style=""font-size:60px;""> </div>","null","fixation","html-keyboard-response","111","500023","0.0-6.0-0.15","3164550","co38206","norming","","","","","","",""
"null","../img/tt/418tt.jpg","null","mooney1","image-keyboard-response","112","503026","0.0-6.0-1.15","3164550","co38206","norming","","","","","","",""
"6485","","","post_mooney1_questions","survey-likert","113","509512","0.0-6.0-2.15","3164550","co38206","norming","","","{""curiosity"":5,""confidence"":0}","[0,1]","../img/tt/418tt.jpg","",""
"650.0000000001164","","","recognition","survey-text","114","510169","0.0-6.0-3.15","3164550","co38206","norming","","","{""guess"":""""}","","../img/tt/418tt.jpg","",""
"null","../img/gs/418gs.jpg","null","reveal","image-keyboard-response","115","512171","0.0-6.0-4.15","3164550","co38206","norming","","","","","","",""
"null","../img/tt/418tt.jpg","null","mooney2","image-keyboard-response","116","514173","0.0-6.0-5.15","3164550","co38206","norming","","","","","","",""
"3044.999999999942","","","post_reveal_questions","survey-likert","117","517220","0.0-6.0-6.15","3164550","co38206","norming","","","{""aha"":5}","[0]","../img/tt/418tt.jpg","",""
"null","<div style=""font-size:60px;""> </div>","null","fixation","html-keyboard-response","118","517423","0.0-6.0-0.16","3164550","co38206","norming","","","","","","",""
"null","../img/tt/031tt.jpg","null","mooney1","image-keyboard-response","119","520425","0.0-6.0-1.16","3164550","co38206","norming","","","","","","",""
"4277","","","post_mooney1_questions","survey-likert","120","524704","0.0-6.0-2.16","3164550","co38206","norming","","","{""curiosity"":5,""confidence"":1}","[0,1]","../img/tt/031tt.jpg","",""
"3580","","","recognition","survey-text","121","528293","0.0-6.0-3.16","3164550","co38206","norming","","","{""guess"":""volleybal""}","","../img/tt/031tt.jpg","",""
"null","../img/gs/031gs.jpg","null","reveal","image-keyboard-response","122","530295","0.0-6.0-4.16","3164550","co38206","norming","","","","","","",""
"null","../img/tt/031tt.jpg","null","mooney2","image-keyboard-response","123","532298","0.0-6.0-5.16","3164550","co38206","norming","","","","","","",""
"3911","","","post_reveal_questions","survey-likert","124","536211","0.0-6.0-6.16","3164550","co38206","norming","","","{""aha"":5}","[0]","../img/tt/031tt.jpg","",""
"null","<div style=""font-size:60px;""> </div>","null","fixation","html-keyboard-response","125","536415","0.0-6.0-0.17","3164550","co38206","norming","","","","","","",""
"null","../img/tt/1154tt.jpg","null","mooney1","image-keyboard-response","126","539417","0.0-6.0-1.17","3164550","co38206","norming","","","","","","",""
"8982","","","post_mooney1_questions","survey-likert","127","548401","0.0-6.0-2.17","3164550","co38206","norming","","","{""curiosity"":5,""confidence"":2}","[0,1]","../img/tt/1154tt.jpg","",""
"12714","","","recognition","survey-text","128","561124","0.0-6.0-3.17","3164550","co38206","norming","","","{""guess"":""roeier""}","","../img/tt/1154tt.jpg","",""
"null","../img/gs/1154gs.jpg","null","reveal","image-keyboard-response","129","563126","0.0-6.0-4.17","3164550","co38206","norming","","","","","","",""
"null","../img/tt/1154tt.jpg","null","mooney2","image-keyboard-response","130","565129","0.0-6.0-5.17","3164550","co38206","norming","","","","","","",""
"5517","","","post_reveal_questions","survey-likert","131","570647","0.0-6.0-6.17","3164550","co38206","norming","","","{""aha"":5}","[0]","../img/tt/1154tt.jpg","",""
"null","<div style=""font-size:60px;""> </div>","null","fixation","html-keyboard-response","132","570851","0.0-6.0-0.18","3164550","co38206","norming","","","","","","",""
"null","../img/tt/082tt.jpg","null","mooney1","image-keyboard-response","133","573853","0.0-6.0-1.18","3164550","co38206","norming","","","","","","",""
"7207","","","post_mooney1_questions","survey-likert","134","581063","0.0-6.0-2.18","3164550","co38206","norming","","","{""curiosity"":6,""confidence"":0}","[0,1]","../img/tt/082tt.jpg","",""
"787","","","recognition","survey-text","135","581858","0.0-6.0-3.18","3164550","co38206","norming","","","{""guess"":""""}","","../img/tt/082tt.jpg","",""
"null","../img/gs/082gs.jpg","null","reveal","image-keyboard-response","136","583860","0.0-6.0-4.18","3164550","co38206","norming","","","","","","",""
"null","../img/tt/082tt.jpg","null","mooney2","image-keyboard-response","137","585863","0.0-6.0-5.18","3164550","co38206","norming","","","","","","",""
"2077","","","post_reveal_questions","survey-likert","138","587942","0.0-6.0-6.18","3164550","co38206","norming","","","{""aha"":6}","[0]","../img/tt/082tt.jpg","",""
"null","<div style=""font-size:60px;""> </div>","null","fixation","html-keyboard-response","139","588146","0.0-6.0-0.19","3164550","co38206","norming","","","","","","",""
"null","../img/tt/301tt.jpg","null","mooney1","image-keyboard-response","140","591148","0.0-6.0-1.19","3164550","co38206","norming","","","","","","",""
"10899","","","post_mooney1_questions","survey-likert","141","602050","0.0-6.0-2.19","3164550","co38206","norming","","","{""curiosity"":6,""confidence"":0}","[0,1]","../img/tt/301tt.jpg","",""
"714","","","recognition","survey-text","142","602771","0.0-6.0-3.19","3164550","co38206","norming","","","{""guess"":""""}","","../img/tt/301tt.jpg","",""
"null","../img/gs/301gs.jpg","null","reveal","image-keyboard-response","143","604774","0.0-6.0-4.19","3164550","co38206","norming","","","","","","",""
"null","../img/tt/301tt.jpg","null","mooney2","image-keyboard-response","144","606776","0.0-6.0-5.19","3164550","co38206","norming","","","","","","",""
"3490.0000000001164","","","post_reveal_questions","survey-likert","145","610267","0.0-6.0-6.19","3164550","co38206","norming","","","{""aha"":5}","[0]","../img/tt/301tt.jpg","",""
"null","<div style=""font-size:60px;""> </div>","null","fixation","html-keyboard-response","146","610472","0.0-6.0-0.20","3164550","co38206","norming","","","","","","",""
"null","../img/tt/440tt.jpg","null","mooney1","image-keyboard-response","147","613475","0.0-6.0-1.20","3164550","co38206","norming","","","","","","",""
"7318","","","post_mooney1_questions","survey-likert","148","620795","0.0-6.0-2.20","3164550","co38206","norming","","","{""curiosity"":5,""confidence"":3}","[0,1]","../img/tt/440tt.jpg","",""
"2410","","","recognition","survey-text","149","623211","0.0-6.0-3.20","3164550","co38206","norming","","","{""guess"":""bird""}","","../img/tt/440tt.jpg","",""
"null","../img/gs/440gs.jpg","null","reveal","image-keyboard-response","150","625214","0.0-6.0-4.20","3164550","co38206","norming","","","","","","",""
"null","../img/tt/440tt.jpg","null","mooney2","image-keyboard-response","151","627216","0.0-6.0-5.20","3164550","co38206","norming","","","","","","",""
"5819.000000000116","","","post_reveal_questions","survey-likert","152","633037","0.0-6.0-6.20","3164550","co38206","norming","","","{""aha"":5}","[0]","../img/tt/440tt.jpg","",""
"null","<div style=""font-size:60px;""> </div>","null","fixation","html-keyboard-response","153","633240","0.0-6.0-0.21","3164550","co38206","norming","","","","","","",""
"null","../img/tt/1181tt.jpg","null","mooney1","image-keyboard-response","154","636243","0.0-6.0-1.21","3164550","co38206","norming","","","","","","",""
"4694","","","post_mooney1_questions","survey-likert","155","640940","0.0-6.0-2.21","3164550","co38206","norming","","","{""curiosity"":6,""confidence"":1}","[0,1]","../img/tt/1181tt.jpg","",""
"3004","","","recognition","survey-text","156","643951","0.0-6.0-3.21","3164550","co38206","norming","","","{""guess"":""cows""}","","../img/tt/1181tt.jpg","",""
"null","../img/gs/1181gs.jpg","null","reveal","image-keyboard-response","157","645954","0.0-6.0-4.21","3164550","co38206","norming","","","","","","",""
"null","../img/tt/1181tt.jpg","null","mooney2","image-keyboard-response","158","647956","0.0-6.0-5.21","3164550","co38206","norming","","","","","","",""
"2077","","","post_reveal_questions","survey-likert","159","650035","0.0-6.0-6.21","3164550","co38206","norming","","","{""aha"":4}","[0]","../img/tt/1181tt.jpg","",""
"null","<div style=""font-size:60px;""> </div>","null","fixation","html-keyboard-response","160","650238","0.0-6.0-0.22","3164550","co38206","norming","","","","","","",""
"null","../img/tt/1044tt.jpg","null","mooney1","image-keyboard-response","161","653240","0.0-6.0-1.22","3164550","co38206","norming","","","","","","",""
"3561","","","post_mooney1_questions","survey-likert","162","656804","0.0-6.0-2.22","3164550","co38206","norming","","","{""curiosity"":6,""confidence"":1}","[0,1]","../img/tt/1044tt.jpg","",""
"2521","","","recognition","survey-text","163","659334","0.0-6.0-3.22","3164550","co38206","norming","","","{""guess"":""lamp""}","","../img/tt/1044tt.jpg","",""
"null","../img/gs/1044gs.jpg","null","reveal","image-keyboard-response","164","661337","0.0-6.0-4.22","3164550","co38206","norming","","","","","","",""
"null","../img/tt/1044tt.jpg","null","mooney2","image-keyboard-response","165","663339","0.0-6.0-5.22","3164550","co38206","norming","","","","","","",""
"2230","","","post_reveal_questions","survey-likert","166","665570","0.0-6.0-6.22","3164550","co38206","norming","","","{""aha"":5}","[0]","../img/tt/1044tt.jpg","",""
"null","<div style=""font-size:60px;""> </div>","null","fixation","html-keyboard-response","167","665773","0.0-6.0-0.23","3164550","co38206","norming","","","","","","",""
"null","../img/tt/1107tt.jpg","null","mooney1","image-keyboard-response","168","668776","0.0-6.0-1.23","3164550","co38206","norming","","","","","","",""
"4983","","","post_mooney1_questions","survey-likert","169","673761","0.0-6.0-2.23","3164550","co38206","norming","","","{""curiosity"":5,""confidence"":2}","[0,1]","../img/tt/1107tt.jpg","",""
"3566","","","recognition","survey-text","170","677334","0.0-6.0-3.23","3164550","co38206","norming","","","{""guess"":""bats""}","","../img/tt/1107tt.jpg","",""
"null","../img/gs/1107gs.jpg","null","reveal","image-keyboard-response","171","679337","0.0-6.0-4.23","3164550","co38206","norming","","","","","","",""
"null","../img/tt/1107tt.jpg","null","mooney2","image-keyboard-response","172","681339","0.0-6.0-5.23","3164550","co38206","norming","","","","","","",""
"2952","","","post_reveal_questions","survey-likert","173","684292","0.0-6.0-6.23","3164550","co38206","norming","","","{""aha"":5}","[0]","../img/tt/1107tt.jpg","",""
"null","<div style=""font-size:60px;""> </div>","null","fixation","html-keyboard-response","174","684495","0.0-6.0-0.24","3164550","co38206","norming","","","","","","",""
"null","../img/tt/353tt.jpg","null","mooney1","image-keyboard-response","175","687497","0.0-6.0-1.24","3164550","co38206","norming","","","","","","",""
"6591","","","post_mooney1_questions","survey-likert","176","694090","0.0-6.0-2.24","3164550","co38206","norming","","","{""curiosity"":5,""confidence"":2}","[0,1]","../img/tt/353tt.jpg","",""
"2915.9999999998836","","","recognition","survey-text","177","697012","0.0-6.0-3.24","3164550","co38206","norming","","","{""guess"":""fish""}","","../img/tt/353tt.jpg","",""
"null","../img/gs/353gs.jpg","null","reveal","image-keyboard-response","178","699015","0.0-6.0-4.24","3164550","co38206","norming","","","","","","",""
"null","../img/tt/353tt.jpg","null","mooney2","image-keyboard-response","179","701017","0.0-6.0-5.24","3164550","co38206","norming","","","","","","",""
"2383","","","post_reveal_questions","survey-likert","180","703402","0.0-6.0-6.24","3164550","co38206","norming","","","{""aha"":5}","[0]","../img/tt/353tt.jpg","",""
"null","<div style=""font-size:60px;""> </div>","null","fixation","html-keyboard-response","181","703605","0.0-6.0-0.25","3164550","co38206","norming","","","","","","",""
"null","../img/tt/013tt.jpg","null","mooney1","image-keyboard-response","182","706607","0.0-6.0-1.25","3164550","co38206","norming","","","","","","",""
"4090","","","post_mooney1_questions","survey-likert","183","710699","0.0-6.0-2.25","3164550","co38206","norming","","","{""curiosity"":5,""confidence"":5}","[0,1]","../img/tt/013tt.jpg","",""
"5119","","","recognition","survey-text","184","715826","0.0-6.0-3.25","3164550","co38206","norming","","","{""guess"":""kameel""}","","../img/tt/013tt.jpg","",""
"null","../img/gs/013gs.jpg","null","reveal","image-keyboard-response","185","717829","0.0-6.0-4.25","3164550","co38206","norming","","","","","","",""
"null","../img/tt/013tt.jpg","null","mooney2","image-keyboard-response","186","719832","0.0-6.0-5.25","3164550","co38206","norming","","","","","","",""
"8150","","","post_reveal_questions","survey-likert","187","727984","0.0-6.0-6.25","3164550","co38206","norming","","","{""aha"":5}","[0]","../img/tt/013tt.jpg","",""
"null","<div style=""font-size:60px;""> </div>","null","fixation","html-keyboard-response","188","728187","0.0-6.0-0.26","3164550","co38206","norming","","","","","","",""
"null","../img/tt/1353tt.jpg","null","mooney1","image-keyboard-response","189","731190","0.0-6.0-1.26","3164550","co38206","norming","","","","","","",""
"4703","","","post_mooney1_questions","survey-likert","190","735895","0.0-6.0-2.26","3164550","co38206","norming","","","{""curiosity"":6,""confidence"":0}","[0,1]","../img/tt/1353tt.jpg","",""
"609","","","recognition","survey-text","191","736512","0.0-6.0-3.26","3164550","co38206","norming","","","{""guess"":""""}","","../img/tt/1353tt.jpg","",""
"null","../img/gs/1353gs.jpg","null","reveal","image-keyboard-response","192","738515","0.0-6.0-4.26","3164550","co38206","norming","","","","","","",""
"null","../img/tt/1353tt.jpg","null","mooney2","image-keyboard-response","193","740517","0.0-6.0-5.26","3164550","co38206","norming","","","","","","",""
"3384","","","post_reveal_questions","survey-likert","194","743903","0.0-6.0-6.26","3164550","co38206","norming","","","{""aha"":5}","[0]","../img/tt/1353tt.jpg","",""
"null","<div style=""font-size:60px;""> </div>","null","fixation","html-keyboard-response","195","744106","0.0-6.0-0.27","3164550","co38206","norming","","","","","","",""
"null","../img/tt/1046tt.jpg","null","mooney1","image-keyboard-response","196","747109","0.0-6.0-1.27","3164550","co38206","norming","","","","","","",""
"6674","","","post_mooney1_questions","survey-likert","197","753785","0.0-6.0-2.27","3164550","co38206","norming","","","{""curiosity"":5,""confidence"":1}","[0,1]","../img/tt/1046tt.jpg","",""
"3123.0000000001164","","","recognition","survey-text","198","756916","0.0-6.0-3.27","3164550","co38206","norming","","","{""guess"":""pompoen""}","","../img/tt/1046tt.jpg","",""
"null","../img/gs/1046gs.jpg","null","reveal","image-keyboard-response","199","758918","0.0-6.0-4.27","3164550","co38206","norming","","","","","","",""
"null","../img/tt/1046tt.jpg","null","mooney2","image-keyboard-response","200","760921","0.0-6.0-5.27","3164550","co38206","norming","","","","","","",""
"3051","","","post_reveal_questions","survey-likert","201","763973","0.0-6.0-6.27","3164550","co38206","norming","","","{""aha"":5}","[0]","../img/tt/1046tt.jpg","",""
"null","<div style=""font-size:60px;""> </div>","null","fixation","html-keyboard-response","202","764176","0.0-6.0-0.28","3164550","co38206","norming","","","","","","",""
"null","../img/tt/096tt.jpg","null","mooney1","image-keyboard-response","203","767179","0.0-6.0-1.28","3164550","co38206","norming","","","","","","",""
"3724","","","post_mooney1_questions","survey-likert","204","770905","0.0-6.0-2.28","3164550","co38206","norming","","","{""curiosity"":5,""confidence"":2}","[0,1]","../img/tt/096tt.jpg","",""
"6231","","","recognition","survey-text","205","777144","0.0-6.0-3.28","3164550","co38206","norming","","","{""guess"":""nietjesmachine""}","","../img/tt/096tt.jpg","",""
"null","../img/gs/096gs.jpg","null","reveal","image-keyboard-response","206","779146","0.0-6.0-4.28","3164550","co38206","norming","","","","","","",""
"null","../img/tt/096tt.jpg","null","mooney2","image-keyboard-response","207","781148","0.0-6.0-5.28","3164550","co38206","norming","","","","","","",""
"2970","","","post_reveal_questions","survey-likert","208","784120","0.0-6.0-6.28","3164550","co38206","norming","","","{""aha"":5}","[0]","../img/tt/096tt.jpg","",""
"null","<div style=""font-size:60px;""> </div>","null","fixation","html-keyboard-response","209","784324","0.0-6.0-0.29","3164550","co38206","norming","","","","","","",""
"null","../img/tt/1091tt.jpg","null","mooney1","image-keyboard-response","210","787326","0.0-6.0-1.29","3164550","co38206","norming","","","","","","",""
"4527","","","post_mooney1_questions","survey-likert","211","791854","0.0-6.0-2.29","3164550","co38206","norming","","","{""curiosity"":6,""confidence"":0}","[0,1]","../img/tt/1091tt.jpg","",""
"778","","","recognition","survey-text","212","792640","0.0-6.0-3.29","3164550","co38206","norming","","","{""guess"":""""}","","../img/tt/1091tt.jpg","",""
"null","../img/gs/1091gs.jpg","null","reveal","image-keyboard-response","213","794643","0.0-6.0-4.29","3164550","co38206","norming","","","","","","",""
"null","../img/tt/1091tt.jpg","null","mooney2","image-keyboard-response","214","796645","0.0-6.0-5.29","3164550","co38206","norming","","","","","","",""
"2135","","","post_reveal_questions","survey-likert","215","798782","0.0-6.0-6.29","3164550","co38206","norming","","","{""aha"":5}","[0]","../img/tt/1091tt.jpg","",""
"null","<div style=""font-size:60px;""> </div>","null","fixation","html-keyboard-response","216","798985","0.0-6.0-0.30","3164550","co38206","norming","","","","","","",""
"null","../img/tt/060tt.jpg","null","mooney1","image-keyboard-response","217","801987","0.0-6.0-1.30","3164550","co38206","norming","","","","","","",""
"3233.9999999998836","","","post_mooney1_questions","survey-likert","218","805223","0.0-6.0-2.30","3164550","co38206","norming","","","{""curiosity"":6,""confidence"":2}","[0,1]","../img/tt/060tt.jpg","",""
"4085","","","recognition","survey-text","219","809315","0.0-6.0-3.30","3164550","co38206","norming","","","{""guess"":""hamburger""}","","../img/tt/060tt.jpg","",""
"null","../img/gs/060gs.jpg","null","reveal","image-keyboard-response","220","811317","0.0-6.0-4.30","3164550","co38206","norming","","","","","","",""
"null","../img/tt/060tt.jpg","null","mooney2","image-keyboard-response","221","813320","0.0-6.0-5.30","3164550","co38206","norming","","","","","","",""
"4360.999999999884","","","post_reveal_questions","survey-likert","222","817682","0.0-6.0-6.30","3164550","co38206","norming","","","{""aha"":5}","[0]","../img/tt/060tt.jpg","",""
"null","<div style=""font-size:60px;""> </div>","null","fixation","html-keyboard-response","223","817885","0.0-6.0-0.31","3164550","co38206","norming","","","","","","",""
"null","../img/tt/081tt.jpg","null","mooney1","image-keyboard-response","224","820888","0.0-6.0-1.31","3164550","co38206","norming","","","","","","",""
"3008","","","post_mooney1_questions","survey-likert","225","823898","0.0-6.0-2.31","3164550","co38206","norming","","","{""curiosity"":6,""confidence"":1}","[0,1]","../img/tt/081tt.jpg","",""
"4598","","","recognition","survey-text","226","828503","0.0-6.0-3.31","3164550","co38206","norming","","","{""guess"":""schildpad""}","","../img/tt/081tt.jpg","",""
"null","../img/gs/081gs.jpg","null","reveal","image-keyboard-response","227","830505","0.0-6.0-4.31","3164550","co38206","norming","","","","","","",""
"null","../img/tt/081tt.jpg","null","mooney2","image-keyboard-response","228","832508","0.0-6.0-5.31","3164550","co38206","norming","","","","","","",""
"2042","","","post_reveal_questions","survey-likert","229","834550","0.0-6.0-6.31","3164550","co38206","norming","","","{""aha"":5}","[0]","../img/tt/081tt.jpg","",""
"null","<div style=""font-size:60px;""> </div>","null","fixation","html-keyboard-response","230","834753","0.0-6.0-0.32","3164550","co38206","norming","","","","","","",""
"null","../img/tt/1116tt.jpg","null","mooney1","image-keyboard-response","231","837756","0.0-6.0-1.32","3164550","co38206","norming","","","","","","",""
"5017","","","post_mooney1_questions","survey-likert","232","842775","0.0-6.0-2.32","3164550","co38206","norming","","","{""curiosity"":6,""confidence"":1}","[0,1]","../img/tt/1116tt.jpg","",""
"3204","","","recognition","survey-text","233","845987","0.0-6.0-3.32","3164550","co38206","norming","","","{""guess"":""auto's""}","","../img/tt/1116tt.jpg","",""
"null","../img/gs/1116gs.jpg","null","reveal","image-keyboard-response","234","847990","0.0-6.0-4.32","3164550","co38206","norming","","","","","","",""
"null","../img/tt/1116tt.jpg","null","mooney2","image-keyboard-response","235","849992","0.0-6.0-5.32","3164550","co38206","norming","","","","","","",""
"7025.000000000116","","","post_reveal_questions","survey-likert","236","857019","0.0-6.0-6.32","3164550","co38206","norming","","","{""aha"":5}","[0]","../img/tt/1116tt.jpg","",""
"null","<div style=""font-size:60px;""> </div>","null","fixation","html-keyboard-response","237","857223","0.0-6.0-0.33","3164550","co38206","norming","","","","","","",""
"null","../img/tt/1226tt.jpg","null","mooney1","image-keyboard-response","238","860226","0.0-6.0-1.33","3164550","co38206","norming","","","","","","",""
"3305","","","post_mooney1_questions","survey-likert","239","863533","0.0-6.0-2.33","3164550","co38206","norming","","","{""curiosity"":6,""confidence"":1}","[0,1]","../img/tt/1226tt.jpg","",""
"2481","","","recognition","survey-text","240","866022","0.0-6.0-3.33","3164550","co38206","norming","","","{""guess"":""vogels""}","","../img/tt/1226tt.jpg","",""
"null","../img/gs/1226gs.jpg","null","reveal","image-keyboard-response","241","868023","0.0-6.0-4.33","3164550","co38206","norming","","","","","","",""
"null","../img/tt/1226tt.jpg","null","mooney2","image-keyboard-response","242","870026","0.0-6.0-5.33","3164550","co38206","norming","","","","","","",""
"2309","","","post_reveal_questions","survey-likert","243","872337","0.0-6.0-6.33","3164550","co38206","norming","","","{""aha"":5}","[0]","../img/tt/1226tt.jpg","",""
"null","<div style=""font-size:60px;""> </div>","null","fixation","html-keyboard-response","244","872541","0.0-6.0-0.34","3164550","co38206","norming","","","","","","",""
"null","../img/tt/111tt.jpg","null","mooney1","image-keyboard-response","245","875543","0.0-6.0-1.34","3164550","co38206","norming","","","","","","",""
"4373","","","post_mooney1_questions","survey-likert","246","879919","0.0-6.0-2.34","3164550","co38206","norming","","","{""curiosity"":5,""confidence"":5}","[0,1]","../img/tt/111tt.jpg","",""
"2625","","","recognition","survey-text","247","882552","0.0-6.0-3.34","3164550","co38206","norming","","","{""guess"":""douche""}","","../img/tt/111tt.jpg","",""
"null","../img/gs/111gs.jpg","null","reveal","image-keyboard-response","248","884555","0.0-6.0-4.34","3164550","co38206","norming","","","","","","",""
"null","../img/tt/111tt.jpg","null","mooney2","image-keyboard-response","249","886557","0.0-6.0-5.34","3164550","co38206","norming","","","","","","",""
"2961","","","post_reveal_questions","survey-likert","250","889519","0.0-6.0-6.34","3164550","co38206","norming","","","{""aha"":6}","[0]","../img/tt/111tt.jpg","",""
"null","<div style=""font-size:60px;""> </div>","null","fixation","html-keyboard-response","251","889723","0.0-6.0-0.35","3164550","co38206","norming","","","","","","",""
"null","../img/tt/1362tt.jpg","null","mooney1","image-keyboard-response","252","892725","0.0-6.0-1.35","3164550","co38206","norming","","","","","","",""
"32907","","","post_mooney1_questions","survey-likert","253","925635","0.0-6.0-2.35","3164550","co38206","norming","","","{""curiosity"":5,""confidence"":1}","[0,1]","../img/tt/1362tt.jpg","",""
"4292","","","recognition","survey-text","254","929934","0.0-6.0-3.35","3164550","co38206","norming","","","{""guess"":""""}","","../img/tt/1362tt.jpg","",""
"null","../img/gs/1362gs.jpg","null","reveal","image-keyboard-response","255","931937","0.0-6.0-4.35","3164550","co38206","norming","","","","","","",""
"null","../img/tt/1362tt.jpg","null","mooney2","image-keyboard-response","256","933939","0.0-6.0-5.35","3164550","co38206","norming","","","","","","",""
"5668","","","post_reveal_questions","survey-likert","257","939608","0.0-6.0-6.35","3164550","co38206","norming","","","{""aha"":4}","[0]","../img/tt/1362tt.jpg","",""
"null","<div style=""font-size:60px;""> </div>","null","fixation","html-keyboard-response","258","939813","0.0-6.0-0.36","3164550","co38206","norming","","","","","","",""
"null","../img/tt/1161tt.jpg","null","mooney1","image-keyboard-response","259","942815","0.0-6.0-1.36","3164550","co38206","norming","","","","","","",""
"3921.0000000001164","","","post_mooney1_questions","survey-likert","260","946738","0.0-6.0-2.36","3164550","co38206","norming","","","{""curiosity"":5,""confidence"":4}","[0,1]","../img/tt/1161tt.jpg","",""
"4946","","","recognition","survey-text","261","951690","0.0-6.0-3.36","3164550","co38206","norming","","","{""guess"":""vogelverschrikker""}","","../img/tt/1161tt.jpg","",""
"null","../img/gs/1161gs.jpg","null","reveal","image-keyboard-response","262","953692","0.0-6.0-4.36","3164550","co38206","norming","","","","","","",""
"null","../img/tt/1161tt.jpg","null","mooney2","image-keyboard-response","263","955694","0.0-6.0-5.36","3164550","co38206","norming","","","","","","",""
"3038.9999999998836","","","post_reveal_questions","survey-likert","264","958734","0.0-6.0-6.36","3164550","co38206","norming","","","{""aha"":4}","[0]","../img/tt/1161tt.jpg","",""
"null","<div style=""font-size:60px;""> </div>","null","fixation","html-keyboard-response","265","958937","0.0-6.0-0.37","3164550","co38206","norming","","","","","","",""
"null","../img/tt/1156tt.jpg","null","mooney1","image-keyboard-response","266","961940","0.0-6.0-1.37","3164550","co38206","norming","","","","","","",""
"3712","","","post_mooney1_questions","survey-likert","267","965653","0.0-6.0-2.37","3164550","co38206","norming","","","{""curiosity"":6,""confidence"":1}","[0,1]","../img/tt/1156tt.jpg","",""
"7125","","","recognition","survey-text","268","972785","0.0-6.0-3.37","3164550","co38206","norming","","","{""guess"":""vliegtuig ""}","","../img/tt/1156tt.jpg","",""
"null","../img/gs/1156gs.jpg","null","reveal","image-keyboard-response","269","974787","0.0-6.0-4.37","3164550","co38206","norming","","","","","","",""
"null","../img/tt/1156tt.jpg","null","mooney2","image-keyboard-response","270","976789","0.0-6.0-5.37","3164550","co38206","norming","","","","","","",""
"3748","","","post_reveal_questions","survey-likert","271","980538","0.0-6.0-6.37","3164550","co38206","norming","","","{""aha"":5}","[0]","../img/tt/1156tt.jpg","",""
"null","<div style=""font-size:60px;""> </div>","null","fixation","html-keyboard-response","272","980742","0.0-6.0-0.38","3164550","co38206","norming","","","","","","",""
"null","../img/tt/306tt.jpg","null","mooney1","image-keyboard-response","273","983744","0.0-6.0-1.38","3164550","co38206","norming","","","","","","",""
"4019","","","post_mooney1_questions","survey-likert","274","987765","0.0-6.0-2.38","3164550","co38206","norming","","","{""curiosity"":6,""confidence"":0}","[0,1]","../img/tt/306tt.jpg","",""
"835","","","recognition","survey-text","275","988608","0.0-6.0-3.38","3164550","co38206","norming","","","{""guess"":""""}","","../img/tt/306tt.jpg","",""
"null","../img/gs/306gs.jpg","null","reveal","image-keyboard-response","276","990610","0.0-6.0-4.38","3164550","co38206","norming","","","","","","",""
"null","../img/tt/306tt.jpg","null","mooney2","image-keyboard-response","277","992611","0.0-6.0-5.38","3164550","co38206","norming","","","","","","",""
"2506.0000000001164","","","post_reveal_questions","survey-likert","278","995119","0.0-6.0-6.38","3164550","co38206","norming","","","{""aha"":1}","[0]","../img/tt/306tt.jpg","",""
"null","<div style=""font-size:60px;""> </div>","null","fixation","html-keyboard-response","279","995323","0.0-6.0-0.39","3164550","co38206","norming","","","","","","",""
"null","../img/tt/1128tt.jpg","null","mooney1","image-keyboard-response","280","998326","0.0-6.0-1.39","3164550","co38206","norming","","","","","","",""
"3810","","","post_mooney1_questions","survey-likert","281","1002138","0.0-6.0-2.39","3164550","co38206","norming","","","{""curiosity"":5,""confidence"":1}","[0,1]","../img/tt/1128tt.jpg","",""
"5424","","","recognition","survey-text","282","1007571","0.0-6.0-3.39","3164550","co38206","norming","","","{""guess"":""wasrek""}","","../img/tt/1128tt.jpg","",""
"null","../img/gs/1128gs.jpg","null","reveal","image-keyboard-response","283","1009573","0.0-6.0-4.39","3164550","co38206","norming","","","","","","",""
"null","../img/tt/1128tt.jpg","null","mooney2","image-keyboard-response","284","1011575","0.0-6.0-5.39","3164550","co38206","norming","","","","","","",""
"2106.9999999998836","","","post_reveal_questions","survey-likert","285","1013684","0.0-6.0-6.39","3164550","co38206","norming","","","{""aha"":5}","[0]","../img/tt/1128tt.jpg","",""
"null","<div style=""font-size:60px;""> </div>","null","fixation","html-keyboard-response","286","1013886","0.0-6.0-0.40","3164550","co38206","norming","","","","","","",""
"null","../img/tt/1069tt.jpg","null","mooney1","image-keyboard-response","287","1016889","0.0-6.0-1.40","3164550","co38206","norming","","","","","","",""
"3406.0000000001164","","","post_mooney1_questions","survey-likert","288","1020297","0.0-6.0-2.40","3164550","co38206","norming","","","{""curiosity"":5,""confidence"":4}","[0,1]","../img/tt/1069tt.jpg","",""
"2070.9999999998836","","","recognition","survey-text","289","1022376","0.0-6.0-3.40","3164550","co38206","norming","","","{""guess"":""geit""}","","../img/tt/1069tt.jpg","",""
"null","../img/gs/1069gs.jpg","null","reveal","image-keyboard-response","290","1024379","0.0-6.0-4.40","3164550","co38206","norming","","","","","","",""
"null","../img/tt/1069tt.jpg","null","mooney2","image-keyboard-response","291","1026381","0.0-6.0-5.40","3164550","co38206","norming","","","","","","",""
"3061.9999999998836","","","post_reveal_questions","survey-likert","292","1029446","0.0-6.0-6.40","3164550","co38206","norming","","","{""aha"":5}","[0]","../img/tt/1069tt.jpg","",""
"null","<div style=""font-size:60px;""> </div>","null","fixation","html-keyboard-response","293","1029649","0.0-6.0-0.41","3164550","co38206","norming","","","","","","",""
"null","../img/tt/080tt.jpg","null","mooney1","image-keyboard-response","294","1032651","0.0-6.0-1.41","3164550","co38206","norming","","","","","","",""
"6753.999999999884","","","post_mooney1_questions","survey-likert","295","1039408","0.0-6.0-2.41","3164550","co38206","norming","","","{""curiosity"":6,""confidence"":1}","[0,1]","../img/tt/080tt.jpg","",""
"14032","","","recognition","survey-text","296","1053448","0.0-6.0-3.41","3164550","co38206","norming","","","{""guess"":""vleermuizen""}","","../img/tt/080tt.jpg","",""
"null","../img/gs/080gs.jpg","null","reveal","image-keyboard-response","297","1055450","0.0-6.0-4.41","3164550","co38206","norming","","","","","","",""
"null","../img/tt/080tt.jpg","null","mooney2","image-keyboard-response","298","1057453","0.0-6.0-5.41","3164550","co38206","norming","","","","","","",""
"2457","","","post_reveal_questions","survey-likert","299","1059912","0.0-6.0-6.41","3164550","co38206","norming","","","{""aha"":5}","[0]","../img/tt/080tt.jpg","",""
"null","<div style=""font-size:60px;""> </div>","null","fixation","html-keyboard-response","300","1060115","0.0-6.0-0.42","3164550","co38206","norming","","","","","","",""
"null","../img/tt/008tt.jpg","null","mooney1","image-keyboard-response","301","1063117","0.0-6.0-1.42","3164550","co38206","norming","","","","","","",""
"6058","","","post_mooney1_questions","survey-likert","302","1069177","0.0-6.0-2.42","3164550","co38206","norming","","","{""curiosity"":5,""confidence"":2}","[0,1]","../img/tt/008tt.jpg","",""
"10335","","","recognition","survey-text","303","1079520","0.0-6.0-3.42","3164550","co38206","norming","","","{""guess"":""volleybal""}","","../img/tt/008tt.jpg","",""
"null","../img/gs/008gs.jpg","null","reveal","image-keyboard-response","304","1081522","0.0-6.0-4.42","3164550","co38206","norming","","","","","","",""
"null","../img/tt/008tt.jpg","null","mooney2","image-keyboard-response","305","1083524","0.0-6.0-5.42","3164550","co38206","norming","","","","","","",""
"5578","","","post_reveal_questions","survey-likert","306","1089104","0.0-6.0-6.42","3164550","co38206","norming","","","{""aha"":5}","[0]","../img/tt/008tt.jpg","",""
"null","<div style=""font-size:60px;""> </div>","null","fixation","html-keyboard-response","307","1089307","0.0-6.0-0.43","3164550","co38206","norming","","","","","","",""
"null","../img/tt/442tt.jpg","null","mooney1","image-keyboard-response","308","1092309","0.0-6.0-1.43","3164550","co38206","norming","","","","","","",""
"4815","","","post_mooney1_questions","survey-likert","309","1097126","0.0-6.0-2.43","3164550","co38206","norming","","","{""curiosity"":6,""confidence"":0}","[0,1]","../img/tt/442tt.jpg","",""
"746","","","recognition","survey-text","310","1097882","0.0-6.0-3.43","3164550","co38206","norming","","","{""guess"":""""}","","../img/tt/442tt.jpg","",""
"null","../img/gs/442gs.jpg","null","reveal","image-keyboard-response","311","1099884","0.0-6.0-4.43","3164550","co38206","norming","","","","","","",""
"null","../img/tt/442tt.jpg","null","mooney2","image-keyboard-response","312","1101886","0.0-6.0-5.43","3164550","co38206","norming","","","","","","",""
"2877","","","post_reveal_questions","survey-likert","313","1104765","0.0-6.0-6.43","3164550","co38206","norming","","","{""aha"":5}","[0]","../img/tt/442tt.jpg","",""
"null","<div style=""font-size:60px;""> </div>","null","fixation","html-keyboard-response","314","1104968","0.0-6.0-0.44","3164550","co38206","norming","","","","","","",""
"null","../img/tt/567tt.jpg","null","mooney1","image-keyboard-response","315","1107970","0.0-6.0-1.44","3164550","co38206","norming","","","","","","",""
"12836.999999999767","","","post_mooney1_questions","survey-likert","316","1120809","0.0-6.0-2.44","3164550","co38206","norming","","","{""curiosity"":6,""confidence"":0}","[0,1]","../img/tt/567tt.jpg","",""
"1349","","","recognition","survey-text","317","1122166","0.0-6.0-3.44","3164550","co38206","norming","","","{""guess"":""""}","","../img/tt/567tt.jpg","",""
"null","../img/gs/567gs.jpg","null","reveal","image-keyboard-response","318","1124168","0.0-6.0-4.44","3164550","co38206","norming","","","","","","",""
"null","../img/tt/567tt.jpg","null","mooney2","image-keyboard-response","319","1126171","0.0-6.0-5.44","3164550","co38206","norming","","","","","","",""
"3325","","","post_reveal_questions","survey-likert","320","1129497","0.0-6.0-6.44","3164550","co38206","norming","","","{""aha"":5}","[0]","../img/tt/567tt.jpg","",""
"null","<div style=""font-size:60px;""> </div>","null","fixation","html-keyboard-response","321","1129700","0.0-6.0-0.45","3164550","co38206","norming","","","","","","",""
"null","../img/tt/1148tt.jpg","null","mooney1","image-keyboard-response","322","1132702","0.0-6.0-1.45","3164550","co38206","norming","","","","","","",""
"10256","","","post_mooney1_questions","survey-likert","323","1142961","0.0-6.0-2.45","3164550","co38206","norming","","","{""curiosity"":6,""confidence"":1}","[0,1]","../img/tt/1148tt.jpg","",""
"9022","","","recognition","survey-text","324","1151991","0.0-6.0-3.45","3164550","co38206","norming","","","{""guess"":""meer""}","","../img/tt/1148tt.jpg","",""
"null","../img/gs/1148gs.jpg","null","reveal","image-keyboard-response","325","1153993","0.0-6.0-4.45","3164550","co38206","norming","","","","","","",""
"null","../img/tt/1148tt.jpg","null","mooney2","image-keyboard-response","326","1155996","0.0-6.0-5.45","3164550","co38206","norming","","","","","","",""
"3221","","","post_reveal_questions","survey-likert","327","1159218","0.0-6.0-6.45","3164550","co38206","norming","","","{""aha"":2}","[0]","../img/tt/1148tt.jpg","",""
"null","<div style=""font-size:60px;""> </div>","null","fixation","html-keyboard-response","328","1159421","0.0-6.0-0.46","3164550","co38206","norming","","","","","","",""
"null","../img/tt/1072tt.jpg","null","mooney1","image-keyboard-response","329","1162423","0.0-6.0-1.46","3164550","co38206","norming","","","","","","",""
"15654","","","post_mooney1_questions","survey-likert","330","1178080","0.0-6.0-2.46","3164550","co38206","norming","","","{""curiosity"":4,""confidence"":1}","[0,1]","../img/tt/1072tt.jpg","",""
"9438","","","recognition","survey-text","331","1187526","0.0-6.0-3.46","3164550","co38206","norming","","","{""guess"":""autofile""}","","../img/tt/1072tt.jpg","",""
"null","../img/gs/1072gs.jpg","null","reveal","image-keyboard-response","332","1189528","0.0-6.0-4.46","3164550","co38206","norming","","","","","","",""
"null","../img/tt/1072tt.jpg","null","mooney2","image-keyboard-response","333","1191531","0.0-6.0-5.46","3164550","co38206","norming","","","","","","",""
"5393","","","post_reveal_questions","survey-likert","334","1196925","0.0-6.0-6.46","3164550","co38206","norming","","","{""aha"":1}","[0]","../img/tt/1072tt.jpg","",""
"null","<div style=""font-size:60px;""> </div>","null","fixation","html-keyboard-response","335","1197128","0.0-6.0-0.47","3164550","co38206","norming","","","","","","",""
"null","../img/tt/1012tt.jpg","null","mooney1","image-keyboard-response","336","1200130","0.0-6.0-1.47","3164550","co38206","norming","","","","","","",""
"4029","","","post_mooney1_questions","survey-likert","337","1204161","0.0-6.0-2.47","3164550","co38206","norming","","","{""curiosity"":5,""confidence"":1}","[0,1]","../img/tt/1012tt.jpg","",""
"1919","","","recognition","survey-text","338","1206088","0.0-6.0-3.47","3164550","co38206","norming","","","{""guess"":""vuur""}","","../img/tt/1012tt.jpg","",""
"null","../img/gs/1012gs.jpg","null","reveal","image-keyboard-response","339","1208091","0.0-6.0-4.47","3164550","co38206","norming","","","","","","",""
"null","../img/tt/1012tt.jpg","null","mooney2","image-keyboard-response","340","1210093","0.0-6.0-5.47","3164550","co38206","norming","","","","","","",""
"2875","","","post_reveal_questions","survey-likert","341","1212969","0.0-6.0-6.47","3164550","co38206","norming","","","{""aha"":5}","[0]","../img/tt/1012tt.jpg","",""
"null","<div style=""font-size:60px;""> </div>","null","fixation","html-keyboard-response","342","1213173","0.0-6.0-0.48","3164550","co38206","norming","","","","","","",""
"null","../img/tt/559tt.jpg","null","mooney1","image-keyboard-response","343","1216175","0.0-6.0-1.48","3164550","co38206","norming","","","","","","",""
"4026","","","post_mooney1_questions","survey-likert","344","1220203","0.0-6.0-2.48","3164550","co38206","norming","","","{""curiosity"":6,""confidence"":0}","[0,1]","../img/tt/559tt.jpg","",""
"680","","","recognition","survey-text","345","1220888","0.0-6.0-3.48","3164550","co38206","norming","","","{""guess"":""""}","","../img/tt/559tt.jpg","",""
"null","../img/gs/559gs.jpg","null","reveal","image-keyboard-response","346","1222891","0.0-6.0-4.48","3164550","co38206","norming","","","","","","",""
"null","../img/tt/559tt.jpg","null","mooney2","image-keyboard-response","347","1224893","0.0-6.0-5.48","3164550","co38206","norming","","","","","","",""
"4365","","","post_reveal_questions","survey-likert","348","1229260","0.0-6.0-6.48","3164550","co38206","norming","","","{""aha"":5}","[0]","../img/tt/559tt.jpg","",""
"null","<div style=""font-size:60px;""> </div>","null","fixation","html-keyboard-response","349","1229463","0.0-6.0-0.49","3164550","co38206","norming","","","","","","",""
"null","../img/tt/1279tt.jpg","null","mooney1","image-keyboard-response","350","1232466","0.0-6.0-1.49","3164550","co38206","norming","","","","","","",""
"6038","","","post_mooney1_questions","survey-likert","351","1238507","0.0-6.0-2.49","3164550","co38206","norming","","","{""curiosity"":6,""confidence"":0}","[0,1]","../img/tt/1279tt.jpg","",""
"1334","","","recognition","survey-text","352","1239848","0.0-6.0-3.49","3164550","co38206","norming","","","{""guess"":""""}","","../img/tt/1279tt.jpg","",""
"null","../img/gs/1279gs.jpg","null","reveal","image-keyboard-response","353","1241850","0.0-6.0-4.49","3164550","co38206","norming","","","","","","",""
"null","../img/tt/1279tt.jpg","null","mooney2","image-keyboard-response","354","1243853","0.0-6.0-5.49","3164550","co38206","norming","","","","","","",""
"2360","","","post_reveal_questions","survey-likert","355","1246214","0.0-6.0-6.49","3164550","co38206","norming","","","{""aha"":5}","[0]","../img/tt/1279tt.jpg","",""
"null","<div style=""font-size:60px;""> </div>","null","fixation","html-keyboard-response","356","1246418","0.0-6.0-0.50","3164550","co38206","norming","","","","","","",""
"null","../img/tt/1087tt.jpg","null","mooney1","image-keyboard-response","357","1249420","0.0-6.0-1.50","3164550","co38206","norming","","","","","","",""
"4446","","","post_mooney1_questions","survey-likert","358","1253868","0.0-6.0-2.50","3164550","co38206","norming","","","{""curiosity"":6,""confidence"":5}","[0,1]","../img/tt/1087tt.jpg","",""
"2760","","","recognition","survey-text","359","1256635","0.0-6.0-3.50","3164550","co38206","norming","","","{""guess"":""honden""}","","../img/tt/1087tt.jpg","",""
"null","../img/gs/1087gs.jpg","null","reveal","image-keyboard-response","360","1258637","0.0-6.0-4.50","3164550","co38206","norming","","","","","","",""
"null","../img/tt/1087tt.jpg","null","mooney2","image-keyboard-response","361","1260640","0.0-6.0-5.50","3164550","co38206","norming","","","","","","",""
"4322","","","post_reveal_questions","survey-likert","362","1264963","0.0-6.0-6.50","3164550","co38206","norming","","","{""aha"":6}","[0]","../img/tt/1087tt.jpg","",""
"null","<div style=""font-size:60px;""> </div>","null","fixation","html-keyboard-response","363","1265166","0.0-6.0-0.51","3164550","co38206","norming","","","","","","",""
"null","../img/tt/416tt.jpg","null","mooney1","image-keyboard-response","364","1268169","0.0-6.0-1.51","3164550","co38206","norming","","","","","","",""
"3986","","","post_mooney1_questions","survey-likert","365","1272157","0.0-6.0-2.51","3164550","co38206","norming","","","{""curiosity"":3,""confidence"":6}","[0,1]","../img/tt/416tt.jpg","",""
"4278","","","recognition","survey-text","366","1276443","0.0-6.0-3.51","3164550","co38206","norming","","","{""guess"":""struisvogels""}","","../img/tt/416tt.jpg","",""
"null","../img/gs/416gs.jpg","null","reveal","image-keyboard-response","367","1278445","0.0-6.0-4.51","3164550","co38206","norming","","","","","","",""
"null","../img/tt/416tt.jpg","null","mooney2","image-keyboard-response","368","1280447","0.0-6.0-5.51","3164550","co38206","norming","","","","","","",""
"3804","","","post_reveal_questions","survey-likert","369","1284253","0.0-6.0-6.51","3164550","co38206","norming","","","{""aha"":1}","[0]","../img/tt/416tt.jpg","",""
"null","<div style=""font-size:60px;""> </div>","null","fixation","html-keyboard-response","370","1284456","0.0-6.0-0.52","3164550","co38206","norming","","","","","","",""
"null","../img/tt/279tt.jpg","null","mooney1","image-keyboard-response","371","1287458","0.0-6.0-1.52","3164550","co38206","norming","","","","","","",""
"4180.000000000233","","","post_mooney1_questions","survey-likert","372","1291640","0.0-6.0-2.52","3164550","co38206","norming","","","{""curiosity"":2,""confidence"":6}","[0,1]","../img/tt/279tt.jpg","",""
"2208","","","recognition","survey-text","373","1293855","0.0-6.0-3.52","3164550","co38206","norming","","","{""guess"":""koala""}","","../img/tt/279tt.jpg","",""
"null","../img/gs/279gs.jpg","null","reveal","image-keyboard-response","374","1295858","0.0-6.0-4.52","3164550","co38206","norming","","","","","","",""
"null","../img/tt/279tt.jpg","null","mooney2","image-keyboard-response","375","1297860","0.0-6.0-5.52","3164550","co38206","norming","","","","","","",""
"3907","","","post_reveal_questions","survey-likert","376","1301770","0.0-6.0-6.52","3164550","co38206","norming","","","{""aha"":3}","[0]","../img/tt/279tt.jpg","",""
"null","<div style=""font-size:60px;""> </div>","null","fixation","html-keyboard-response","377","1301973","0.0-6.0-0.53","3164550","co38206","norming","","","","","","",""
"null","../img/tt/438tt.jpg","null","mooney1","image-keyboard-response","378","1304975","0.0-6.0-1.53","3164550","co38206","norming","","","","","","",""
"4533.999999999767","","","post_mooney1_questions","survey-likert","379","1309511","0.0-6.0-2.53","3164550","co38206","norming","","","{""curiosity"":6,""confidence"":2}","[0,1]","../img/tt/438tt.jpg","",""
"1397","","","recognition","survey-text","380","1310915","0.0-6.0-3.53","3164550","co38206","norming","","","{""guess"":""vis""}","","../img/tt/438tt.jpg","",""
"null","../img/gs/438gs.jpg","null","reveal","image-keyboard-response","381","1312917","0.0-6.0-4.53","3164550","co38206","norming","","","","","","",""
"null","../img/tt/438tt.jpg","null","mooney2","image-keyboard-response","382","1314920","0.0-6.0-5.53","3164550","co38206","norming","","","","","","",""
"3840","","","post_reveal_questions","survey-likert","383","1318762","0.0-6.0-6.53","3164550","co38206","norming","","","{""aha"":6}","[0]","../img/tt/438tt.jpg","",""
"null","<div style=""font-size:60px;""> </div>","null","fixation","html-keyboard-response","384","1318964","0.0-6.0-0.54","3164550","co38206","norming","","","","","","",""
"null","../img/tt/049tt.jpg","null","mooney1","image-keyboard-response","385","1321966","0.0-6.0-1.54","3164550","co38206","norming","","","","","","",""
"4251.999999999767","","","post_mooney1_questions","survey-likert","386","1326220","0.0-6.0-2.54","3164550","co38206","norming","","","{""curiosity"":6,""confidence"":1}","[0,1]","../img/tt/049tt.jpg","",""
"3340.999999999767","","","recognition","survey-text","387","1329569","0.0-6.0-3.54","3164550","co38206","norming","","","{""guess"":""krokodil""}","","../img/tt/049tt.jpg","",""
"null","../img/gs/049gs.jpg","null","reveal","image-keyboard-response","388","1331571","0.0-6.0-4.54","3164550","co38206","norming","","","","","","",""
"null","../img/tt/049tt.jpg","null","mooney2","image-keyboard-response","389","1333573","0.0-6.0-5.54","3164550","co38206","norming","","","","","","",""
"3477","","","post_reveal_questions","survey-likert","390","1337052","0.0-6.0-6.54","3164550","co38206","norming","","","{""aha"":6}","[0]","../img/tt/049tt.jpg","",""
"null","<div style=""font-size:60px;""> </div>","null","fixation","html-keyboard-response","391","1337256","0.0-6.0-0.55","3164550","co38206","norming","","","","","","",""
"null","../img/tt/056tt.jpg","null","mooney1","image-keyboard-response","392","1340258","0.0-6.0-1.55","3164550","co38206","norming","","","","","","",""
"6925","","","post_mooney1_questions","survey-likert","393","1347185","0.0-6.0-2.55","3164550","co38206","norming","","","{""curiosity"":6,""confidence"":0}","[0,1]","../img/tt/056tt.jpg","",""
"884","","","recognition","survey-text","394","1348076","0.0-6.0-3.55","3164550","co38206","norming","","","{""guess"":""""}","","../img/tt/056tt.jpg","",""
"null","../img/gs/056gs.jpg","null","reveal","image-keyboard-response","395","1350079","0.0-6.0-4.55","3164550","co38206","norming","","","","","","",""
"null","../img/tt/056tt.jpg","null","mooney2","image-keyboard-response","396","1352081","0.0-6.0-5.55","3164550","co38206","norming","","","","","","",""
"3250","","","post_reveal_questions","survey-likert","397","1355333","0.0-6.0-6.55","3164550","co38206","norming","","","{""aha"":5}","[0]","../img/tt/056tt.jpg","",""
"null","<div style=""font-size:60px;""> </div>","null","fixation","html-keyboard-response","398","1355536","0.0-6.0-0.56","3164550","co38206","norming","","","","","","",""
"null","../img/tt/1255tt.jpg","null","mooney1","image-keyboard-response","399","1358539","0.0-6.0-1.56","3164550","co38206","norming","","","","","","",""
"4019","","","post_mooney1_questions","survey-likert","400","1362560","0.0-6.0-2.56","3164550","co38206","norming","","","{""curiosity"":5,""confidence"":1}","[0,1]","../img/tt/1255tt.jpg","",""
"3981","","","recognition","survey-text","401","1366548","0.0-6.0-3.56","3164550","co38206","norming","","","{""guess"":""struisvogels""}","","../img/tt/1255tt.jpg","",""
"null","../img/gs/1255gs.jpg","null","reveal","image-keyboard-response","402","1368550","0.0-6.0-4.56","3164550","co38206","norming","","","","","","",""
"null","../img/tt/1255tt.jpg","null","mooney2","image-keyboard-response","403","1370553","0.0-6.0-5.56","3164550","co38206","norming","","","","","","",""
"3000","","","post_reveal_questions","survey-likert","404","1373555","0.0-6.0-6.56","3164550","co38206","norming","","","{""aha"":5}","[0]","../img/tt/1255tt.jpg","",""
"null","<div style=""font-size:60px;""> </div>","null","fixation","html-keyboard-response","405","1373757","0.0-6.0-0.57","3164550","co38206","norming","","","","","","",""
"null","../img/tt/123tt.jpg","null","mooney1","image-keyboard-response","406","1376760","0.0-6.0-1.57","3164550","co38206","norming","","","","","","",""
"3097","","","post_mooney1_questions","survey-likert","407","1379859","0.0-6.0-2.57","3164550","co38206","norming","","","{""curiosity"":5,""confidence"":6}","[0,1]","../img/tt/123tt.jpg","",""
"3308","","","recognition","survey-text","408","1383175","0.0-6.0-3.57","3164550","co38206","norming","","","{""guess"":""boekentas""}","","../img/tt/123tt.jpg","",""
"null","../img/gs/123gs.jpg","null","reveal","image-keyboard-response","409","1385177","0.0-6.0-4.57","3164550","co38206","norming","","","","","","",""
"null","../img/tt/123tt.jpg","null","mooney2","image-keyboard-response","410","1387179","0.0-6.0-5.57","3164550","co38206","norming","","","","","","",""
"3481.999999999767","","","post_reveal_questions","survey-likert","411","1390663","0.0-6.0-6.57","3164550","co38206","norming","","","{""aha"":3}","[0]","../img/tt/123tt.jpg","",""
"null","<div style=""font-size:60px;""> </div>","null","fixation","html-keyboard-response","412","1390866","0.0-6.0-0.58","3164550","co38206","norming","","","","","","",""
"null","../img/tt/378tt.jpg","null","mooney1","image-keyboard-response","413","1393869","0.0-6.0-1.58","3164550","co38206","norming","","","","","","",""
"12967","","","post_mooney1_questions","survey-likert","414","1406838","0.0-6.0-2.58","3164550","co38206","norming","","","{""curiosity"":5,""confidence"":1}","[0,1]","../img/tt/378tt.jpg","",""
"5490.999999999767","","","recognition","survey-text","415","1412336","0.0-6.0-3.58","3164550","co38206","norming","","","{""guess"":""viervoeter""}","","../img/tt/378tt.jpg","",""
"null","../img/gs/378gs.jpg","null","reveal","image-keyboard-response","416","1414338","0.0-6.0-4.58","3164550","co38206","norming","","","","","","",""
"null","../img/tt/378tt.jpg","null","mooney2","image-keyboard-response","417","1416341","0.0-6.0-5.58","3164550","co38206","norming","","","","","","",""
"4054","","","post_reveal_questions","survey-likert","418","1420397","0.0-6.0-6.58","3164550","co38206","norming","","","{""aha"":5}","[0]","../img/tt/378tt.jpg","",""
"null","<div style=""font-size:60px;""> </div>","null","fixation","html-keyboard-response","419","1420600","0.0-6.0-0.59","3164550","co38206","norming","","","","","","",""
"null","../img/tt/1262tt.jpg","null","mooney1","image-keyboard-response","420","1423603","0.0-6.0-1.59","3164550","co38206","norming","","","","","","",""
"5585.999999999767","","","post_mooney1_questions","survey-likert","421","1429191","0.0-6.0-2.59","3164550","co38206","norming","","","{""curiosity"":5,""confidence"":3}","[0,1]","../img/tt/1262tt.jpg","",""
"4247","","","recognition","survey-text","422","1433446","0.0-6.0-3.59","3164550","co38206","norming","","","{""guess"":""vogel""}","","../img/tt/1262tt.jpg","",""
"null","../img/gs/1262gs.jpg","null","reveal","image-keyboard-response","423","1435448","0.0-6.0-4.59","3164550","co38206","norming","","","","","","",""
"null","../img/tt/1262tt.jpg","null","mooney2","image-keyboard-response","424","1437450","0.0-6.0-5.59","3164550","co38206","norming","","","","","","",""
"2779.999999999767","","","post_reveal_questions","survey-likert","425","1440232","0.0-6.0-6.59","3164550","co38206","norming","","","{""aha"":5}","[0]","../img/tt/1262tt.jpg","",""
"null","<div style=""font-size:60px;""> </div>","null","fixation","html-keyboard-response","426","1440435","0.0-6.0-0.60","3164550","co38206","norming","","","","","","",""
"null","../img/tt/001tt.jpg","null","mooney1","image-keyboard-response","427","1443438","0.0-6.0-1.60","3164550","co38206","norming","","","","","","",""
"4609.000000000233","","","post_mooney1_questions","survey-likert","428","1448048","0.0-6.0-2.60","3164550","co38206","norming","","","{""curiosity"":5,""confidence"":3}","[0,1]","../img/tt/001tt.jpg","",""
"2577","","","recognition","survey-text","429","1450634","0.0-6.0-3.60","3164550","co38206","norming","","","{""guess"":""wolf""}","","../img/tt/001tt.jpg","",""
"null","../img/gs/001gs.jpg","null","reveal","image-keyboard-response","430","1452636","0.0-6.0-4.60","3164550","co38206","norming","","","","","","",""
"null","../img/tt/001tt.jpg","null","mooney2","image-keyboard-response","431","1454638","0.0-6.0-5.60","3164550","co38206","norming","","","","","","",""
"4848","","","post_reveal_questions","survey-likert","432","1459488","0.0-6.0-6.60","3164550","co38206","norming","","","{""aha"":6}","[0]","../img/tt/001tt.jpg","",""
"null","<div style=""font-size:60px;""> </div>","null","fixation","html-keyboard-response","433","1459691","0.0-6.0-0.61","3164550","co38206","norming","","","","","","",""
"null","../img/tt/1276tt.jpg","null","mooney1","image-keyboard-response","434","1462694","0.0-6.0-1.61","3164550","co38206","norming","","","","","","",""
"5915","","","post_mooney1_questions","survey-likert","435","1468611","0.0-6.0-2.61","3164550","co38206","norming","","","{""curiosity"":5,""confidence"":2}","[0,1]","../img/tt/1276tt.jpg","",""
"3013","","","recognition","survey-text","436","1471631","0.0-6.0-3.61","3164550","co38206","norming","","","{""guess"":""eland""}","","../img/tt/1276tt.jpg","",""
"null","../img/gs/1276gs.jpg","null","reveal","image-keyboard-response","437","1473633","0.0-6.0-4.61","3164550","co38206","norming","","","","","","",""
"null","../img/tt/1276tt.jpg","null","mooney2","image-keyboard-response","438","1475636","0.0-6.0-5.61","3164550","co38206","norming","","","","","","",""
"4083","","","post_reveal_questions","survey-likert","439","1479720","0.0-6.0-6.61","3164550","co38206","norming","","","{""aha"":5}","[0]","../img/tt/1276tt.jpg","",""
"null","<div style=""font-size:60px;""> </div>","null","fixation","html-keyboard-response","440","1479923","0.0-6.0-0.62","3164550","co38206","norming","","","","","","",""
"null","../img/tt/064tt.jpg","null","mooney1","image-keyboard-response","441","1482926","0.0-6.0-1.62","3164550","co38206","norming","","","","","","",""
"2639","","","post_mooney1_questions","survey-likert","442","1485566","0.0-6.0-2.62","3164550","co38206","norming","","","{""curiosity"":5,""confidence"":2}","[0,1]","../img/tt/064tt.jpg","",""
"2369","","","recognition","survey-text","443","1487942","0.0-6.0-3.62","3164550","co38206","norming","","","{""guess"":""stier""}","","../img/tt/064tt.jpg","",""
"null","../img/gs/064gs.jpg","null","reveal","image-keyboard-response","444","1489945","0.0-6.0-4.62","3164550","co38206","norming","","","","","","",""
"null","../img/tt/064tt.jpg","null","mooney2","image-keyboard-response","445","1491947","0.0-6.0-5.62","3164550","co38206","norming","","","","","","",""
"3253","","","post_reveal_questions","survey-likert","446","1495202","0.0-6.0-6.62","3164550","co38206","norming","","","{""aha"":5}","[0]","../img/tt/064tt.jpg","",""
"null","<div style=""font-size:60px;""> </div>","null","fixation","html-keyboard-response","447","1495405","0.0-6.0-0.63","3164550","co38206","norming","","","","","","",""
"null","../img/tt/222tt.jpg","null","mooney1","image-keyboard-response","448","1498408","0.0-6.0-1.63","3164550","co38206","norming","","","","","","",""
"3049","","","post_mooney1_questions","survey-likert","449","1501459","0.0-6.0-2.63","3164550","co38206","norming","","","{""curiosity"":5,""confidence"":2}","[0,1]","../img/tt/222tt.jpg","",""
"1934","","","recognition","survey-text","450","1503401","0.0-6.0-3.63","3164550","co38206","norming","","","{""guess"":""kikker""}","","../img/tt/222tt.jpg","",""
"null","../img/gs/222gs.jpg","null","reveal","image-keyboard-response","451","1505403","0.0-6.0-4.63","3164550","co38206","norming","","","","","","",""
"null","../img/tt/222tt.jpg","null","mooney2","image-keyboard-response","452","1507406","0.0-6.0-5.63","3164550","co38206","norming","","","","","","",""
"2176","","","post_reveal_questions","survey-likert","453","1509583","0.0-6.0-6.63","3164550","co38206","norming","","","{""aha"":6}","[0]","../img/tt/222tt.jpg","",""
"null","<div style=""font-size:60px;""> </div>","null","fixation","html-keyboard-response","454","1509787","0.0-6.0-0.64","3164550","co38206","norming","","","","","","",""
"null","../img/tt/084tt.jpg","null","mooney1","image-keyboard-response","455","1512789","0.0-6.0-1.64","3164550","co38206","norming","","","","","","",""
"3088","","","post_mooney1_questions","survey-likert","456","1515880","0.0-6.0-2.64","3164550","co38206","norming","","","{""curiosity"":5,""confidence"":6}","[0,1]","../img/tt/084tt.jpg","",""
"2264","","","recognition","survey-text","457","1518151","0.0-6.0-3.64","3164550","co38206","norming","","","{""guess"":""kippen""}","","../img/tt/084tt.jpg","",""
"null","../img/gs/084gs.jpg","null","reveal","image-keyboard-response","458","1520154","0.0-6.0-4.64","3164550","co38206","norming","","","","","","",""
"null","../img/tt/084tt.jpg","null","mooney2","image-keyboard-response","459","1522156","0.0-6.0-5.64","3164550","co38206","norming","","","","","","",""
"2010","","","post_reveal_questions","survey-likert","460","1524167","0.0-6.0-6.64","3164550","co38206","norming","","","{""aha"":5}","[0]","../img/tt/084tt.jpg","",""
"null","<div style=""font-size:60px;""> </div>","null","fixation","html-keyboard-response","461","1524370","0.0-6.0-0.65","3164550","co38206","norming","","","","","","",""
"null","../img/tt/1123tt.jpg","null","mooney1","image-keyboard-response","462","1527373","0.0-6.0-1.65","3164550","co38206","norming","","","","","","",""
"5190","","","post_mooney1_questions","survey-likert","463","1532564","0.0-6.0-2.65","3164550","co38206","norming","","","{""curiosity"":6,""confidence"":0}","[0,1]","../img/tt/1123tt.jpg","",""
"1557","","","recognition","survey-text","464","1534130","0.0-6.0-3.65","3164550","co38206","norming","","","{""guess"":""""}","","../img/tt/1123tt.jpg","",""
"null","../img/gs/1123gs.jpg","null","reveal","image-keyboard-response","465","1536132","0.0-6.0-4.65","3164550","co38206","norming","","","","","","",""
"null","../img/tt/1123tt.jpg","null","mooney2","image-keyboard-response","466","1538134","0.0-6.0-5.65","3164550","co38206","norming","","","","","","",""
"2065","","","post_reveal_questions","survey-likert","467","1540201","0.0-6.0-6.65","3164550","co38206","norming","","","{""aha"":5}","[0]","../img/tt/1123tt.jpg","",""
"null","<div style=""font-size:60px;""> </div>","null","fixation","html-keyboard-response","468","1540404","0.0-6.0-0.66","3164550","co38206","norming","","","","","","",""
"null","../img/tt/1118tt.jpg","null","mooney1","image-keyboard-response","469","1543407","0.0-6.0-1.66","3164550","co38206","norming","","","","","","",""
"13544","","","post_mooney1_questions","survey-likert","470","1556953","0.0-6.0-2.66","3164550","co38206","norming","","","{""curiosity"":5,""confidence"":2}","[0,1]","../img/tt/1118tt.jpg","",""
"9059","","","recognition","survey-text","471","1566020","0.0-6.0-3.66","3164550","co38206","norming","","","{""guess"":""motor""}","","../img/tt/1118tt.jpg","",""
"null","../img/gs/1118gs.jpg","null","reveal","image-keyboard-response","472","1568022","0.0-6.0-4.66","3164550","co38206","norming","","","","","","",""
"null","../img/tt/1118tt.jpg","null","mooney2","image-keyboard-response","473","1570025","0.0-6.0-5.66","3164550","co38206","norming","","","","","","",""
"2945","","","post_reveal_questions","survey-likert","474","1572972","0.0-6.0-6.66","3164550","co38206","norming","","","{""aha"":5}","[0]","../img/tt/1118tt.jpg","",""
"null","<div style=""font-size:60px;""> </div>","null","fixation","html-keyboard-response","475","1573175","0.0-6.0-0.67","3164550","co38206","norming","","","","","","",""
"null","../img/tt/079tt.jpg","null","mooney1","image-keyboard-response","476","1576177","0.0-6.0-1.67","3164550","co38206","norming","","","","","","",""
"2848","","","post_mooney1_questions","survey-likert","477","1579027","0.0-6.0-2.67","3164550","co38206","norming","","","{""curiosity"":6,""confidence"":6}","[0,1]","../img/tt/079tt.jpg","",""
"1975","","","recognition","survey-text","478","1581010","0.0-6.0-3.67","3164550","co38206","norming","","","{""guess"":""beer""}","","../img/tt/079tt.jpg","",""
"null","../img/gs/079gs.jpg","null","reveal","image-keyboard-response","479","1583013","0.0-6.0-4.67","3164550","co38206","norming","","","","","","",""
"null","../img/tt/079tt.jpg","null","mooney2","image-keyboard-response","480","1585015","0.0-6.0-5.67","3164550","co38206","norming","","","","","","",""
"1690.0000000002328","","","post_reveal_questions","survey-likert","481","1586706","0.0-6.0-6.67","3164550","co38206","norming","","","{""aha"":6}","[0]","../img/tt/079tt.jpg","",""
"null","<div style=""font-size:60px;""> </div>","null","fixation","html-keyboard-response","482","1586909","0.0-6.0-0.68","3164550","co38206","norming","","","","","","",""
"null","../img/tt/1268tt.jpg","null","mooney1","image-keyboard-response","483","1589912","0.0-6.0-1.68","3164550","co38206","norming","","","","","","",""
"2855","","","post_mooney1_questions","survey-likert","484","1592768","0.0-6.0-2.68","3164550","co38206","norming","","","{""curiosity"":5,""confidence"":2}","[0,1]","../img/tt/1268tt.jpg","",""
"3132.000000000233","","","recognition","survey-text","485","1595908","0.0-6.0-3.68","3164550","co38206","norming","","","{""guess"":""krokodil""}","","../img/tt/1268tt.jpg","",""
"null","../img/gs/1268gs.jpg","null","reveal","image-keyboard-response","486","1597910","0.0-6.0-4.68","3164550","co38206","norming","","","","","","",""
"null","../img/tt/1268tt.jpg","null","mooney2","image-keyboard-response","487","1599913","0.0-6.0-5.68","3164550","co38206","norming","","","","","","",""
"2891","","","post_reveal_questions","survey-likert","488","1602806","0.0-6.0-6.68","3164550","co38206","norming","","","{""aha"":5}","[0]","../img/tt/1268tt.jpg","",""
"null","<div style=""font-size:60px;""> </div>","null","fixation","html-keyboard-response","489","1603009","0.0-6.0-0.69","3164550","co38206","norming","","","","","","",""
"null","../img/tt/273tt.jpg","null","mooney1","image-keyboard-response","490","1606011","0.0-6.0-1.69","3164550","co38206","norming","","","","","","",""
"6059.000000000233","","","post_mooney1_questions","survey-likert","491","1612072","0.0-6.0-2.69","3164550","co38206","norming","","","{""curiosity"":5,""confidence"":4}","[0,1]","../img/tt/273tt.jpg","",""
"3164","","","recognition","survey-text","492","1615244","0.0-6.0-3.69","3164550","co38206","norming","","","{""guess"":""beugel""}","","../img/tt/273tt.jpg","",""
"null","../img/gs/273gs.jpg","null","reveal","image-keyboard-response","493","1617246","0.0-6.0-4.69","3164550","co38206","norming","","","","","","",""
"null","../img/tt/273tt.jpg","null","mooney2","image-keyboard-response","494","1619249","0.0-6.0-5.69","3164550","co38206","norming","","","","","","",""
"2275","","","post_reveal_questions","survey-likert","495","1621525","0.0-6.0-6.69","3164550","co38206","norming","","","{""aha"":5}","[0]","../img/tt/273tt.jpg","",""
"null","<div style=""font-size:60px;""> </div>","null","fixation","html-keyboard-response","496","1621728","0.0-6.0-0.70","3164550","co38206","norming","","","","","","",""
"null","../img/tt/184tt.jpg","null","mooney1","image-keyboard-response","497","1624730","0.0-6.0-1.70","3164550","co38206","norming","","","","","","",""
"4230","","","post_mooney1_questions","survey-likert","498","1628962","0.0-6.0-2.70","3164550","co38206","norming","","","{""curiosity"":5,""confidence"":6}","[0,1]","../img/tt/184tt.jpg","",""
"1982","","","recognition","survey-text","499","1630953","0.0-6.0-3.70","3164550","co38206","norming","","","{""guess"":""taart""}","","../img/tt/184tt.jpg","",""
"null","../img/gs/184gs.jpg","null","reveal","image-keyboard-response","500","1632955","0.0-6.0-4.70","3164550","co38206","norming","","","","","","",""
"null","../img/tt/184tt.jpg","null","mooney2","image-keyboard-response","501","1634957","0.0-6.0-5.70","3164550","co38206","norming","","","","","","",""
"3092","","","post_reveal_questions","survey-likert","502","1638051","0.0-6.0-6.70","3164550","co38206","norming","","","{""aha"":5}","[0]","../img/tt/184tt.jpg","",""
"null","<div style=""font-size:60px;""> </div>","null","fixation","html-keyboard-response","503","1638254","0.0-6.0-0.71","3164550","co38206","norming","","","","","","",""
"null","../img/tt/135tt.jpg","null","mooney1","image-keyboard-response","504","1641257","0.0-6.0-1.71","3164550","co38206","norming","","","","","","",""
"3924","","","post_mooney1_questions","survey-likert","505","1645183","0.0-6.0-2.71","3164550","co38206","norming","","","{""curiosity"":3,""confidence"":6}","[0,1]","../img/tt/135tt.jpg","",""
"7048","","","recognition","survey-text","506","1652239","0.0-6.0-3.71","3164550","co38206","norming","","","{""guess"":""WC""}","","../img/tt/135tt.jpg","",""
"null","../img/gs/135gs.jpg","null","reveal","image-keyboard-response","507","1654242","0.0-6.0-4.71","3164550","co38206","norming","","","","","","",""
"null","../img/tt/135tt.jpg","null","mooney2","image-keyboard-response","508","1656244","0.0-6.0-5.71","3164550","co38206","norming","","","","","","",""
"2086","","","post_reveal_questions","survey-likert","509","1658332","0.0-6.0-6.71","3164550","co38206","norming","","","{""aha"":5}","[0]","../img/tt/135tt.jpg","",""
"null","<div style=""font-size:60px;""> </div>","null","fixation","html-keyboard-response","510","1658535","0.0-6.0-0.72","3164550","co38206","norming","","","","","","",""
"null","../img/tt/412tt.jpg","null","mooney1","image-keyboard-response","511","1661537","0.0-6.0-1.72","3164550","co38206","norming","","","","","","",""
"2943","","","post_mooney1_questions","survey-likert","512","1664483","0.0-6.0-2.72","3164550","co38206","norming","","","{""curiosity"":6,""confidence"":0}","[0,1]","../img/tt/412tt.jpg","",""
"688","","","recognition","survey-text","513","1665178","0.0-6.0-3.72","3164550","co38206","norming","","","{""guess"":""""}","","../img/tt/412tt.jpg","",""
"null","../img/gs/412gs.jpg","null","reveal","image-keyboard-response","514","1667180","0.0-6.0-4.72","3164550","co38206","norming","","","","","","",""
"null","../img/tt/412tt.jpg","null","mooney2","image-keyboard-response","515","1669183","0.0-6.0-5.72","3164550","co38206","norming","","","","","","",""
"1959","","","post_reveal_questions","survey-likert","516","1671144","0.0-6.0-6.72","3164550","co38206","norming","","","{""aha"":5}","[0]","../img/tt/412tt.jpg","",""
"null","<div style=""font-size:60px;""> </div>","null","fixation","html-keyboard-response","517","1671346","0.0-6.0-0.73","3164550","co38206","norming","","","","","","",""
"null","../img/tt/1142tt.jpg","null","mooney1","image-keyboard-response","518","1674348","0.0-6.0-1.73","3164550","co38206","norming","","","","","","",""
"3941","","","post_mooney1_questions","survey-likert","519","1678291","0.0-6.0-2.73","3164550","co38206","norming","","","{""curiosity"":6,""confidence"":6}","[0,1]","../img/tt/1142tt.jpg","",""
"27487.000000000233","","","recognition","survey-text","520","1705787","0.0-6.0-3.73","3164550","co38206","norming","","","{""guess"":""hoog springen""}","","../img/tt/1142tt.jpg","",""
"null","../img/gs/1142gs.jpg","null","reveal","image-keyboard-response","521","1707789","0.0-6.0-4.73","3164550","co38206","norming","","","","","","",""
"null","../img/tt/1142tt.jpg","null","mooney2","image-keyboard-response","522","1709791","0.0-6.0-5.73","3164550","co38206","norming","","","","","","",""
"4759","","","post_reveal_questions","survey-likert","523","1714552","0.0-6.0-6.73","3164550","co38206","norming","","","{""aha"":5}","[0]","../img/tt/1142tt.jpg","",""
"null","<div style=""font-size:60px;""> </div>","null","fixation","html-keyboard-response","524","1714755","0.0-6.0-0.74","3164550","co38206","norming","","","","","","",""
"null","../img/tt/1053tt.jpg","null","mooney1","image-keyboard-response","525","1717757","0.0-6.0-1.74","3164550","co38206","norming","","","","","","",""
"6823","","","post_mooney1_questions","survey-likert","526","1724582","0.0-6.0-2.74","3164550","co38206","norming","","","{""curiosity"":5,""confidence"":2}","[0,1]","../img/tt/1053tt.jpg","",""
"22986","","","recognition","survey-text","527","1747577","0.0-6.0-3.74","3164550","co38206","norming","","","{""guess"":""""}","","../img/tt/1053tt.jpg","",""
"null","../img/gs/1053gs.jpg","null","reveal","image-keyboard-response","528","1749580","0.0-6.0-4.74","3164550","co38206","norming","","","","","","",""
"null","../img/tt/1053tt.jpg","null","mooney2","image-keyboard-response","529","1751582","0.0-6.0-5.74","3164550","co38206","norming","","","","","","",""
"88384","","","post_reveal_questions","survey-likert","530","1839970","0.0-6.0-6.74","3164550","co38206","norming","","","{""aha"":3}","[0]","../img/tt/1053tt.jpg","",""
"null","<div style=""font-size:60px;""> </div>","null","fixation","html-keyboard-response","531","1840173","0.0-6.0-0.75","3164550","co38206","norming","","","","","","",""
"null","../img/tt/036tt.jpg","null","mooney1","image-keyboard-response","532","1843176","0.0-6.0-1.75","3164550","co38206","norming","","","","","","",""
"8592","","","post_mooney1_questions","survey-likert","533","1851770","0.0-6.0-2.75","3164550","co38206","norming","","","{""curiosity"":6,""confidence"":0}","[0,1]","../img/tt/036tt.jpg","",""
"633","","","recognition","survey-text","534","1852411","0.0-6.0-3.75","3164550","co38206","norming","","","{""guess"":""""}","","../img/tt/036tt.jpg","",""
"null","../img/gs/036gs.jpg","null","reveal","image-keyboard-response","535","1854414","0.0-6.0-4.75","3164550","co38206","norming","","","","","","",""
"null","../img/tt/036tt.jpg","null","mooney2","image-keyboard-response","536","1856416","0.0-6.0-5.75","3164550","co38206","norming","","","","","","",""
"4118","","","post_reveal_questions","survey-likert","537","1860535","0.0-6.0-6.75","3164550","co38206","norming","","","{""aha"":5}","[0]","../img/tt/036tt.jpg","",""
"null","<div style=""font-size:60px;""> </div>","null","fixation","html-keyboard-response","538","1860738","0.0-6.0-0.76","3164550","co38206","norming","","","","","","",""
"null","../img/tt/1363tt.jpg","null","mooney1","image-keyboard-response","539","1863741","0.0-6.0-1.76","3164550","co38206","norming","","","","","","",""
"4275.999999999767","","","post_mooney1_questions","survey-likert","540","1868019","0.0-6.0-2.76","3164550","co38206","norming","","","{""curiosity"":5,""confidence"":5}","[0,1]","../img/tt/1363tt.jpg","",""
"13863","","","recognition","survey-text","541","1881889","0.0-6.0-3.76","3164550","co38206","norming","","","{""guess"":""kan""}","","../img/tt/1363tt.jpg","",""
"null","../img/gs/1363gs.jpg","null","reveal","image-keyboard-response","542","1883891","0.0-6.0-4.76","3164550","co38206","norming","","","","","","",""
"null","../img/tt/1363tt.jpg","null","mooney2","image-keyboard-response","543","1885894","0.0-6.0-5.76","3164550","co38206","norming","","","","","","",""
"3539","","","post_reveal_questions","survey-likert","544","1889434","0.0-6.0-6.76","3164550","co38206","norming","","","{""aha"":4}","[0]","../img/tt/1363tt.jpg","",""
"null","<div style=""font-size:60px;""> </div>","null","fixation","html-keyboard-response","545","1889637","0.0-6.0-0.77","3164550","co38206","norming","","","","","","",""
"null","../img/tt/1061tt.jpg","null","mooney1","image-keyboard-response","546","1892640","0.0-6.0-1.77","3164550","co38206","norming","","","","","","",""
"3469","","","post_mooney1_questions","survey-likert","547","1896111","0.0-6.0-2.77","3164550","co38206","norming","","","{""curiosity"":5,""confidence"":3}","[0,1]","../img/tt/1061tt.jpg","",""
"5289.999999999767","","","recognition","survey-text","548","1901410","0.0-6.0-3.77","3164550","co38206","norming","","","{""guess"":""voetbal""}","","../img/tt/1061tt.jpg","",""
"null","../img/gs/1061gs.jpg","null","reveal","image-keyboard-response","549","1903412","0.0-6.0-4.77","3164550","co38206","norming","","","","","","",""
"null","../img/tt/1061tt.jpg","null","mooney2","image-keyboard-response","550","1905414","0.0-6.0-5.77","3164550","co38206","norming","","","","","","",""
"1959.9999999997672","","","post_reveal_questions","survey-likert","551","1907376","0.0-6.0-6.77","3164550","co38206","norming","","","{""aha"":5}","[0]","../img/tt/1061tt.jpg","",""
"null","<div style=""font-size:60px;""> </div>","null","fixation","html-keyboard-response","552","1907579","0.0-6.0-0.78","3164550","co38206","norming","","","","","","",""
"null","../img/tt/456tt.jpg","null","mooney1","image-keyboard-response","553","1910582","0.0-6.0-1.78","3164550","co38206","norming","","","","","","",""
"3496","","","post_mooney1_questions","survey-likert","554","1914080","0.0-6.0-2.78","3164550","co38206","norming","","","{""curiosity"":5,""confidence"":4}","[0,1]","../img/tt/456tt.jpg","",""
"4370","","","recognition","survey-text","555","1918457","0.0-6.0-3.78","3164550","co38206","norming","","","{""guess"":""katachtige""}","","../img/tt/456tt.jpg","",""
"null","../img/gs/456gs.jpg","null","reveal","image-keyboard-response","556","1920460","0.0-6.0-4.78","3164550","co38206","norming","","","","","","",""
"null","../img/tt/456tt.jpg","null","mooney2","image-keyboard-response","557","1922462","0.0-6.0-5.78","3164550","co38206","norming","","","","","","",""
"3299.000000000233","","","post_reveal_questions","survey-likert","558","1925763","0.0-6.0-6.78","3164550","co38206","norming","","","{""aha"":5}","[0]","../img/tt/456tt.jpg","",""
"null","<div style=""font-size:60px;""> </div>","null","fixation","html-keyboard-response","559","1925966","0.0-6.0-0.79","3164550","co38206","norming","","","","","","",""
"null","../img/tt/1196tt.jpg","null","mooney1","image-keyboard-response","560","1928969","0.0-6.0-1.79","3164550","co38206","norming","","","","","","",""
"18053.000000000233","","","post_mooney1_questions","survey-likert","561","1947024","0.0-6.0-2.79","3164550","co38206","norming","","","{""curiosity"":6,""confidence"":0}","[0,1]","../img/tt/1196tt.jpg","",""
"745.9999999997672","","","recognition","survey-text","562","1947778","0.0-6.0-3.79","3164550","co38206","norming","","","{""guess"":""""}","","../img/tt/1196tt.jpg","",""
"null","../img/gs/1196gs.jpg","null","reveal","image-keyboard-response","563","1949780","0.0-6.0-4.79","3164550","co38206","norming","","","","","","",""
"null","../img/tt/1196tt.jpg","null","mooney2","image-keyboard-response","564","1951783","0.0-6.0-5.79","3164550","co38206","norming","","","","","","",""
"1557","","","post_reveal_questions","survey-likert","565","1953340","0.0-6.0-6.79","3164550","co38206","norming","","","{""aha"":5}","[0]","../img/tt/1196tt.jpg","",""
