"rt","stimulus","key_press","test_part","trial_type","trial_index","time_elapsed","internal_node_id","totalTime","subject","experiment_name","button_pressed","success","responses","question_order","currentStim","old","correct"
"47569","Welcome to the experiment. This is an online experiment so please don't close the tab/window until we say goodbye.  Press any key to begin.","13","instructions","html-keyboard-response","0","47572","0.0-0.0","3299159","co38824","norming","","","","","","",""
"4355","<div style='word-wrap: break-word; width: 900px'><h3>Please consider this information carefully before deciding whether to participate in this research</h3><ul style='text-align: left; font-size: .8em;'><li><b>Purpose of the research</b>: To examine how people process images.</li><li><b>What you will do in this research</b>:  Stimuli (images) will be presented on the computer and you will be asked different questions about them.</li><li><b>Time required</b>: Participation will take between 45 and 60 minutes to complete.</li><li><b>Risks</b>:  There are no anticipated risks associated with participating in this study. The effects of participating should be comparable to those you would experience from viewing a computer monitor for 30 minutes and using a mouse or keyboard.</li><li><b>Benefits</b>:  This study provides no benefits to you individually except for the credit. The study provides important information about the nature of perception and learning.</li><li><b>Confidentiality</b>:  Your participation in this study will remain confidential. No personally identifiable information will be associated with your data. Your de-identified data may be shared with other researchers and used in future projects.</li><li><b>Participation and withdrawal</b>:  Your participation in this study is completely voluntary and you may refuse to participate or you may choose to withdraw at any time without penalty.</li><li><b>How to contact the researchers</b>: If you have questions or concerns about your participation or payment, or want to request a summary of research findings, please contact Sander Van de Cruys (KU Leuven), at sander.vandecruys@kuleuven.be.</li></ul><p>The nature and purpose of this research have been sufficiently explained and I agree to participate in this study.  I understand that I am free to withdraw at any time without incurring any penalty.</p><p>Please consent by clicking the button below to continue. Otherwise, please exit the study at this time.</p></div>","","instructions","html-button-response","1","51929","0.0-1.0","3299159","co38824","norming","0","","","","","",""
"","","","instructions","fullscreen","2","59535","0.0-2.0","3299159","co38824","norming","","true","","","","",""
"39690","","","sona","survey-html-form","3","99232","0.0-3.0","3299159","co38824","norming","","","[{""name"":""sonaid"",""value"":""38824""},{""name"":""debrief"",""value"":""no""},{""name"":""datajoin"",""value"":""no""}]","","","",""
"26663","<div style='word-wrap: break-word; width: 900px'><h3>Instructions</h3><p>This experiment will have 3 parts. In the first part you will see a series of distorted images like the one below on the left. As you can see in the righthand image, the distorted images are derived from actual photographs. In what follows, you will <strong>briefly</strong> be presented with <strong>only</strong> the distorted image.</p> <div style='float: left; margin-right: 20px;'><img src='../img/018tt.jpg' height='250' width='250'></img></div><div style='float: right; margin-left: 20px;'><img src='../img/018gs.jpg' height='250' width='250'></img></div><p>Subsequently you will be asked a few questions about the image: One question on how <strong>curious</strong> you are about the solution and one on how <strong>confident</strong> you are that you know the solution.</p>Next, we ask you to make a guess on what is in the image. Note that it is OK to name just the <strong>basic level category</strong>. For example when you see a parrot in the image, 'parrot' will obviously be a correct answer but also correct is 'bird'. However, 'animal' will <strong>not</strong> be counted as a correct response. For the example above, 'rose' would be correct or 'flower', but not 'plant'. When soccer players are depicted, 'soccer', 'football', 'soccer players' will be correct, but not 'humans', 'outdoors', or 'sports'. You do not need to describe the image in full, just name the main object in it <strong>in one or two words</strong>. All images depict objects from one of the following broad level categories: animals, inanimate objects, plants, sports, vehicles, and food. Recognizing means knowing <strong>more</strong> than these broad labels for a given image. But we always encourage you to <strong>make a guess</strong> if you can. Note that you are allowed to use <strong>Dutch and English</strong> in your answers, whatever comes easiest for you.</p><p>Press any key to continue.</p></div>","32","instructions","html-keyboard-response","4","125902","0.0-4.0","3299159","co38824","norming","","","","","","",""
"14954","<div style='word-wrap: break-word; width: 900px'><h3>Instructions</h3> <p>Next, the solution image will be revealed to you and you'll be asked to indicate how strong your <strong>aha-experience</strong> was after seeing the solution. This describes the positive feeling of the 'click' you sometimes experience, when the pieces of the 'puzzle' fall together and you suddenly have 'insight' in the image.</p><img src='aha.jpg' height='188' width='250'></img><p>Note that there are no right or wrong answers. We are interested in what <strong>you</strong> see in the image and how <strong>you</strong> feel about it.</p><p>Press any key to start the experiment.</p></div>","32","instructions","html-keyboard-response","5","140860","0.0-5.0","3299159","co38824","norming","","","","","","",""
"null","<div style=""font-size:60px;""> </div>","null","fixation","html-keyboard-response","6","141076","0.0-6.0-0.0","3299159","co38824","norming","","","","","","",""
"null","../img/tt/1142tt.jpg","null","mooney1","image-keyboard-response","7","144097","0.0-6.0-1.0","3299159","co38824","norming","","","","","","",""
"20390","","","post_mooney1_questions","survey-likert","8","164495","0.0-6.0-2.0","3299159","co38824","norming","","","{""curiosity"":4,""confidence"":1}","[0,1]","../img/tt/1142tt.jpg","",""
"11169","","","recognition","survey-text","9","175669","0.0-6.0-3.0","3299159","co38824","norming","","","{""guess"":""woman""}","","../img/tt/1142tt.jpg","",""
"null","../img/gs/1142gs.jpg","null","reveal","image-keyboard-response","10","177686","0.0-6.0-4.0","3299159","co38824","norming","","","","","","",""
"null","../img/tt/1142tt.jpg","null","mooney2","image-keyboard-response","11","179705","0.0-6.0-5.0","3299159","co38824","norming","","","","","","",""
"8903","","","post_reveal_questions","survey-likert","12","188613","0.0-6.0-6.0","3299159","co38824","norming","","","{""aha"":4}","[0]","../img/tt/1142tt.jpg","",""
"null","<div style=""font-size:60px;""> </div>","null","fixation","html-keyboard-response","13","188826","0.0-6.0-0.1","3299159","co38824","norming","","","","","","",""
"null","../img/tt/1122tt.jpg","null","mooney1","image-keyboard-response","14","191836","0.0-6.0-1.1","3299159","co38824","norming","","","","","","",""
"8229","","","post_mooney1_questions","survey-likert","15","200069","0.0-6.0-2.1","3299159","co38824","norming","","","{""curiosity"":4,""confidence"":1}","[0,1]","../img/tt/1122tt.jpg","",""
"6289","","","recognition","survey-text","16","206360","0.0-6.0-3.1","3299159","co38824","norming","","","{""guess"":""town""}","","../img/tt/1122tt.jpg","",""
"null","../img/gs/1122gs.jpg","null","reveal","image-keyboard-response","17","208377","0.0-6.0-4.1","3299159","co38824","norming","","","","","","",""
"null","../img/tt/1122tt.jpg","null","mooney2","image-keyboard-response","18","210395","0.0-6.0-5.1","3299159","co38824","norming","","","","","","",""
"5984","","","post_reveal_questions","survey-likert","19","216381","0.0-6.0-6.1","3299159","co38824","norming","","","{""aha"":5}","[0]","../img/tt/1122tt.jpg","",""
"null","<div style=""font-size:60px;""> </div>","null","fixation","html-keyboard-response","20","216595","0.0-6.0-0.2","3299159","co38824","norming","","","","","","",""
"null","../img/tt/1307tt.jpg","null","mooney1","image-keyboard-response","21","219616","0.0-6.0-1.2","3299159","co38824","norming","","","","","","",""
"5317","","","post_mooney1_questions","survey-likert","22","224938","0.0-6.0-2.2","3299159","co38824","norming","","","{""curiosity"":6,""confidence"":0}","[0,1]","../img/tt/1307tt.jpg","",""
"5119","","","recognition","survey-text","23","230061","0.0-6.0-3.2","3299159","co38824","norming","","","{""guess"":""sun""}","","../img/tt/1307tt.jpg","",""
"null","../img/gs/1307gs.jpg","null","reveal","image-keyboard-response","24","232076","0.0-6.0-4.2","3299159","co38824","norming","","","","","","",""
"null","../img/tt/1307tt.jpg","null","mooney2","image-keyboard-response","25","234095","0.0-6.0-5.2","3299159","co38824","norming","","","","","","",""
"5792","","","post_reveal_questions","survey-likert","26","239892","0.0-6.0-6.2","3299159","co38824","norming","","","{""aha"":5}","[0]","../img/tt/1307tt.jpg","",""
"null","<div style=""font-size:60px;""> </div>","null","fixation","html-keyboard-response","27","240105","0.0-6.0-0.3","3299159","co38824","norming","","","","","","",""
"null","../img/tt/1161tt.jpg","null","mooney1","image-keyboard-response","28","243126","0.0-6.0-1.3","3299159","co38824","norming","","","","","","",""
"7272","","","post_mooney1_questions","survey-likert","29","250401","0.0-6.0-2.3","3299159","co38824","norming","","","{""curiosity"":5,""confidence"":1}","[0,1]","../img/tt/1161tt.jpg","",""
"8514","","","recognition","survey-text","30","258919","0.0-6.0-3.3","3299159","co38824","norming","","","{""guess"":""men""}","","../img/tt/1161tt.jpg","",""
"null","../img/gs/1161gs.jpg","null","reveal","image-keyboard-response","31","260936","0.0-6.0-4.3","3299159","co38824","norming","","","","","","",""
"null","../img/tt/1161tt.jpg","null","mooney2","image-keyboard-response","32","262955","0.0-6.0-5.3","3299159","co38824","norming","","","","","","",""
"4841","","","post_reveal_questions","survey-likert","33","267799","0.0-6.0-6.3","3299159","co38824","norming","","","{""aha"":4}","[0]","../img/tt/1161tt.jpg","",""
"null","<div style=""font-size:60px;""> </div>","null","fixation","html-keyboard-response","34","268015","0.0-6.0-0.4","3299159","co38824","norming","","","","","","",""
"null","../img/tt/1070tt.jpg","null","mooney1","image-keyboard-response","35","271026","0.0-6.0-1.4","3299159","co38824","norming","","","","","","",""
"6191","","","post_mooney1_questions","survey-likert","36","277221","0.0-6.0-2.4","3299159","co38824","norming","","","{""curiosity"":6,""confidence"":0}","[0,1]","../img/tt/1070tt.jpg","",""
"2983","","","recognition","survey-text","37","280210","0.0-6.0-3.4","3299159","co38824","norming","","","{""guess"":""""}","","../img/tt/1070tt.jpg","",""
"null","../img/gs/1070gs.jpg","null","reveal","image-keyboard-response","38","282226","0.0-6.0-4.4","3299159","co38824","norming","","","","","","",""
"null","../img/tt/1070tt.jpg","null","mooney2","image-keyboard-response","39","284245","0.0-6.0-5.4","3299159","co38824","norming","","","","","","",""
"3282","","","post_reveal_questions","survey-likert","40","287530","0.0-6.0-6.4","3299159","co38824","norming","","","{""aha"":4}","[0]","../img/tt/1070tt.jpg","",""
"null","<div style=""font-size:60px;""> </div>","null","fixation","html-keyboard-response","41","287745","0.0-6.0-0.5","3299159","co38824","norming","","","","","","",""
"null","../img/tt/1043tt.jpg","null","mooney1","image-keyboard-response","42","290766","0.0-6.0-1.5","3299159","co38824","norming","","","","","","",""
"6740","","","post_mooney1_questions","survey-likert","43","297509","0.0-6.0-2.5","3299159","co38824","norming","","","{""curiosity"":6,""confidence"":2}","[0,1]","../img/tt/1043tt.jpg","",""
"6431","","","recognition","survey-text","44","303943","0.0-6.0-3.5","3299159","co38824","norming","","","{""guess"":""dildo""}","","../img/tt/1043tt.jpg","",""
"null","../img/gs/1043gs.jpg","null","reveal","image-keyboard-response","45","305955","0.0-6.0-4.5","3299159","co38824","norming","","","","","","",""
"null","../img/tt/1043tt.jpg","null","mooney2","image-keyboard-response","46","307976","0.0-6.0-5.5","3299159","co38824","norming","","","","","","",""
"7605","","","post_reveal_questions","survey-likert","47","315582","0.0-6.0-6.5","3299159","co38824","norming","","","{""aha"":3}","[0]","../img/tt/1043tt.jpg","",""
"null","<div style=""font-size:60px;""> </div>","null","fixation","html-keyboard-response","48","315795","0.0-6.0-0.6","3299159","co38824","norming","","","","","","",""
"null","../img/tt/1270tt.jpg","null","mooney1","image-keyboard-response","49","318816","0.0-6.0-1.6","3299159","co38824","norming","","","","","","",""
"7343","","","post_mooney1_questions","survey-likert","50","326161","0.0-6.0-2.6","3299159","co38824","norming","","","{""curiosity"":6,""confidence"":2}","[0,1]","../img/tt/1270tt.jpg","",""
"2552","","","recognition","survey-text","51","328721","0.0-6.0-3.6","3299159","co38824","norming","","","{""guess"":""""}","","../img/tt/1270tt.jpg","",""
"null","../img/gs/1270gs.jpg","null","reveal","image-keyboard-response","52","330736","0.0-6.0-4.6","3299159","co38824","norming","","","","","","",""
"null","../img/tt/1270tt.jpg","null","mooney2","image-keyboard-response","53","332755","0.0-6.0-5.6","3299159","co38824","norming","","","","","","",""
"3283","","","post_reveal_questions","survey-likert","54","336041","0.0-6.0-6.6","3299159","co38824","norming","","","{""aha"":4}","[0]","../img/tt/1270tt.jpg","",""
"null","<div style=""font-size:60px;""> </div>","null","fixation","html-keyboard-response","55","336255","0.0-6.0-0.7","3299159","co38824","norming","","","","","","",""
"null","../img/tt/184tt.jpg","null","mooney1","image-keyboard-response","56","339265","0.0-6.0-1.7","3299159","co38824","norming","","","","","","",""
"7822","","","post_mooney1_questions","survey-likert","57","347091","0.0-6.0-2.7","3299159","co38824","norming","","","{""curiosity"":4,""confidence"":2}","[0,1]","../img/tt/184tt.jpg","",""
"5852","","","recognition","survey-text","58","352949","0.0-6.0-3.7","3299159","co38824","norming","","","{""guess"":""pussy""}","","../img/tt/184tt.jpg","",""
"null","../img/gs/184gs.jpg","null","reveal","image-keyboard-response","59","354966","0.0-6.0-4.7","3299159","co38824","norming","","","","","","",""
"null","../img/tt/184tt.jpg","null","mooney2","image-keyboard-response","60","356986","0.0-6.0-5.7","3299159","co38824","norming","","","","","","",""
"2844","","","post_reveal_questions","survey-likert","61","359833","0.0-6.0-6.7","3299159","co38824","norming","","","{""aha"":3}","[0]","../img/tt/184tt.jpg","",""
"null","<div style=""font-size:60px;""> </div>","null","fixation","html-keyboard-response","62","360040","0.0-6.0-0.8","3299159","co38824","norming","","","","","","",""
"null","../img/tt/126tt.jpg","null","mooney1","image-keyboard-response","63","363055","0.0-6.0-1.8","3299159","co38824","norming","","","","","","",""
"6473","","","post_mooney1_questions","survey-likert","64","369531","0.0-6.0-2.8","3299159","co38824","norming","","","{""curiosity"":5,""confidence"":1}","[0,1]","../img/tt/126tt.jpg","",""
"9436","","","recognition","survey-text","65","378973","0.0-6.0-3.8","3299159","co38824","norming","","","{""guess"":""pen""}","","../img/tt/126tt.jpg","",""
"null","../img/gs/126gs.jpg","null","reveal","image-keyboard-response","66","380985","0.0-6.0-4.8","3299159","co38824","norming","","","","","","",""
"null","../img/tt/126tt.jpg","null","mooney2","image-keyboard-response","67","383005","0.0-6.0-5.8","3299159","co38824","norming","","","","","","",""
"4041","","","post_reveal_questions","survey-likert","68","387050","0.0-6.0-6.8","3299159","co38824","norming","","","{""aha"":3}","[0]","../img/tt/126tt.jpg","",""
"null","<div style=""font-size:60px;""> </div>","null","fixation","html-keyboard-response","69","387265","0.0-6.0-0.9","3299159","co38824","norming","","","","","","",""
"null","../img/tt/123tt.jpg","null","mooney1","image-keyboard-response","70","390275","0.0-6.0-1.9","3299159","co38824","norming","","","","","","",""
"6911","","","post_mooney1_questions","survey-likert","71","397191","0.0-6.0-2.9","3299159","co38824","norming","","","{""curiosity"":5,""confidence"":1}","[0,1]","../img/tt/123tt.jpg","",""
"4962","","","recognition","survey-text","72","402159","0.0-6.0-3.9","3299159","co38824","norming","","","{""guess"":""bag""}","","../img/tt/123tt.jpg","",""
"null","../img/gs/123gs.jpg","null","reveal","image-keyboard-response","73","404175","0.0-6.0-4.9","3299159","co38824","norming","","","","","","",""
"null","../img/tt/123tt.jpg","null","mooney2","image-keyboard-response","74","406195","0.0-6.0-5.9","3299159","co38824","norming","","","","","","",""
"6333","","","post_reveal_questions","survey-likert","75","412530","0.0-6.0-6.9","3299159","co38824","norming","","","{""aha"":0}","[0]","../img/tt/123tt.jpg","",""
"null","<div style=""font-size:60px;""> </div>","null","fixation","html-keyboard-response","76","412743","0.0-6.0-0.10","3299159","co38824","norming","","","","","","",""
"null","../img/tt/1362tt.jpg","null","mooney1","image-keyboard-response","77","415745","0.0-6.0-1.10","3299159","co38824","norming","","","","","","",""
"6326","","","post_mooney1_questions","survey-likert","78","422072","0.0-6.0-2.10","3299159","co38824","norming","","","{""curiosity"":5,""confidence"":2}","[0,1]","../img/tt/1362tt.jpg","",""
"3587","","","recognition","survey-text","79","425665","0.0-6.0-3.10","3299159","co38824","norming","","","{""guess"":""dj""}","","../img/tt/1362tt.jpg","",""
"null","../img/gs/1362gs.jpg","null","reveal","image-keyboard-response","80","427685","0.0-6.0-4.10","3299159","co38824","norming","","","","","","",""
"null","../img/tt/1362tt.jpg","null","mooney2","image-keyboard-response","81","429701","0.0-6.0-5.10","3299159","co38824","norming","","","","","","",""
"2707","","","post_reveal_questions","survey-likert","82","432409","0.0-6.0-6.10","3299159","co38824","norming","","","{""aha"":3}","[0]","../img/tt/1362tt.jpg","",""
"null","<div style=""font-size:60px;""> </div>","null","fixation","html-keyboard-response","83","432626","0.0-6.0-0.11","3299159","co38824","norming","","","","","","",""
"null","../img/tt/020tt.jpg","null","mooney1","image-keyboard-response","84","435635","0.0-6.0-1.11","3299159","co38824","norming","","","","","","",""
"6222","","","post_mooney1_questions","survey-likert","85","441860","0.0-6.0-2.11","3299159","co38824","norming","","","{""curiosity"":5,""confidence"":1}","[0,1]","../img/tt/020tt.jpg","",""
"6725","","","recognition","survey-text","86","448590","0.0-6.0-3.11","3299159","co38824","norming","","","{""guess"":""dog""}","","../img/tt/020tt.jpg","",""
"null","../img/gs/020gs.jpg","null","reveal","image-keyboard-response","87","450605","0.0-6.0-4.11","3299159","co38824","norming","","","","","","",""
"null","../img/tt/020tt.jpg","null","mooney2","image-keyboard-response","88","452623","0.0-6.0-5.11","3299159","co38824","norming","","","","","","",""
"3285","","","post_reveal_questions","survey-likert","89","455911","0.0-6.0-6.11","3299159","co38824","norming","","","{""aha"":5}","[0]","../img/tt/020tt.jpg","",""
"null","<div style=""font-size:60px;""> </div>","null","fixation","html-keyboard-response","90","456125","0.0-6.0-0.12","3299159","co38824","norming","","","","","","",""
"null","../img/tt/1097tt.jpg","null","mooney1","image-keyboard-response","91","459136","0.0-6.0-1.12","3299159","co38824","norming","","","","","","",""
"5533","","","post_mooney1_questions","survey-likert","92","464671","0.0-6.0-2.12","3299159","co38824","norming","","","{""curiosity"":5,""confidence"":5}","[0,1]","../img/tt/1097tt.jpg","",""
"4942","","","recognition","survey-text","93","469617","0.0-6.0-3.12","3299159","co38824","norming","","","{""guess"":""farmer""}","","../img/tt/1097tt.jpg","",""
"null","../img/gs/1097gs.jpg","null","reveal","image-keyboard-response","94","471626","0.0-6.0-4.12","3299159","co38824","norming","","","","","","",""
"null","../img/tt/1097tt.jpg","null","mooney2","image-keyboard-response","95","473645","0.0-6.0-5.12","3299159","co38824","norming","","","","","","",""
"4515","","","post_reveal_questions","survey-likert","96","478163","0.0-6.0-6.12","3299159","co38824","norming","","","{""aha"":3}","[0]","../img/tt/1097tt.jpg","",""
"null","<div style=""font-size:60px;""> </div>","null","fixation","html-keyboard-response","97","478374","0.0-6.0-0.13","3299159","co38824","norming","","","","","","",""
"null","../img/tt/1243tt.jpg","null","mooney1","image-keyboard-response","98","481386","0.0-6.0-1.13","3299159","co38824","norming","","","","","","",""
"7101","","","post_mooney1_questions","survey-likert","99","488490","0.0-6.0-2.13","3299159","co38824","norming","","","{""curiosity"":2,""confidence"":2}","[0,1]","../img/tt/1243tt.jpg","",""
"12521","","","recognition","survey-text","100","501019","0.0-6.0-3.13","3299159","co38824","norming","","","{""guess"":""klerenmaakster""}","","../img/tt/1243tt.jpg","",""
"null","../img/gs/1243gs.jpg","null","reveal","image-keyboard-response","101","503036","0.0-6.0-4.13","3299159","co38824","norming","","","","","","",""
"null","../img/tt/1243tt.jpg","null","mooney2","image-keyboard-response","102","505055","0.0-6.0-5.13","3299159","co38824","norming","","","","","","",""
"2925","","","post_reveal_questions","survey-likert","103","507982","0.0-6.0-6.13","3299159","co38824","norming","","","{""aha"":3}","[0]","../img/tt/1243tt.jpg","",""
"null","<div style=""font-size:60px;""> </div>","null","fixation","html-keyboard-response","104","508195","0.0-6.0-0.14","3299159","co38824","norming","","","","","","",""
"null","../img/tt/300tt.jpg","null","mooney1","image-keyboard-response","105","511216","0.0-6.0-1.14","3299159","co38824","norming","","","","","","",""
"6404","","","post_mooney1_questions","survey-likert","106","517623","0.0-6.0-2.14","3299159","co38824","norming","","","{""curiosity"":5,""confidence"":5}","[0,1]","../img/tt/300tt.jpg","",""
"4642","","","recognition","survey-text","107","522270","0.0-6.0-3.14","3299159","co38824","norming","","","{""guess"":""people""}","","../img/tt/300tt.jpg","",""
"null","../img/gs/300gs.jpg","null","reveal","image-keyboard-response","108","524286","0.0-6.0-4.14","3299159","co38824","norming","","","","","","",""
"null","../img/tt/300tt.jpg","null","mooney2","image-keyboard-response","109","526304","0.0-6.0-5.14","3299159","co38824","norming","","","","","","",""
"3541","","","post_reveal_questions","survey-likert","110","529848","0.0-6.0-6.14","3299159","co38824","norming","","","{""aha"":0}","[0]","../img/tt/300tt.jpg","",""
"null","<div style=""font-size:60px;""> </div>","null","fixation","html-keyboard-response","111","530064","0.0-6.0-0.15","3299159","co38824","norming","","","","","","",""
"null","../img/tt/1128tt.jpg","null","mooney1","image-keyboard-response","112","533076","0.0-6.0-1.15","3299159","co38824","norming","","","","","","",""
"5241","","","post_mooney1_questions","survey-likert","113","538320","0.0-6.0-2.15","3299159","co38824","norming","","","{""curiosity"":5,""confidence"":4}","[0,1]","../img/tt/1128tt.jpg","",""
"4496","","","recognition","survey-text","114","542821","0.0-6.0-3.15","3299159","co38824","norming","","","{""guess"":""panda""}","","../img/tt/1128tt.jpg","",""
"null","../img/gs/1128gs.jpg","null","reveal","image-keyboard-response","115","544834","0.0-6.0-4.15","3299159","co38824","norming","","","","","","",""
"null","../img/tt/1128tt.jpg","null","mooney2","image-keyboard-response","116","546834","0.0-6.0-5.15","3299159","co38824","norming","","","","","","",""
"4623","","","post_reveal_questions","survey-likert","117","551459","0.0-6.0-6.15","3299159","co38824","norming","","","{""aha"":2}","[0]","../img/tt/1128tt.jpg","",""
"null","<div style=""font-size:60px;""> </div>","null","fixation","html-keyboard-response","118","551675","0.0-6.0-0.16","3299159","co38824","norming","","","","","","",""
"null","../img/tt/306tt.jpg","null","mooney1","image-keyboard-response","119","554685","0.0-6.0-1.16","3299159","co38824","norming","","","","","","",""
"5783","","","post_mooney1_questions","survey-likert","120","560472","0.0-6.0-2.16","3299159","co38824","norming","","","{""curiosity"":4,""confidence"":3}","[0,1]","../img/tt/306tt.jpg","",""
"1512","","","recognition","survey-text","121","561989","0.0-6.0-3.16","3299159","co38824","norming","","","{""guess"":""""}","","../img/tt/306tt.jpg","",""
"null","../img/gs/306gs.jpg","null","reveal","image-keyboard-response","122","564005","0.0-6.0-4.16","3299159","co38824","norming","","","","","","",""
"null","../img/tt/306tt.jpg","null","mooney2","image-keyboard-response","123","566015","0.0-6.0-5.16","3299159","co38824","norming","","","","","","",""
"5405","","","post_reveal_questions","survey-likert","124","571422","0.0-6.0-6.16","3299159","co38824","norming","","","{""aha"":2}","[0]","../img/tt/306tt.jpg","",""
"null","<div style=""font-size:60px;""> </div>","null","fixation","html-keyboard-response","125","571634","0.0-6.0-0.17","3299159","co38824","norming","","","","","","",""
"null","../img/tt/036tt.jpg","null","mooney1","image-keyboard-response","126","574655","0.0-6.0-1.17","3299159","co38824","norming","","","","","","",""
"7375","","","post_mooney1_questions","survey-likert","127","582031","0.0-6.0-2.17","3299159","co38824","norming","","","{""curiosity"":5,""confidence"":0}","[0,1]","../img/tt/036tt.jpg","",""
"1692","","","recognition","survey-text","128","583728","0.0-6.0-3.17","3299159","co38824","norming","","","{""guess"":""""}","","../img/tt/036tt.jpg","",""
"null","../img/gs/036gs.jpg","null","reveal","image-keyboard-response","129","585746","0.0-6.0-4.17","3299159","co38824","norming","","","","","","",""
"null","../img/tt/036tt.jpg","null","mooney2","image-keyboard-response","130","587763","0.0-6.0-5.17","3299159","co38824","norming","","","","","","",""
"2444","","","post_reveal_questions","survey-likert","131","590209","0.0-6.0-6.17","3299159","co38824","norming","","","{""aha"":3}","[0]","../img/tt/036tt.jpg","",""
"null","<div style=""font-size:60px;""> </div>","null","fixation","html-keyboard-response","132","590414","0.0-6.0-0.18","3299159","co38824","norming","","","","","","",""
"null","../img/tt/124tt.jpg","null","mooney1","image-keyboard-response","133","593425","0.0-6.0-1.18","3299159","co38824","norming","","","","","","",""
"6695","","","post_mooney1_questions","survey-likert","134","600122","0.0-6.0-2.18","3299159","co38824","norming","","","{""curiosity"":5,""confidence"":3}","[0,1]","../img/tt/124tt.jpg","",""
"3010","","","recognition","survey-text","135","603138","0.0-6.0-3.18","3299159","co38824","norming","","","{""guess"":""pig""}","","../img/tt/124tt.jpg","",""
"null","../img/gs/124gs.jpg","null","reveal","image-keyboard-response","136","605155","0.0-6.0-4.18","3299159","co38824","norming","","","","","","",""
"null","../img/tt/124tt.jpg","null","mooney2","image-keyboard-response","137","607161","0.0-6.0-5.18","3299159","co38824","norming","","","","","","",""
"3036","","","post_reveal_questions","survey-likert","138","610199","0.0-6.0-6.18","3299159","co38824","norming","","","{""aha"":3}","[0]","../img/tt/124tt.jpg","",""
"null","<div style=""font-size:60px;""> </div>","null","fixation","html-keyboard-response","139","610415","0.0-6.0-0.19","3299159","co38824","norming","","","","","","",""
"null","../img/tt/1254tt.jpg","null","mooney1","image-keyboard-response","140","613436","0.0-6.0-1.19","3299159","co38824","norming","","","","","","",""
"5095","","","post_mooney1_questions","survey-likert","141","618534","0.0-6.0-2.19","3299159","co38824","norming","","","{""curiosity"":5,""confidence"":3}","[0,1]","../img/tt/1254tt.jpg","",""
"4121","","","recognition","survey-text","142","622660","0.0-6.0-3.19","3299159","co38824","norming","","","{""guess"":""rabit""}","","../img/tt/1254tt.jpg","",""
"null","../img/gs/1254gs.jpg","null","reveal","image-keyboard-response","143","624675","0.0-6.0-4.19","3299159","co38824","norming","","","","","","",""
"null","../img/tt/1254tt.jpg","null","mooney2","image-keyboard-response","144","626692","0.0-6.0-5.19","3299159","co38824","norming","","","","","","",""
"3986","","","post_reveal_questions","survey-likert","145","630680","0.0-6.0-6.19","3299159","co38824","norming","","","{""aha"":3}","[0]","../img/tt/1254tt.jpg","",""
"null","<div style=""font-size:60px;""> </div>","null","fixation","html-keyboard-response","146","630895","0.0-6.0-0.20","3299159","co38824","norming","","","","","","",""
"null","../img/tt/078tt.jpg","null","mooney1","image-keyboard-response","147","633916","0.0-6.0-1.20","3299159","co38824","norming","","","","","","",""
"5532","","","post_mooney1_questions","survey-likert","148","639450","0.0-6.0-2.20","3299159","co38824","norming","","","{""curiosity"":5,""confidence"":2}","[0,1]","../img/tt/078tt.jpg","",""
"5944","","","recognition","survey-text","149","645401","0.0-6.0-3.20","3299159","co38824","norming","","","{""guess"":""chicken""}","","../img/tt/078tt.jpg","",""
"null","../img/gs/078gs.jpg","null","reveal","image-keyboard-response","150","647404","0.0-6.0-4.20","3299159","co38824","norming","","","","","","",""
"null","../img/tt/078tt.jpg","null","mooney2","image-keyboard-response","151","649425","0.0-6.0-5.20","3299159","co38824","norming","","","","","","",""
"2790","","","post_reveal_questions","survey-likert","152","652220","0.0-6.0-6.20","3299159","co38824","norming","","","{""aha"":4}","[0]","../img/tt/078tt.jpg","",""
"null","<div style=""font-size:60px;""> </div>","null","fixation","html-keyboard-response","153","652434","0.0-6.0-0.21","3299159","co38824","norming","","","","","","",""
"null","../img/tt/1072tt.jpg","null","mooney1","image-keyboard-response","154","655455","0.0-6.0-1.21","3299159","co38824","norming","","","","","","",""
"5514","","","post_mooney1_questions","survey-likert","155","660973","0.0-6.0-2.21","3299159","co38824","norming","","","{""curiosity"":5,""confidence"":3}","[0,1]","../img/tt/1072tt.jpg","",""
"7318","","","recognition","survey-text","156","668297","0.0-6.0-3.21","3299159","co38824","norming","","","{""guess"":""bakkery""}","","../img/tt/1072tt.jpg","",""
"null","../img/gs/1072gs.jpg","null","reveal","image-keyboard-response","157","670303","0.0-6.0-4.21","3299159","co38824","norming","","","","","","",""
"null","../img/tt/1072tt.jpg","null","mooney2","image-keyboard-response","158","672315","0.0-6.0-5.21","3299159","co38824","norming","","","","","","",""
"4665","","","post_reveal_questions","survey-likert","159","676982","0.0-6.0-6.21","3299159","co38824","norming","","","{""aha"":4}","[0]","../img/tt/1072tt.jpg","",""
"null","<div style=""font-size:60px;""> </div>","null","fixation","html-keyboard-response","160","677195","0.0-6.0-0.22","3299159","co38824","norming","","","","","","",""
"null","../img/tt/194tt.jpg","null","mooney1","image-keyboard-response","161","680215","0.0-6.0-1.22","3299159","co38824","norming","","","","","","",""
"5411","","","post_mooney1_questions","survey-likert","162","685630","0.0-6.0-2.22","3299159","co38824","norming","","","{""curiosity"":5,""confidence"":2}","[0,1]","../img/tt/194tt.jpg","",""
"4250","","","recognition","survey-text","163","689887","0.0-6.0-3.22","3299159","co38824","norming","","","{""guess"":""harp""}","","../img/tt/194tt.jpg","",""
"null","../img/gs/194gs.jpg","null","reveal","image-keyboard-response","164","691905","0.0-6.0-4.22","3299159","co38824","norming","","","","","","",""
"null","../img/tt/194tt.jpg","null","mooney2","image-keyboard-response","165","693925","0.0-6.0-5.22","3299159","co38824","norming","","","","","","",""
"4712","","","post_reveal_questions","survey-likert","166","698640","0.0-6.0-6.22","3299159","co38824","norming","","","{""aha"":2}","[0]","../img/tt/194tt.jpg","",""
"null","<div style=""font-size:60px;""> </div>","null","fixation","html-keyboard-response","167","698854","0.0-6.0-0.23","3299159","co38824","norming","","","","","","",""
"null","../img/tt/1235tt.jpg","null","mooney1","image-keyboard-response","168","701876","0.0-6.0-1.23","3299159","co38824","norming","","","","","","",""
"6221","","","post_mooney1_questions","survey-likert","169","708100","0.0-6.0-2.23","3299159","co38824","norming","","","{""curiosity"":1,""confidence"":1}","[0,1]","../img/tt/1235tt.jpg","",""
"3933","","","recognition","survey-text","170","712037","0.0-6.0-3.23","3299159","co38824","norming","","","{""guess"":""panda""}","","../img/tt/1235tt.jpg","",""
"null","../img/gs/1235gs.jpg","null","reveal","image-keyboard-response","171","714045","0.0-6.0-4.23","3299159","co38824","norming","","","","","","",""
"null","../img/tt/1235tt.jpg","null","mooney2","image-keyboard-response","172","716047","0.0-6.0-5.23","3299159","co38824","norming","","","","","","",""
"3411","","","post_reveal_questions","survey-likert","173","719459","0.0-6.0-6.23","3299159","co38824","norming","","","{""aha"":5}","[0]","../img/tt/1235tt.jpg","",""
"null","<div style=""font-size:60px;""> </div>","null","fixation","html-keyboard-response","174","719675","0.0-6.0-0.24","3299159","co38824","norming","","","","","","",""
"null","../img/tt/507tt.jpg","null","mooney1","image-keyboard-response","175","722684","0.0-6.0-1.24","3299159","co38824","norming","","","","","","",""
"6153","","","post_mooney1_questions","survey-likert","176","728841","0.0-6.0-2.24","3299159","co38824","norming","","","{""curiosity"":3,""confidence"":5}","[0,1]","../img/tt/507tt.jpg","",""
"4457","","","recognition","survey-text","177","733300","0.0-6.0-3.24","3299159","co38824","norming","","","{""guess"":""theater""}","","../img/tt/507tt.jpg","",""
"null","../img/gs/507gs.jpg","null","reveal","image-keyboard-response","178","735316","0.0-6.0-4.24","3299159","co38824","norming","","","","","","",""
"null","../img/tt/507tt.jpg","null","mooney2","image-keyboard-response","179","737327","0.0-6.0-5.24","3299159","co38824","norming","","","","","","",""
"3893","","","post_reveal_questions","survey-likert","180","741220","0.0-6.0-6.24","3299159","co38824","norming","","","{""aha"":6}","[0]","../img/tt/507tt.jpg","",""
"null","<div style=""font-size:60px;""> </div>","null","fixation","html-keyboard-response","181","741435","0.0-6.0-0.25","3299159","co38824","norming","","","","","","",""
"null","../img/tt/1046tt.jpg","null","mooney1","image-keyboard-response","182","744455","0.0-6.0-1.25","3299159","co38824","norming","","","","","","",""
"5476","","","post_mooney1_questions","survey-likert","183","749934","0.0-6.0-2.25","3299159","co38824","norming","","","{""curiosity"":5,""confidence"":2}","[0,1]","../img/tt/1046tt.jpg","",""
"1192","","","recognition","survey-text","184","751132","0.0-6.0-3.25","3299159","co38824","norming","","","{""guess"":""""}","","../img/tt/1046tt.jpg","",""
"null","../img/gs/1046gs.jpg","null","reveal","image-keyboard-response","185","753145","0.0-6.0-4.25","3299159","co38824","norming","","","","","","",""
"null","../img/tt/1046tt.jpg","null","mooney2","image-keyboard-response","186","755164","0.0-6.0-5.25","3299159","co38824","norming","","","","","","",""
"4741","","","post_reveal_questions","survey-likert","187","759909","0.0-6.0-6.25","3299159","co38824","norming","","","{""aha"":3}","[0]","../img/tt/1046tt.jpg","",""
"null","<div style=""font-size:60px;""> </div>","null","fixation","html-keyboard-response","188","760125","0.0-6.0-0.26","3299159","co38824","norming","","","","","","",""
"null","../img/tt/380tt.jpg","null","mooney1","image-keyboard-response","189","763145","0.0-6.0-1.26","3299159","co38824","norming","","","","","","",""
"6062","","","post_mooney1_questions","survey-likert","190","769209","0.0-6.0-2.26","3299159","co38824","norming","","","{""curiosity"":4,""confidence"":1}","[0,1]","../img/tt/380tt.jpg","",""
"1414","","","recognition","survey-text","191","770628","0.0-6.0-3.26","3299159","co38824","norming","","","{""guess"":""""}","","../img/tt/380tt.jpg","",""
"null","../img/gs/380gs.jpg","null","reveal","image-keyboard-response","192","772644","0.0-6.0-4.26","3299159","co38824","norming","","","","","","",""
"null","../img/tt/380tt.jpg","null","mooney2","image-keyboard-response","193","774665","0.0-6.0-5.26","3299159","co38824","norming","","","","","","",""
"4031","","","post_reveal_questions","survey-likert","194","778697","0.0-6.0-6.26","3299159","co38824","norming","","","{""aha"":5}","[0]","../img/tt/380tt.jpg","",""
"null","<div style=""font-size:60px;""> </div>","null","fixation","html-keyboard-response","195","778914","0.0-6.0-0.27","3299159","co38824","norming","","","","","","",""
"null","../img/tt/1033tt.jpg","null","mooney1","image-keyboard-response","196","781935","0.0-6.0-1.27","3299159","co38824","norming","","","","","","",""
"6161","","","post_mooney1_questions","survey-likert","197","788100","0.0-6.0-2.27","3299159","co38824","norming","","","{""curiosity"":5,""confidence"":1}","[0,1]","../img/tt/1033tt.jpg","",""
"7053","","","recognition","survey-text","198","795157","0.0-6.0-3.27","3299159","co38824","norming","","","{""guess"":""boogschieten""}","","../img/tt/1033tt.jpg","",""
"null","../img/gs/1033gs.jpg","null","reveal","image-keyboard-response","199","797175","0.0-6.0-4.27","3299159","co38824","norming","","","","","","",""
"null","../img/tt/1033tt.jpg","null","mooney2","image-keyboard-response","200","799185","0.0-6.0-5.27","3299159","co38824","norming","","","","","","",""
"4739","","","post_reveal_questions","survey-likert","201","803928","0.0-6.0-6.27","3299159","co38824","norming","","","{""aha"":3}","[0]","../img/tt/1033tt.jpg","",""
"null","<div style=""font-size:60px;""> </div>","null","fixation","html-keyboard-response","202","804144","0.0-6.0-0.28","3299159","co38824","norming","","","","","","",""
"null","../img/tt/1275tt.jpg","null","mooney1","image-keyboard-response","203","807165","0.0-6.0-1.28","3299159","co38824","norming","","","","","","",""
"6100","","","post_mooney1_questions","survey-likert","204","813270","0.0-6.0-2.28","3299159","co38824","norming","","","{""curiosity"":4,""confidence"":4}","[0,1]","../img/tt/1275tt.jpg","",""
"3316","","","recognition","survey-text","205","816592","0.0-6.0-3.28","3299159","co38824","norming","","","{""guess"":""lion""}","","../img/tt/1275tt.jpg","",""
"null","../img/gs/1275gs.jpg","null","reveal","image-keyboard-response","206","818605","0.0-6.0-4.28","3299159","co38824","norming","","","","","","",""
"null","../img/tt/1275tt.jpg","null","mooney2","image-keyboard-response","207","820615","0.0-6.0-5.28","3299159","co38824","norming","","","","","","",""
"4962","","","post_reveal_questions","survey-likert","208","825578","0.0-6.0-6.28","3299159","co38824","norming","","","{""aha"":4}","[0]","../img/tt/1275tt.jpg","",""
"null","<div style=""font-size:60px;""> </div>","null","fixation","html-keyboard-response","209","825784","0.0-6.0-0.29","3299159","co38824","norming","","","","","","",""
"null","../img/tt/1024tt.jpg","null","mooney1","image-keyboard-response","210","828805","0.0-6.0-1.29","3299159","co38824","norming","","","","","","",""
"5224","","","post_mooney1_questions","survey-likert","211","834031","0.0-6.0-2.29","3299159","co38824","norming","","","{""curiosity"":5,""confidence"":1}","[0,1]","../img/tt/1024tt.jpg","",""
"3994","","","recognition","survey-text","212","838029","0.0-6.0-3.29","3299159","co38824","norming","","","{""guess"":""river""}","","../img/tt/1024tt.jpg","",""
"null","../img/gs/1024gs.jpg","null","reveal","image-keyboard-response","213","840035","0.0-6.0-4.29","3299159","co38824","norming","","","","","","",""
"null","../img/tt/1024tt.jpg","null","mooney2","image-keyboard-response","214","842055","0.0-6.0-5.29","3299159","co38824","norming","","","","","","",""
"2852","","","post_reveal_questions","survey-likert","215","844910","0.0-6.0-6.29","3299159","co38824","norming","","","{""aha"":2}","[0]","../img/tt/1024tt.jpg","",""
"null","<div style=""font-size:60px;""> </div>","null","fixation","html-keyboard-response","216","845125","0.0-6.0-0.30","3299159","co38824","norming","","","","","","",""
"null","../img/tt/1217tt.jpg","null","mooney1","image-keyboard-response","217","848145","0.0-6.0-1.30","3299159","co38824","norming","","","","","","",""
"5780","","","post_mooney1_questions","survey-likert","218","853930","0.0-6.0-2.30","3299159","co38824","norming","","","{""curiosity"":0,""confidence"":6}","[0,1]","../img/tt/1217tt.jpg","",""
"4704","","","recognition","survey-text","219","858640","0.0-6.0-3.30","3299159","co38824","norming","","","{""guess"":""basket""}","","../img/tt/1217tt.jpg","",""
"null","../img/gs/1217gs.jpg","null","reveal","image-keyboard-response","220","860655","0.0-6.0-4.30","3299159","co38824","norming","","","","","","",""
"null","../img/tt/1217tt.jpg","null","mooney2","image-keyboard-response","221","862662","0.0-6.0-5.30","3299159","co38824","norming","","","","","","",""
"3386","","","post_reveal_questions","survey-likert","222","866051","0.0-6.0-6.30","3299159","co38824","norming","","","{""aha"":2}","[0]","../img/tt/1217tt.jpg","",""
"null","<div style=""font-size:60px;""> </div>","null","fixation","html-keyboard-response","223","866265","0.0-6.0-0.31","3299159","co38824","norming","","","","","","",""
"null","../img/tt/378tt.jpg","null","mooney1","image-keyboard-response","224","869274","0.0-6.0-1.31","3299159","co38824","norming","","","","","","",""
"5532","","","post_mooney1_questions","survey-likert","225","874810","0.0-6.0-2.31","3299159","co38824","norming","","","{""curiosity"":5,""confidence"":1}","[0,1]","../img/tt/378tt.jpg","",""
"1753","","","recognition","survey-text","226","876568","0.0-6.0-3.31","3299159","co38824","norming","","","{""guess"":""""}","","../img/tt/378tt.jpg","",""
"null","../img/gs/378gs.jpg","null","reveal","image-keyboard-response","227","878575","0.0-6.0-4.31","3299159","co38824","norming","","","","","","",""
"null","../img/tt/378tt.jpg","null","mooney2","image-keyboard-response","228","880594","0.0-6.0-5.31","3299159","co38824","norming","","","","","","",""
"5635","","","post_reveal_questions","survey-likert","229","886231","0.0-6.0-6.31","3299159","co38824","norming","","","{""aha"":5}","[0]","../img/tt/378tt.jpg","",""
"null","<div style=""font-size:60px;""> </div>","null","fixation","html-keyboard-response","230","886444","0.0-6.0-0.32","3299159","co38824","norming","","","","","","",""
"null","../img/tt/353tt.jpg","null","mooney1","image-keyboard-response","231","889465","0.0-6.0-1.32","3299159","co38824","norming","","","","","","",""
"9524","","","post_mooney1_questions","survey-likert","232","898990","0.0-6.0-2.32","3299159","co38824","norming","","","{""curiosity"":3,""confidence"":3}","[0,1]","../img/tt/353tt.jpg","",""
"4436","","","recognition","survey-text","233","903429","0.0-6.0-3.32","3299159","co38824","norming","","","{""guess"":""pingiun""}","","../img/tt/353tt.jpg","",""
"null","../img/gs/353gs.jpg","null","reveal","image-keyboard-response","234","905435","0.0-6.0-4.32","3299159","co38824","norming","","","","","","",""
"null","../img/tt/353tt.jpg","null","mooney2","image-keyboard-response","235","907445","0.0-6.0-5.32","3299159","co38824","norming","","","","","","",""
"4281","","","post_reveal_questions","survey-likert","236","911728","0.0-6.0-6.32","3299159","co38824","norming","","","{""aha"":4}","[0]","../img/tt/353tt.jpg","",""
"null","<div style=""font-size:60px;""> </div>","null","fixation","html-keyboard-response","237","911945","0.0-6.0-0.33","3299159","co38824","norming","","","","","","",""
"null","../img/tt/329tt.jpg","null","mooney1","image-keyboard-response","238","914966","0.0-6.0-1.33","3299159","co38824","norming","","","","","","",""
"5626","","","post_mooney1_questions","survey-likert","239","920593","0.0-6.0-2.33","3299159","co38824","norming","","","{""curiosity"":6,""confidence"":3}","[0,1]","../img/tt/329tt.jpg","",""
"1570","","","recognition","survey-text","240","922168","0.0-6.0-3.33","3299159","co38824","norming","","","{""guess"":""""}","","../img/tt/329tt.jpg","",""
"null","../img/gs/329gs.jpg","null","reveal","image-keyboard-response","241","924185","0.0-6.0-4.33","3299159","co38824","norming","","","","","","",""
"null","../img/tt/329tt.jpg","null","mooney2","image-keyboard-response","242","926204","0.0-6.0-5.33","3299159","co38824","norming","","","","","","",""
"4111","","","post_reveal_questions","survey-likert","243","930319","0.0-6.0-6.33","3299159","co38824","norming","","","{""aha"":0}","[0]","../img/tt/329tt.jpg","",""
"null","<div style=""font-size:60px;""> </div>","null","fixation","html-keyboard-response","244","930534","0.0-6.0-0.34","3299159","co38824","norming","","","","","","",""
"null","../img/tt/515tt.jpg","null","mooney1","image-keyboard-response","245","933555","0.0-6.0-1.34","3299159","co38824","norming","","","","","","",""
"6178","","","post_mooney1_questions","survey-likert","246","939737","0.0-6.0-2.34","3299159","co38824","norming","","","{""curiosity"":5,""confidence"":1}","[0,1]","../img/tt/515tt.jpg","",""
"1481","","","recognition","survey-text","247","941220","0.0-6.0-3.34","3299159","co38824","norming","","","{""guess"":""""}","","../img/tt/515tt.jpg","",""
"null","../img/gs/515gs.jpg","null","reveal","image-keyboard-response","248","943234","0.0-6.0-4.34","3299159","co38824","norming","","","","","","",""
"null","../img/tt/515tt.jpg","null","mooney2","image-keyboard-response","249","945244","0.0-6.0-5.34","3299159","co38824","norming","","","","","","",""
"3162","","","post_reveal_questions","survey-likert","250","948408","0.0-6.0-6.34","3299159","co38824","norming","","","{""aha"":1}","[0]","../img/tt/515tt.jpg","",""
"null","<div style=""font-size:60px;""> </div>","null","fixation","html-keyboard-response","251","948614","0.0-6.0-0.35","3299159","co38824","norming","","","","","","",""
"null","../img/tt/1080tt.jpg","null","mooney1","image-keyboard-response","252","951625","0.0-6.0-1.35","3299159","co38824","norming","","","","","","",""
"7845","","","post_mooney1_questions","survey-likert","253","959473","0.0-6.0-2.35","3299159","co38824","norming","","","{""curiosity"":5,""confidence"":1}","[0,1]","../img/tt/1080tt.jpg","",""
"5504","","","recognition","survey-text","254","964983","0.0-6.0-3.35","3299159","co38824","norming","","","{""guess"":""sea""}","","../img/tt/1080tt.jpg","",""
"null","../img/gs/1080gs.jpg","null","reveal","image-keyboard-response","255","966996","0.0-6.0-4.35","3299159","co38824","norming","","","","","","",""
"null","../img/tt/1080tt.jpg","null","mooney2","image-keyboard-response","256","969014","0.0-6.0-5.35","3299159","co38824","norming","","","","","","",""
"4665","","","post_reveal_questions","survey-likert","257","973681","0.0-6.0-6.35","3299159","co38824","norming","","","{""aha"":4}","[0]","../img/tt/1080tt.jpg","",""
"null","<div style=""font-size:60px;""> </div>","null","fixation","html-keyboard-response","258","973895","0.0-6.0-0.36","3299159","co38824","norming","","","","","","",""
"null","../img/tt/1202tt.jpg","null","mooney1","image-keyboard-response","259","976915","0.0-6.0-1.36","3299159","co38824","norming","","","","","","",""
"6272","","","post_mooney1_questions","survey-likert","260","983190","0.0-6.0-2.36","3299159","co38824","norming","","","{""curiosity"":5,""confidence"":0}","[0,1]","../img/tt/1202tt.jpg","",""
"1589","","","recognition","survey-text","261","984781","0.0-6.0-3.36","3299159","co38824","norming","","","{""guess"":""""}","","../img/tt/1202tt.jpg","",""
"null","../img/gs/1202gs.jpg","null","reveal","image-keyboard-response","262","986795","0.0-6.0-4.36","3299159","co38824","norming","","","","","","",""
"null","../img/tt/1202tt.jpg","null","mooney2","image-keyboard-response","263","988815","0.0-6.0-5.36","3299159","co38824","norming","","","","","","",""
"11333","","","post_reveal_questions","survey-likert","264","1000149","0.0-6.0-6.36","3299159","co38824","norming","","","{""aha"":2}","[0]","../img/tt/1202tt.jpg","",""
"null","<div style=""font-size:60px;""> </div>","null","fixation","html-keyboard-response","265","1000364","0.0-6.0-0.37","3299159","co38824","norming","","","","","","",""
"null","../img/tt/496tt.jpg","null","mooney1","image-keyboard-response","266","1003374","0.0-6.0-1.37","3299159","co38824","norming","","","","","","",""
"5880","","","post_mooney1_questions","survey-likert","267","1009257","0.0-6.0-2.37","3299159","co38824","norming","","","{""curiosity"":6,""confidence"":3}","[0,1]","../img/tt/496tt.jpg","",""
"9579","","","recognition","survey-text","268","1018841","0.0-6.0-3.37","3299159","co38824","norming","","","{""guess"":""""}","","../img/tt/496tt.jpg","",""
"null","../img/gs/496gs.jpg","null","reveal","image-keyboard-response","269","1020856","0.0-6.0-4.37","3299159","co38824","norming","","","","","","",""
"null","../img/tt/496tt.jpg","null","mooney2","image-keyboard-response","270","1022874","0.0-6.0-5.37","3299159","co38824","norming","","","","","","",""
"2885","","","post_reveal_questions","survey-likert","271","1025761","0.0-6.0-6.37","3299159","co38824","norming","","","{""aha"":2}","[0]","../img/tt/496tt.jpg","",""
"null","<div style=""font-size:60px;""> </div>","null","fixation","html-keyboard-response","272","1025975","0.0-6.0-0.38","3299159","co38824","norming","","","","","","",""
"null","../img/tt/534tt.jpg","null","mooney1","image-keyboard-response","273","1028985","0.0-6.0-1.38","3299159","co38824","norming","","","","","","",""
"6462","","","post_mooney1_questions","survey-likert","274","1035449","0.0-6.0-2.38","3299159","co38824","norming","","","{""curiosity"":3,""confidence"":3}","[0,1]","../img/tt/534tt.jpg","",""
"5542","","","recognition","survey-text","275","1040998","0.0-6.0-3.38","3299159","co38824","norming","","","{""guess"":""cactus""}","","../img/tt/534tt.jpg","",""
"null","../img/gs/534gs.jpg","null","reveal","image-keyboard-response","276","1043004","0.0-6.0-4.38","3299159","co38824","norming","","","","","","",""
"null","../img/tt/534tt.jpg","null","mooney2","image-keyboard-response","277","1045024","0.0-6.0-5.38","3299159","co38824","norming","","","","","","",""
"3100","","","post_reveal_questions","survey-likert","278","1048128","0.0-6.0-6.38","3299159","co38824","norming","","","{""aha"":3}","[0]","../img/tt/534tt.jpg","",""
"null","<div style=""font-size:60px;""> </div>","null","fixation","html-keyboard-response","279","1048343","0.0-6.0-0.39","3299159","co38824","norming","","","","","","",""
"null","../img/tt/1156tt.jpg","null","mooney1","image-keyboard-response","280","1051345","0.0-6.0-1.39","3299159","co38824","norming","","","","","","",""
"4980","","","post_mooney1_questions","survey-likert","281","1056327","0.0-6.0-2.39","3299159","co38824","norming","","","{""curiosity"":2,""confidence"":1}","[0,1]","../img/tt/1156tt.jpg","",""
"5477","","","recognition","survey-text","282","1061807","0.0-6.0-3.39","3299159","co38824","norming","","","{""guess"":""stone""}","","../img/tt/1156tt.jpg","",""
"null","../img/gs/1156gs.jpg","null","reveal","image-keyboard-response","283","1063825","0.0-6.0-4.39","3299159","co38824","norming","","","","","","",""
"null","../img/tt/1156tt.jpg","null","mooney2","image-keyboard-response","284","1065836","0.0-6.0-5.39","3299159","co38824","norming","","","","","","",""
"3113","","","post_reveal_questions","survey-likert","285","1068949","0.0-6.0-6.39","3299159","co38824","norming","","","{""aha"":3}","[0]","../img/tt/1156tt.jpg","",""
"null","<div style=""font-size:60px;""> </div>","null","fixation","html-keyboard-response","286","1069164","0.0-6.0-0.40","3299159","co38824","norming","","","","","","",""
"null","../img/tt/456tt.jpg","null","mooney1","image-keyboard-response","287","1072185","0.0-6.0-1.40","3299159","co38824","norming","","","","","","",""
"9753","","","post_mooney1_questions","survey-likert","288","1081941","0.0-6.0-2.40","3299159","co38824","norming","","","{""curiosity"":2,""confidence"":1}","[0,1]","../img/tt/456tt.jpg","",""
"3692","","","recognition","survey-text","289","1085639","0.0-6.0-3.40","3299159","co38824","norming","","","{""guess"":""bear""}","","../img/tt/456tt.jpg","",""
"null","../img/gs/456gs.jpg","null","reveal","image-keyboard-response","290","1087645","0.0-6.0-4.40","3299159","co38824","norming","","","","","","",""
"null","../img/tt/456tt.jpg","null","mooney2","image-keyboard-response","291","1089664","0.0-6.0-5.40","3299159","co38824","norming","","","","","","",""
"2991","","","post_reveal_questions","survey-likert","292","1092659","0.0-6.0-6.40","3299159","co38824","norming","","","{""aha"":3}","[0]","../img/tt/456tt.jpg","",""
"null","<div style=""font-size:60px;""> </div>","null","fixation","html-keyboard-response","293","1092874","0.0-6.0-0.41","3299159","co38824","norming","","","","","","",""
"null","../img/tt/010tt.jpg","null","mooney1","image-keyboard-response","294","1095896","0.0-6.0-1.41","3299159","co38824","norming","","","","","","",""
"5542","","","post_mooney1_questions","survey-likert","295","1101440","0.0-6.0-2.41","3299159","co38824","norming","","","{""curiosity"":1,""confidence"":1}","[0,1]","../img/tt/010tt.jpg","",""
"6357","","","recognition","survey-text","296","1107802","0.0-6.0-3.41","3299159","co38824","norming","","","{""guess"":""vogel""}","","../img/tt/010tt.jpg","",""
"null","../img/gs/010gs.jpg","null","reveal","image-keyboard-response","297","1109815","0.0-6.0-4.41","3299159","co38824","norming","","","","","","",""
"null","../img/tt/010tt.jpg","null","mooney2","image-keyboard-response","298","1111834","0.0-6.0-5.41","3299159","co38824","norming","","","","","","",""
"5845","","","post_reveal_questions","survey-likert","299","1117682","0.0-6.0-6.41","3299159","co38824","norming","","","{""aha"":1}","[0]","../img/tt/010tt.jpg","",""
"null","<div style=""font-size:60px;""> </div>","null","fixation","html-keyboard-response","300","1117894","0.0-6.0-0.42","3299159","co38824","norming","","","","","","",""
"null","../img/tt/524tt.jpg","null","mooney1","image-keyboard-response","301","1120904","0.0-6.0-1.42","3299159","co38824","norming","","","","","","",""
"5803","","","post_mooney1_questions","survey-likert","302","1126709","0.0-6.0-2.42","3299159","co38824","norming","","","{""curiosity"":0,""confidence"":6}","[0,1]","../img/tt/524tt.jpg","",""
"5557","","","recognition","survey-text","303","1132270","0.0-6.0-3.42","3299159","co38824","norming","","","{""guess"":""olifant""}","","../img/tt/524tt.jpg","",""
"null","../img/gs/524gs.jpg","null","reveal","image-keyboard-response","304","1134275","0.0-6.0-4.42","3299159","co38824","norming","","","","","","",""
"null","../img/tt/524tt.jpg","null","mooney2","image-keyboard-response","305","1136295","0.0-6.0-5.42","3299159","co38824","norming","","","","","","",""
"10871","","","post_reveal_questions","survey-likert","306","1147167","0.0-6.0-6.42","3299159","co38824","norming","","","{""aha"":2}","[0]","../img/tt/524tt.jpg","",""
"null","<div style=""font-size:60px;""> </div>","null","fixation","html-keyboard-response","307","1147385","0.0-6.0-0.43","3299159","co38824","norming","","","","","","",""
"null","../img/tt/044tt.jpg","null","mooney1","image-keyboard-response","308","1150405","0.0-6.0-1.43","3299159","co38824","norming","","","","","","",""
"10970","","","post_mooney1_questions","survey-likert","309","1161377","0.0-6.0-2.43","3299159","co38824","norming","","","{""curiosity"":2,""confidence"":4}","[0,1]","../img/tt/044tt.jpg","",""
"5436","","","recognition","survey-text","310","1166817","0.0-6.0-3.43","3299159","co38824","norming","","","{""guess"":""computer""}","","../img/tt/044tt.jpg","",""
"null","../img/gs/044gs.jpg","null","reveal","image-keyboard-response","311","1168835","0.0-6.0-4.43","3299159","co38824","norming","","","","","","",""
"null","../img/tt/044tt.jpg","null","mooney2","image-keyboard-response","312","1170854","0.0-6.0-5.43","3299159","co38824","norming","","","","","","",""
"3742","","","post_reveal_questions","survey-likert","313","1174598","0.0-6.0-6.43","3299159","co38824","norming","","","{""aha"":0}","[0]","../img/tt/044tt.jpg","",""
"null","<div style=""font-size:60px;""> </div>","null","fixation","html-keyboard-response","314","1174814","0.0-6.0-0.44","3299159","co38824","norming","","","","","","",""
"null","../img/tt/412tt.jpg","null","mooney1","image-keyboard-response","315","1177824","0.0-6.0-1.44","3299159","co38824","norming","","","","","","",""
"6822","","","post_mooney1_questions","survey-likert","316","1184649","0.0-6.0-2.44","3299159","co38824","norming","","","{""curiosity"":2,""confidence"":2}","[0,1]","../img/tt/412tt.jpg","",""
"4674","","","recognition","survey-text","317","1189328","0.0-6.0-3.44","3299159","co38824","norming","","","{""guess"":""couple""}","","../img/tt/412tt.jpg","",""
"null","../img/gs/412gs.jpg","null","reveal","image-keyboard-response","318","1191334","0.0-6.0-4.44","3299159","co38824","norming","","","","","","",""
"null","../img/tt/412tt.jpg","null","mooney2","image-keyboard-response","319","1193354","0.0-6.0-5.44","3299159","co38824","norming","","","","","","",""
"3654","","","post_reveal_questions","survey-likert","320","1197013","0.0-6.0-6.44","3299159","co38824","norming","","","{""aha"":0}","[0]","../img/tt/412tt.jpg","",""
"null","<div style=""font-size:60px;""> </div>","null","fixation","html-keyboard-response","321","1197224","0.0-6.0-0.45","3299159","co38824","norming","","","","","","",""
"null","../img/tt/1278tt.jpg","null","mooney1","image-keyboard-response","322","1200245","0.0-6.0-1.45","3299159","co38824","norming","","","","","","",""
"9026","","","post_mooney1_questions","survey-likert","323","1209280","0.0-6.0-2.45","3299159","co38824","norming","","","{""curiosity"":6,""confidence"":1}","[0,1]","../img/tt/1278tt.jpg","",""
"1415","","","recognition","survey-text","324","1210701","0.0-6.0-3.45","3299159","co38824","norming","","","{""guess"":""""}","","../img/tt/1278tt.jpg","",""
"null","../img/gs/1278gs.jpg","null","reveal","image-keyboard-response","325","1212714","0.0-6.0-4.45","3299159","co38824","norming","","","","","","",""
"null","../img/tt/1278tt.jpg","null","mooney2","image-keyboard-response","326","1214735","0.0-6.0-5.45","3299159","co38824","norming","","","","","","",""
"3219","","","post_reveal_questions","survey-likert","327","1217958","0.0-6.0-6.45","3299159","co38824","norming","","","{""aha"":2}","[0]","../img/tt/1278tt.jpg","",""
"null","<div style=""font-size:60px;""> </div>","null","fixation","html-keyboard-response","328","1218175","0.0-6.0-0.46","3299159","co38824","norming","","","","","","",""
"null","../img/tt/1189tt.jpg","null","mooney1","image-keyboard-response","329","1221186","0.0-6.0-1.46","3299159","co38824","norming","","","","","","",""
"5831","","","post_mooney1_questions","survey-likert","330","1227021","0.0-6.0-2.46","3299159","co38824","norming","","","{""curiosity"":0,""confidence"":1}","[0,1]","../img/tt/1189tt.jpg","",""
"5303","","","recognition","survey-text","331","1232330","0.0-6.0-3.46","3299159","co38824","norming","","","{""guess"":""markt""}","","../img/tt/1189tt.jpg","",""
"null","../img/gs/1189gs.jpg","null","reveal","image-keyboard-response","332","1234344","0.0-6.0-4.46","3299159","co38824","norming","","","","","","",""
"null","../img/tt/1189tt.jpg","null","mooney2","image-keyboard-response","333","1236364","0.0-6.0-5.46","3299159","co38824","norming","","","","","","",""
"4043","","","post_reveal_questions","survey-likert","334","1240409","0.0-6.0-6.46","3299159","co38824","norming","","","{""aha"":5}","[0]","../img/tt/1189tt.jpg","",""
"null","<div style=""font-size:60px;""> </div>","null","fixation","html-keyboard-response","335","1240624","0.0-6.0-0.47","3299159","co38824","norming","","","","","","",""
"null","../img/tt/121tt.jpg","null","mooney1","image-keyboard-response","336","1243645","0.0-6.0-1.47","3299159","co38824","norming","","","","","","",""
"5381","","","post_mooney1_questions","survey-likert","337","1249029","0.0-6.0-2.47","3299159","co38824","norming","","","{""curiosity"":3,""confidence"":3}","[0,1]","../img/tt/121tt.jpg","",""
"5423","","","recognition","survey-text","338","1254458","0.0-6.0-3.47","3299159","co38824","norming","","","{""guess"":""flamingo""}","","../img/tt/121tt.jpg","",""
"null","../img/gs/121gs.jpg","null","reveal","image-keyboard-response","339","1256475","0.0-6.0-4.47","3299159","co38824","norming","","","","","","",""
"null","../img/tt/121tt.jpg","null","mooney2","image-keyboard-response","340","1258494","0.0-6.0-5.47","3299159","co38824","norming","","","","","","",""
"3639","","","post_reveal_questions","survey-likert","341","1262144","0.0-6.0-6.47","3299159","co38824","norming","","","{""aha"":5}","[0]","../img/tt/121tt.jpg","",""
"null","<div style=""font-size:60px;""> </div>","null","fixation","html-keyboard-response","342","1262355","0.0-6.0-0.48","3299159","co38824","norming","","","","","","",""
"null","../img/tt/468tt.jpg","null","mooney1","image-keyboard-response","343","1265366","0.0-6.0-1.48","3299159","co38824","norming","","","","","","",""
"6530","","","post_mooney1_questions","survey-likert","344","1271902","0.0-6.0-2.48","3299159","co38824","norming","","","{""curiosity"":3,""confidence"":3}","[0,1]","../img/tt/468tt.jpg","",""
"1689","","","recognition","survey-text","345","1273600","0.0-6.0-3.48","3299159","co38824","norming","","","{""guess"":""""}","","../img/tt/468tt.jpg","",""
"null","../img/gs/468gs.jpg","null","reveal","image-keyboard-response","346","1275615","0.0-6.0-4.48","3299159","co38824","norming","","","","","","",""
"null","../img/tt/468tt.jpg","null","mooney2","image-keyboard-response","347","1277624","0.0-6.0-5.48","3299159","co38824","norming","","","","","","",""
"2789","","","post_reveal_questions","survey-likert","348","1280417","0.0-6.0-6.48","3299159","co38824","norming","","","{""aha"":3}","[0]","../img/tt/468tt.jpg","",""
"null","<div style=""font-size:60px;""> </div>","null","fixation","html-keyboard-response","349","1280635","0.0-6.0-0.49","3299159","co38824","norming","","","","","","",""
"null","../img/tt/1261tt.jpg","null","mooney1","image-keyboard-response","350","1283655","0.0-6.0-1.49","3299159","co38824","norming","","","","","","",""
"5103","","","post_mooney1_questions","survey-likert","351","1288761","0.0-6.0-2.49","3299159","co38824","norming","","","{""curiosity"":4,""confidence"":1}","[0,1]","../img/tt/1261tt.jpg","",""
"4352","","","recognition","survey-text","352","1293115","0.0-6.0-3.49","3299159","co38824","norming","","","{""guess"":""train""}","","../img/tt/1261tt.jpg","",""
"null","../img/gs/1261gs.jpg","null","reveal","image-keyboard-response","353","1295135","0.0-6.0-4.49","3299159","co38824","norming","","","","","","",""
"null","../img/tt/1261tt.jpg","null","mooney2","image-keyboard-response","354","1297154","0.0-6.0-5.49","3299159","co38824","norming","","","","","","",""
"3301","","","post_reveal_questions","survey-likert","355","1300459","0.0-6.0-6.49","3299159","co38824","norming","","","{""aha"":3}","[0]","../img/tt/1261tt.jpg","",""
"null","<div style=""font-size:60px;""> </div>","null","fixation","html-keyboard-response","356","1300674","0.0-6.0-0.50","3299159","co38824","norming","","","","","","",""
"null","../img/tt/140tt.jpg","null","mooney1","image-keyboard-response","357","1303695","0.0-6.0-1.50","3299159","co38824","norming","","","","","","",""
"4551","","","post_mooney1_questions","survey-likert","358","1308250","0.0-6.0-2.50","3299159","co38824","norming","","","{""curiosity"":4,""confidence"":3}","[0,1]","../img/tt/140tt.jpg","",""
"3764","","","recognition","survey-text","359","1312019","0.0-6.0-3.50","3299159","co38824","norming","","","{""guess"":""""}","","../img/tt/140tt.jpg","",""
"null","../img/gs/140gs.jpg","null","reveal","image-keyboard-response","360","1314034","0.0-6.0-4.50","3299159","co38824","norming","","","","","","",""
"null","../img/tt/140tt.jpg","null","mooney2","image-keyboard-response","361","1316054","0.0-6.0-5.50","3299159","co38824","norming","","","","","","",""
"5544","","","post_reveal_questions","survey-likert","362","1321603","0.0-6.0-6.50","3299159","co38824","norming","","","{""aha"":3}","[0]","../img/tt/140tt.jpg","",""
"null","<div style=""font-size:60px;""> </div>","null","fixation","html-keyboard-response","363","1321814","0.0-6.0-0.51","3299159","co38824","norming","","","","","","",""
"null","../img/tt/1044tt.jpg","null","mooney1","image-keyboard-response","364","1324825","0.0-6.0-1.51","3299159","co38824","norming","","","","","","",""
"6501","","","post_mooney1_questions","survey-likert","365","1331336","0.0-6.0-2.51","3299159","co38824","norming","","","{""curiosity"":1,""confidence"":2}","[0,1]","../img/tt/1044tt.jpg","",""
"3062","","","recognition","survey-text","366","1334409","0.0-6.0-3.51","3299159","co38824","norming","","","{""guess"":""""}","","../img/tt/1044tt.jpg","",""
"null","../img/gs/1044gs.jpg","null","reveal","image-keyboard-response","367","1336434","0.0-6.0-4.51","3299159","co38824","norming","","","","","","",""
"null","../img/tt/1044tt.jpg","null","mooney2","image-keyboard-response","368","1338454","0.0-6.0-5.51","3299159","co38824","norming","","","","","","",""
"4053","","","post_reveal_questions","survey-likert","369","1342512","0.0-6.0-6.51","3299159","co38824","norming","","","{""aha"":3}","[0]","../img/tt/1044tt.jpg","",""
"null","<div style=""font-size:60px;""> </div>","null","fixation","html-keyboard-response","370","1342724","0.0-6.0-0.52","3299159","co38824","norming","","","","","","",""
"null","../img/tt/135tt.jpg","null","mooney1","image-keyboard-response","371","1345745","0.0-6.0-1.52","3299159","co38824","norming","","","","","","",""
"5020","","","post_mooney1_questions","survey-likert","372","1350770","0.0-6.0-2.52","3299159","co38824","norming","","","{""curiosity"":3,""confidence"":1}","[0,1]","../img/tt/135tt.jpg","",""
"5234","","","recognition","survey-text","373","1356010","0.0-6.0-3.52","3299159","co38824","norming","","","{""guess"":""wc""}","","../img/tt/135tt.jpg","",""
"null","../img/gs/135gs.jpg","null","reveal","image-keyboard-response","374","1358015","0.0-6.0-4.52","3299159","co38824","norming","","","","","","",""
"null","../img/tt/135tt.jpg","null","mooney2","image-keyboard-response","375","1360032","0.0-6.0-5.52","3299159","co38824","norming","","","","","","",""
"4563","","","post_reveal_questions","survey-likert","376","1364599","0.0-6.0-6.52","3299159","co38824","norming","","","{""aha"":3}","[0]","../img/tt/135tt.jpg","",""
"null","<div style=""font-size:60px;""> </div>","null","fixation","html-keyboard-response","377","1364814","0.0-6.0-0.53","3299159","co38824","norming","","","","","","",""
"null","../img/tt/085tt.jpg","null","mooney1","image-keyboard-response","378","1367835","0.0-6.0-1.53","3299159","co38824","norming","","","","","","",""
"5765","","","post_mooney1_questions","survey-likert","379","1373603","0.0-6.0-2.53","3299159","co38824","norming","","","{""curiosity"":3,""confidence"":2}","[0,1]","../img/tt/085tt.jpg","",""
"4422","","","recognition","survey-text","380","1378030","0.0-6.0-3.53","3299159","co38824","norming","","","{""guess"":""body""}","","../img/tt/085tt.jpg","",""
"null","../img/gs/085gs.jpg","null","reveal","image-keyboard-response","381","1380043","0.0-6.0-4.53","3299159","co38824","norming","","","","","","",""
"null","../img/tt/085tt.jpg","null","mooney2","image-keyboard-response","382","1382044","0.0-6.0-5.53","3299159","co38824","norming","","","","","","",""
"5185","","","post_reveal_questions","survey-likert","383","1387233","0.0-6.0-6.53","3299159","co38824","norming","","","{""aha"":2}","[0]","../img/tt/085tt.jpg","",""
"null","<div style=""font-size:60px;""> </div>","null","fixation","html-keyboard-response","384","1387444","0.0-6.0-0.54","3299159","co38824","norming","","","","","","",""
"null","../img/tt/301tt.jpg","null","mooney1","image-keyboard-response","385","1390467","0.0-6.0-1.54","3299159","co38824","norming","","","","","","",""
"6658","","","post_mooney1_questions","survey-likert","386","1397134","0.0-6.0-2.54","3299159","co38824","norming","","","{""curiosity"":0,""confidence"":6}","[0,1]","../img/tt/301tt.jpg","",""
"6484","","","recognition","survey-text","387","1403627","0.0-6.0-3.54","3299159","co38824","norming","","","{""guess"":""""}","","../img/tt/301tt.jpg","",""
"null","../img/gs/301gs.jpg","null","reveal","image-keyboard-response","388","1405644","0.0-6.0-4.54","3299159","co38824","norming","","","","","","",""
"null","../img/tt/301tt.jpg","null","mooney2","image-keyboard-response","389","1407665","0.0-6.0-5.54","3299159","co38824","norming","","","","","","",""
"4289","","","post_reveal_questions","survey-likert","390","1411957","0.0-6.0-6.54","3299159","co38824","norming","","","{""aha"":0}","[0]","../img/tt/301tt.jpg","",""
"null","<div style=""font-size:60px;""> </div>","null","fixation","html-keyboard-response","391","1412174","0.0-6.0-0.55","3299159","co38824","norming","","","","","","",""
"null","../img/tt/1200tt.jpg","null","mooney1","image-keyboard-response","392","1415195","0.0-6.0-1.55","3299159","co38824","norming","","","","","","",""
"5782","","","post_mooney1_questions","survey-likert","393","1420981","0.0-6.0-2.55","3299159","co38824","norming","","","{""curiosity"":3,""confidence"":3}","[0,1]","../img/tt/1200tt.jpg","",""
"2043","","","recognition","survey-text","394","1423029","0.0-6.0-3.55","3299159","co38824","norming","","","{""guess"":""""}","","../img/tt/1200tt.jpg","",""
"null","../img/gs/1200gs.jpg","null","reveal","image-keyboard-response","395","1425035","0.0-6.0-4.55","3299159","co38824","norming","","","","","","",""
"null","../img/tt/1200tt.jpg","null","mooney2","image-keyboard-response","396","1427055","0.0-6.0-5.55","3299159","co38824","norming","","","","","","",""
"4061","","","post_reveal_questions","survey-likert","397","1431118","0.0-6.0-6.55","3299159","co38824","norming","","","{""aha"":1}","[0]","../img/tt/1200tt.jpg","",""
"null","<div style=""font-size:60px;""> </div>","null","fixation","html-keyboard-response","398","1431334","0.0-6.0-0.56","3299159","co38824","norming","","","","","","",""
"null","../img/tt/1040tt.jpg","null","mooney1","image-keyboard-response","399","1434354","0.0-6.0-1.56","3299159","co38824","norming","","","","","","",""
"5723","","","post_mooney1_questions","survey-likert","400","1440079","0.0-6.0-2.56","3299159","co38824","norming","","","{""curiosity"":2,""confidence"":3}","[0,1]","../img/tt/1040tt.jpg","",""
"6232","","","recognition","survey-text","401","1446319","0.0-6.0-3.56","3299159","co38824","norming","","","{""guess"":""krokodile""}","","../img/tt/1040tt.jpg","",""
"null","../img/gs/1040gs.jpg","null","reveal","image-keyboard-response","402","1448335","0.0-6.0-4.56","3299159","co38824","norming","","","","","","",""
"null","../img/tt/1040tt.jpg","null","mooney2","image-keyboard-response","403","1450345","0.0-6.0-5.56","3299159","co38824","norming","","","","","","",""
"8702","","","post_reveal_questions","survey-likert","404","1459053","0.0-6.0-6.56","3299159","co38824","norming","","","{""aha"":5}","[0]","../img/tt/1040tt.jpg","",""
"null","<div style=""font-size:60px;""> </div>","null","fixation","html-keyboard-response","405","1459264","0.0-6.0-0.57","3299159","co38824","norming","","","","","","",""
"null","../img/tt/1227tt.jpg","null","mooney1","image-keyboard-response","406","1462284","0.0-6.0-1.57","3299159","co38824","norming","","","","","","",""
"6184","","","post_mooney1_questions","survey-likert","407","1468474","0.0-6.0-2.57","3299159","co38824","norming","","","{""curiosity"":2,""confidence"":2}","[0,1]","../img/tt/1227tt.jpg","",""
"4931","","","recognition","survey-text","408","1473410","0.0-6.0-3.57","3299159","co38824","norming","","","{""guess"":""flowers""}","","../img/tt/1227tt.jpg","",""
"null","../img/gs/1227gs.jpg","null","reveal","image-keyboard-response","409","1475425","0.0-6.0-4.57","3299159","co38824","norming","","","","","","",""
"null","../img/tt/1227tt.jpg","null","mooney2","image-keyboard-response","410","1477444","0.0-6.0-5.57","3299159","co38824","norming","","","","","","",""
"5900","","","post_reveal_questions","survey-likert","411","1483349","0.0-6.0-6.57","3299159","co38824","norming","","","{""aha"":5}","[0]","../img/tt/1227tt.jpg","",""
"null","<div style=""font-size:60px;""> </div>","null","fixation","html-keyboard-response","412","1483564","0.0-6.0-0.58","3299159","co38824","norming","","","","","","",""
"null","../img/tt/1241tt.jpg","null","mooney1","image-keyboard-response","413","1486575","0.0-6.0-1.58","3299159","co38824","norming","","","","","","",""
"5692","","","post_mooney1_questions","survey-likert","414","1492271","0.0-6.0-2.58","3299159","co38824","norming","","","{""curiosity"":5,""confidence"":2}","[0,1]","../img/tt/1241tt.jpg","",""
"3532","","","recognition","survey-text","415","1495809","0.0-6.0-3.58","3299159","co38824","norming","","","{""guess"":""mom""}","","../img/tt/1241tt.jpg","",""
"null","../img/gs/1241gs.jpg","null","reveal","image-keyboard-response","416","1497814","0.0-6.0-4.58","3299159","co38824","norming","","","","","","",""
"null","../img/tt/1241tt.jpg","null","mooney2","image-keyboard-response","417","1499834","0.0-6.0-5.58","3299159","co38824","norming","","","","","","",""
"4773","","","post_reveal_questions","survey-likert","418","1504609","0.0-6.0-6.58","3299159","co38824","norming","","","{""aha"":4}","[0]","../img/tt/1241tt.jpg","",""
"null","<div style=""font-size:60px;""> </div>","null","fixation","html-keyboard-response","419","1504824","0.0-6.0-0.59","3299159","co38824","norming","","","","","","",""
"null","../img/tt/1251tt.jpg","null","mooney1","image-keyboard-response","420","1507835","0.0-6.0-1.59","3299159","co38824","norming","","","","","","",""
"6915","","","post_mooney1_questions","survey-likert","421","1514754","0.0-6.0-2.59","3299159","co38824","norming","","","{""curiosity"":4,""confidence"":3}","[0,1]","../img/tt/1251tt.jpg","",""
"4146","","","recognition","survey-text","422","1518912","0.0-6.0-3.59","3299159","co38824","norming","","","{""guess"":""musli""}","","../img/tt/1251tt.jpg","",""
"null","../img/gs/1251gs.jpg","null","reveal","image-keyboard-response","423","1520935","0.0-6.0-4.59","3299159","co38824","norming","","","","","","",""
"null","../img/tt/1251tt.jpg","null","mooney2","image-keyboard-response","424","1522955","0.0-6.0-5.59","3299159","co38824","norming","","","","","","",""
"3678","","","post_reveal_questions","survey-likert","425","1526639","0.0-6.0-6.59","3299159","co38824","norming","","","{""aha"":4}","[0]","../img/tt/1251tt.jpg","",""
"null","<div style=""font-size:60px;""> </div>","null","fixation","html-keyboard-response","426","1526854","0.0-6.0-0.60","3299159","co38824","norming","","","","","","",""
"null","../img/tt/111tt.jpg","null","mooney1","image-keyboard-response","427","1529874","0.0-6.0-1.60","3299159","co38824","norming","","","","","","",""
"5073","","","post_mooney1_questions","survey-likert","428","1534952","0.0-6.0-2.60","3299159","co38824","norming","","","{""curiosity"":4,""confidence"":2}","[0,1]","../img/tt/111tt.jpg","",""
"4201","","","recognition","survey-text","429","1539162","0.0-6.0-3.60","3299159","co38824","norming","","","{""guess"":""flower""}","","../img/tt/111tt.jpg","",""
"null","../img/gs/111gs.jpg","null","reveal","image-keyboard-response","430","1541174","0.0-6.0-4.60","3299159","co38824","norming","","","","","","",""
"null","../img/tt/111tt.jpg","null","mooney2","image-keyboard-response","431","1543194","0.0-6.0-5.60","3299159","co38824","norming","","","","","","",""
"3044","","","post_reveal_questions","survey-likert","432","1546243","0.0-6.0-6.60","3299159","co38824","norming","","","{""aha"":3}","[0]","../img/tt/111tt.jpg","",""
"null","<div style=""font-size:60px;""> </div>","null","fixation","html-keyboard-response","433","1546454","0.0-6.0-0.61","3299159","co38824","norming","","","","","","",""
"null","../img/tt/1118tt.jpg","null","mooney1","image-keyboard-response","434","1549465","0.0-6.0-1.61","3299159","co38824","norming","","","","","","",""
"4961","","","post_mooney1_questions","survey-likert","435","1554430","0.0-6.0-2.61","3299159","co38824","norming","","","{""curiosity"":4,""confidence"":1}","[0,1]","../img/tt/1118tt.jpg","",""
"4393","","","recognition","survey-text","436","1558829","0.0-6.0-3.61","3299159","co38824","norming","","","{""guess"":""table""}","","../img/tt/1118tt.jpg","",""
"null","../img/gs/1118gs.jpg","null","reveal","image-keyboard-response","437","1560844","0.0-6.0-4.61","3299159","co38824","norming","","","","","","",""
"null","../img/tt/1118tt.jpg","null","mooney2","image-keyboard-response","438","1562854","0.0-6.0-5.61","3299159","co38824","norming","","","","","","",""
"4237","","","post_reveal_questions","survey-likert","439","1567095","0.0-6.0-6.61","3299159","co38824","norming","","","{""aha"":5}","[0]","../img/tt/1118tt.jpg","",""
"null","<div style=""font-size:60px;""> </div>","null","fixation","html-keyboard-response","440","1567314","0.0-6.0-0.62","3299159","co38824","norming","","","","","","",""
"null","../img/tt/082tt.jpg","null","mooney1","image-keyboard-response","441","1570334","0.0-6.0-1.62","3299159","co38824","norming","","","","","","",""
"4082","","","post_mooney1_questions","survey-likert","442","1574418","0.0-6.0-2.62","3299159","co38824","norming","","","{""curiosity"":5,""confidence"":2}","[0,1]","../img/tt/082tt.jpg","",""
"2888","","","recognition","survey-text","443","1577310","0.0-6.0-3.62","3299159","co38824","norming","","","{""guess"":""rat""}","","../img/tt/082tt.jpg","",""
"null","../img/gs/082gs.jpg","null","reveal","image-keyboard-response","444","1579315","0.0-6.0-4.62","3299159","co38824","norming","","","","","","",""
"null","../img/tt/082tt.jpg","null","mooney2","image-keyboard-response","445","1581335","0.0-6.0-5.62","3299159","co38824","norming","","","","","","",""
"5287","","","post_reveal_questions","survey-likert","446","1586632","0.0-6.0-6.62","3299159","co38824","norming","","","{""aha"":3}","[0]","../img/tt/082tt.jpg","",""
"null","<div style=""font-size:60px;""> </div>","null","fixation","html-keyboard-response","447","1586844","0.0-6.0-0.63","3299159","co38824","norming","","","","","","",""
"null","../img/tt/1228tt.jpg","null","mooney1","image-keyboard-response","448","1589854","0.0-6.0-1.63","3299159","co38824","norming","","","","","","",""
"5550","","","post_mooney1_questions","survey-likert","449","1595411","0.0-6.0-2.63","3299159","co38824","norming","","","{""curiosity"":4,""confidence"":4}","[0,1]","../img/tt/1228tt.jpg","",""
"4493","","","recognition","survey-text","450","1599909","0.0-6.0-3.63","3299159","co38824","norming","","","{""guess"":""birt""}","","../img/tt/1228tt.jpg","",""
"null","../img/gs/1228gs.jpg","null","reveal","image-keyboard-response","451","1601914","0.0-6.0-4.63","3299159","co38824","norming","","","","","","",""
"null","../img/tt/1228tt.jpg","null","mooney2","image-keyboard-response","452","1603934","0.0-6.0-5.63","3299159","co38824","norming","","","","","","",""
"4622","","","post_reveal_questions","survey-likert","453","1608560","0.0-6.0-6.63","3299159","co38824","norming","","","{""aha"":5}","[0]","../img/tt/1228tt.jpg","",""
"null","<div style=""font-size:60px;""> </div>","null","fixation","html-keyboard-response","454","1608775","0.0-6.0-0.64","3299159","co38824","norming","","","","","","",""
"null","../img/tt/1063tt.jpg","null","mooney1","image-keyboard-response","455","1611795","0.0-6.0-1.64","3299159","co38824","norming","","","","","","",""
"4772","","","post_mooney1_questions","survey-likert","456","1616570","0.0-6.0-2.64","3299159","co38824","norming","","","{""curiosity"":5,""confidence"":2}","[0,1]","../img/tt/1063tt.jpg","",""
"4911","","","recognition","survey-text","457","1621489","0.0-6.0-3.64","3299159","co38824","norming","","","{""guess"":""paard""}","","../img/tt/1063tt.jpg","",""
"null","../img/gs/1063gs.jpg","null","reveal","image-keyboard-response","458","1623505","0.0-6.0-4.64","3299159","co38824","norming","","","","","","",""
"null","../img/tt/1063tt.jpg","null","mooney2","image-keyboard-response","459","1625523","0.0-6.0-5.64","3299159","co38824","norming","","","","","","",""
"4094","","","post_reveal_questions","survey-likert","460","1629620","0.0-6.0-6.64","3299159","co38824","norming","","","{""aha"":3}","[0]","../img/tt/1063tt.jpg","",""
"null","<div style=""font-size:60px;""> </div>","null","fixation","html-keyboard-response","461","1629834","0.0-6.0-0.65","3299159","co38824","norming","","","","","","",""
"null","../img/tt/1089tt.jpg","null","mooney1","image-keyboard-response","462","1632844","0.0-6.0-1.65","3299159","co38824","norming","","","","","","",""
"5292","","","post_mooney1_questions","survey-likert","463","1638139","0.0-6.0-2.65","3299159","co38824","norming","","","{""curiosity"":2,""confidence"":2}","[0,1]","../img/tt/1089tt.jpg","",""
"7196","","","recognition","survey-text","464","1645340","0.0-6.0-3.65","3299159","co38824","norming","","","{""guess"":""zoo olifanten""}","","../img/tt/1089tt.jpg","",""
"null","../img/gs/1089gs.jpg","null","reveal","image-keyboard-response","465","1647355","0.0-6.0-4.65","3299159","co38824","norming","","","","","","",""
"null","../img/tt/1089tt.jpg","null","mooney2","image-keyboard-response","466","1649364","0.0-6.0-5.65","3299159","co38824","norming","","","","","","",""
"4016","","","post_reveal_questions","survey-likert","467","1653384","0.0-6.0-6.65","3299159","co38824","norming","","","{""aha"":0}","[0]","../img/tt/1089tt.jpg","",""
"null","<div style=""font-size:60px;""> </div>","null","fixation","html-keyboard-response","468","1653593","0.0-6.0-0.66","3299159","co38824","norming","","","","","","",""
"null","../img/tt/1006tt.jpg","null","mooney1","image-keyboard-response","469","1656615","0.0-6.0-1.66","3299159","co38824","norming","","","","","","",""
"8414","","","post_mooney1_questions","survey-likert","470","1665032","0.0-6.0-2.66","3299159","co38824","norming","","","{""curiosity"":0,""confidence"":0}","[0,1]","../img/tt/1006tt.jpg","",""
"4650","","","recognition","survey-text","471","1669690","0.0-6.0-3.66","3299159","co38824","norming","","","{""guess"":""sheeps""}","","../img/tt/1006tt.jpg","",""
"null","../img/gs/1006gs.jpg","null","reveal","image-keyboard-response","472","1671705","0.0-6.0-4.66","3299159","co38824","norming","","","","","","",""
"null","../img/tt/1006tt.jpg","null","mooney2","image-keyboard-response","473","1673723","0.0-6.0-5.66","3299159","co38824","norming","","","","","","",""
"3622","","","post_reveal_questions","survey-likert","474","1677347","0.0-6.0-6.66","3299159","co38824","norming","","","{""aha"":0}","[0]","../img/tt/1006tt.jpg","",""
"null","<div style=""font-size:60px;""> </div>","null","fixation","html-keyboard-response","475","1677565","0.0-6.0-0.67","3299159","co38824","norming","","","","","","",""
"null","../img/tt/580tt.jpg","null","mooney1","image-keyboard-response","476","1680584","0.0-6.0-1.67","3299159","co38824","norming","","","","","","",""
"6293","","","post_mooney1_questions","survey-likert","477","1686880","0.0-6.0-2.67","3299159","co38824","norming","","","{""curiosity"":6,""confidence"":0}","[0,1]","../img/tt/580tt.jpg","",""
"3883","","","recognition","survey-text","478","1690769","0.0-6.0-3.67","3299159","co38824","norming","","","{""guess"":""ape""}","","../img/tt/580tt.jpg","",""
"null","../img/gs/580gs.jpg","null","reveal","image-keyboard-response","479","1692774","0.0-6.0-4.67","3299159","co38824","norming","","","","","","",""
"null","../img/tt/580tt.jpg","null","mooney2","image-keyboard-response","480","1694794","0.0-6.0-5.67","3299159","co38824","norming","","","","","","",""
"2575","","","post_reveal_questions","survey-likert","481","1697372","0.0-6.0-6.67","3299159","co38824","norming","","","{""aha"":3}","[0]","../img/tt/580tt.jpg","",""
"null","<div style=""font-size:60px;""> </div>","null","fixation","html-keyboard-response","482","1697583","0.0-6.0-0.68","3299159","co38824","norming","","","","","","",""
"null","../img/tt/522tt.jpg","null","mooney1","image-keyboard-response","483","1700594","0.0-6.0-1.68","3299159","co38824","norming","","","","","","",""
"4954","","","post_mooney1_questions","survey-likert","484","1705550","0.0-6.0-2.68","3299159","co38824","norming","","","{""curiosity"":5,""confidence"":2}","[0,1]","../img/tt/522tt.jpg","",""
"2703","","","recognition","survey-text","485","1708260","0.0-6.0-3.68","3299159","co38824","norming","","","{""guess"":""tree""}","","../img/tt/522tt.jpg","",""
"null","../img/gs/522gs.jpg","null","reveal","image-keyboard-response","486","1710274","0.0-6.0-4.68","3299159","co38824","norming","","","","","","",""
"null","../img/tt/522tt.jpg","null","mooney2","image-keyboard-response","487","1712296","0.0-6.0-5.68","3299159","co38824","norming","","","","","","",""
"3135","","","post_reveal_questions","survey-likert","488","1715438","0.0-6.0-6.68","3299159","co38824","norming","","","{""aha"":3}","[0]","../img/tt/522tt.jpg","",""
"null","<div style=""font-size:60px;""> </div>","null","fixation","html-keyboard-response","489","1715654","0.0-6.0-0.69","3299159","co38824","norming","","","","","","",""
"null","../img/tt/435tt.jpg","null","mooney1","image-keyboard-response","490","1718675","0.0-6.0-1.69","3299159","co38824","norming","","","","","","",""
"5962","","","post_mooney1_questions","survey-likert","491","1724641","0.0-6.0-2.69","3299159","co38824","norming","","","{""curiosity"":2,""confidence"":2}","[0,1]","../img/tt/435tt.jpg","",""
"4113","","","recognition","survey-text","492","1728760","0.0-6.0-3.69","3299159","co38824","norming","","","{""guess"":""table""}","","../img/tt/435tt.jpg","",""
"null","../img/gs/435gs.jpg","null","reveal","image-keyboard-response","493","1730774","0.0-6.0-4.69","3299159","co38824","norming","","","","","","",""
"null","../img/tt/435tt.jpg","null","mooney2","image-keyboard-response","494","1732794","0.0-6.0-5.69","3299159","co38824","norming","","","","","","",""
"4174","","","post_reveal_questions","survey-likert","495","1736972","0.0-6.0-6.69","3299159","co38824","norming","","","{""aha"":5}","[0]","../img/tt/435tt.jpg","",""
"null","<div style=""font-size:60px;""> </div>","null","fixation","html-keyboard-response","496","1737184","0.0-6.0-0.70","3299159","co38824","norming","","","","","","",""
"null","../img/tt/1211tt.jpg","null","mooney1","image-keyboard-response","497","1740204","0.0-6.0-1.70","3299159","co38824","norming","","","","","","",""
"5323","","","post_mooney1_questions","survey-likert","498","1745530","0.0-6.0-2.70","3299159","co38824","norming","","","{""curiosity"":2,""confidence"":2}","[0,1]","../img/tt/1211tt.jpg","",""
"3663","","","recognition","survey-text","499","1749200","0.0-6.0-3.70","3299159","co38824","norming","","","{""guess"":""surf""}","","../img/tt/1211tt.jpg","",""
"null","../img/gs/1211gs.jpg","null","reveal","image-keyboard-response","500","1751204","0.0-6.0-4.70","3299159","co38824","norming","","","","","","",""
"null","../img/tt/1211tt.jpg","null","mooney2","image-keyboard-response","501","1753224","0.0-6.0-5.70","3299159","co38824","norming","","","","","","",""
"3602","","","post_reveal_questions","survey-likert","502","1756830","0.0-6.0-6.70","3299159","co38824","norming","","","{""aha"":5}","[0]","../img/tt/1211tt.jpg","",""
"null","<div style=""font-size:60px;""> </div>","null","fixation","html-keyboard-response","503","1757043","0.0-6.0-0.71","3299159","co38824","norming","","","","","","",""
"null","../img/tt/031tt.jpg","null","mooney1","image-keyboard-response","504","1760064","0.0-6.0-1.71","3299159","co38824","norming","","","","","","",""
"4681","","","post_mooney1_questions","survey-likert","505","1764750","0.0-6.0-2.71","3299159","co38824","norming","","","{""curiosity"":1,""confidence"":3}","[0,1]","../img/tt/031tt.jpg","",""
"3129","","","recognition","survey-text","506","1767885","0.0-6.0-3.71","3299159","co38824","norming","","","{""guess"":""beer""}","","../img/tt/031tt.jpg","",""
"null","../img/gs/031gs.jpg","null","reveal","image-keyboard-response","507","1769905","0.0-6.0-4.71","3299159","co38824","norming","","","","","","",""
"null","../img/tt/031tt.jpg","null","mooney2","image-keyboard-response","508","1771925","0.0-6.0-5.71","3299159","co38824","norming","","","","","","",""
"3632","","","post_reveal_questions","survey-likert","509","1775567","0.0-6.0-6.71","3299159","co38824","norming","","","{""aha"":0}","[0]","../img/tt/031tt.jpg","",""
"null","<div style=""font-size:60px;""> </div>","null","fixation","html-keyboard-response","510","1775784","0.0-6.0-0.72","3299159","co38824","norming","","","","","","",""
"null","../img/tt/063tt.jpg","null","mooney1","image-keyboard-response","511","1778804","0.0-6.0-1.72","3299159","co38824","norming","","","","","","",""
"5497","","","post_mooney1_questions","survey-likert","512","1784311","0.0-6.0-2.72","3299159","co38824","norming","","","{""curiosity"":0,""confidence"":1}","[0,1]","../img/tt/063tt.jpg","",""
"3964","","","recognition","survey-text","513","1788280","0.0-6.0-3.72","3299159","co38824","norming","","","{""guess"":""phone""}","","../img/tt/063tt.jpg","",""
"null","../img/gs/063gs.jpg","null","reveal","image-keyboard-response","514","1790294","0.0-6.0-4.72","3299159","co38824","norming","","","","","","",""
"null","../img/tt/063tt.jpg","null","mooney2","image-keyboard-response","515","1792313","0.0-6.0-5.72","3299159","co38824","norming","","","","","","",""
"3264","","","post_reveal_questions","survey-likert","516","1795580","0.0-6.0-6.72","3299159","co38824","norming","","","{""aha"":4}","[0]","../img/tt/063tt.jpg","",""
"null","<div style=""font-size:60px;""> </div>","null","fixation","html-keyboard-response","517","1795794","0.0-6.0-0.73","3299159","co38824","norming","","","","","","",""
"null","../img/tt/1190tt.jpg","null","mooney1","image-keyboard-response","518","1798815","0.0-6.0-1.73","3299159","co38824","norming","","","","","","",""
"5859","","","post_mooney1_questions","survey-likert","519","1804680","0.0-6.0-2.73","3299159","co38824","norming","","","{""curiosity"":2,""confidence"":1}","[0,1]","../img/tt/1190tt.jpg","",""
"3801","","","recognition","survey-text","520","1808488","0.0-6.0-3.73","3299159","co38824","norming","","","{""guess"":""flowers""}","","../img/tt/1190tt.jpg","",""
"null","../img/gs/1190gs.jpg","null","reveal","image-keyboard-response","521","1810494","0.0-6.0-4.73","3299159","co38824","norming","","","","","","",""
"null","../img/tt/1190tt.jpg","null","mooney2","image-keyboard-response","522","1812513","0.0-6.0-5.73","3299159","co38824","norming","","","","","","",""
"3375","","","post_reveal_questions","survey-likert","523","1815890","0.0-6.0-6.73","3299159","co38824","norming","","","{""aha"":3}","[0]","../img/tt/1190tt.jpg","",""
"null","<div style=""font-size:60px;""> </div>","null","fixation","html-keyboard-response","524","1816104","0.0-6.0-0.74","3299159","co38824","norming","","","","","","",""
"null","../img/tt/1186tt.jpg","null","mooney1","image-keyboard-response","525","1819115","0.0-6.0-1.74","3299159","co38824","norming","","","","","","",""
"6294","","","post_mooney1_questions","survey-likert","526","1825413","0.0-6.0-2.74","3299159","co38824","norming","","","{""curiosity"":5,""confidence"":1}","[0,1]","../img/tt/1186tt.jpg","",""
"3640","","","recognition","survey-text","527","1829060","0.0-6.0-3.74","3299159","co38824","norming","","","{""guess"":""gras""}","","../img/tt/1186tt.jpg","",""
"null","../img/gs/1186gs.jpg","null","reveal","image-keyboard-response","528","1831064","0.0-6.0-4.74","3299159","co38824","norming","","","","","","",""
"null","../img/tt/1186tt.jpg","null","mooney2","image-keyboard-response","529","1833085","0.0-6.0-5.74","3299159","co38824","norming","","","","","","",""
"3824","","","post_reveal_questions","survey-likert","530","1836912","0.0-6.0-6.74","3299159","co38824","norming","","","{""aha"":4}","[0]","../img/tt/1186tt.jpg","",""
"null","<div style=""font-size:60px;""> </div>","null","fixation","html-keyboard-response","531","1837123","0.0-6.0-0.75","3299159","co38824","norming","","","","","","",""
"null","../img/tt/1116tt.jpg","null","mooney1","image-keyboard-response","532","1840145","0.0-6.0-1.75","3299159","co38824","norming","","","","","","",""
"4599","","","post_mooney1_questions","survey-likert","533","1844753","0.0-6.0-2.75","3299159","co38824","norming","","","{""curiosity"":0,""confidence"":4}","[0,1]","../img/tt/1116tt.jpg","",""
"9955","","","recognition","survey-text","534","1854720","0.0-6.0-3.75","3299159","co38824","norming","","","{""guess"":""boten""}","","../img/tt/1116tt.jpg","",""
"null","../img/gs/1116gs.jpg","null","reveal","image-keyboard-response","535","1856734","0.0-6.0-4.75","3299159","co38824","norming","","","","","","",""
"null","../img/tt/1116tt.jpg","null","mooney2","image-keyboard-response","536","1858753","0.0-6.0-5.75","3299159","co38824","norming","","","","","","",""
"4013","","","post_reveal_questions","survey-likert","537","1862769","0.0-6.0-6.75","3299159","co38824","norming","","","{""aha"":1}","[0]","../img/tt/1116tt.jpg","",""
"null","<div style=""font-size:60px;""> </div>","null","fixation","html-keyboard-response","538","1862983","0.0-6.0-0.76","3299159","co38824","norming","","","","","","",""
"null","../img/tt/052tt.jpg","null","mooney1","image-keyboard-response","539","1865993","0.0-6.0-1.76","3299159","co38824","norming","","","","","","",""
"4625","","","post_mooney1_questions","survey-likert","540","1870621","0.0-6.0-2.76","3299159","co38824","norming","","","{""curiosity"":2,""confidence"":2}","[0,1]","../img/tt/052tt.jpg","",""
"3586","","","recognition","survey-text","541","1874210","0.0-6.0-3.76","3299159","co38824","norming","","","{""guess"":""belt""}","","../img/tt/052tt.jpg","",""
"null","../img/gs/052gs.jpg","null","reveal","image-keyboard-response","542","1876224","0.0-6.0-4.76","3299159","co38824","norming","","","","","","",""
"null","../img/tt/052tt.jpg","null","mooney2","image-keyboard-response","543","1878243","0.0-6.0-5.76","3299159","co38824","norming","","","","","","",""
"3821","","","post_reveal_questions","survey-likert","544","1882066","0.0-6.0-6.76","3299159","co38824","norming","","","{""aha"":2}","[0]","../img/tt/052tt.jpg","",""
"null","<div style=""font-size:60px;""> </div>","null","fixation","html-keyboard-response","545","1882283","0.0-6.0-0.77","3299159","co38824","norming","","","","","","",""
"null","../img/tt/084tt.jpg","null","mooney1","image-keyboard-response","546","1885304","0.0-6.0-1.77","3299159","co38824","norming","","","","","","",""
"7541","","","post_mooney1_questions","survey-likert","547","1892848","0.0-6.0-2.77","3299159","co38824","norming","","","{""curiosity"":5,""confidence"":0}","[0,1]","../img/tt/084tt.jpg","",""
"1014","","","recognition","survey-text","548","1893867","0.0-6.0-3.77","3299159","co38824","norming","","","{""guess"":""""}","","../img/tt/084tt.jpg","",""
"null","../img/gs/084gs.jpg","null","reveal","image-keyboard-response","549","1895885","0.0-6.0-4.77","3299159","co38824","norming","","","","","","",""
"null","../img/tt/084tt.jpg","null","mooney2","image-keyboard-response","550","1897893","0.0-6.0-5.77","3299159","co38824","norming","","","","","","",""
"4121","","","post_reveal_questions","survey-likert","551","1902015","0.0-6.0-6.77","3299159","co38824","norming","","","{""aha"":2}","[0]","../img/tt/084tt.jpg","",""
"null","<div style=""font-size:60px;""> </div>","null","fixation","html-keyboard-response","552","1902233","0.0-6.0-0.78","3299159","co38824","norming","","","","","","",""
"null","../img/tt/296tt.jpg","null","mooney1","image-keyboard-response","553","1905244","0.0-6.0-1.78","3299159","co38824","norming","","","","","","",""
"4812","","","post_mooney1_questions","survey-likert","554","1910068","0.0-6.0-2.78","3299159","co38824","norming","","","{""curiosity"":1,""confidence"":2}","[0,1]","../img/tt/296tt.jpg","",""
"6593","","","recognition","survey-text","555","1916670","0.0-6.0-3.78","3299159","co38824","norming","","","{""guess"":""kine""}","","../img/tt/296tt.jpg","",""
"null","../img/gs/296gs.jpg","null","reveal","image-keyboard-response","556","1918685","0.0-6.0-4.78","3299159","co38824","norming","","","","","","",""
"null","../img/tt/296tt.jpg","null","mooney2","image-keyboard-response","557","1920704","0.0-6.0-5.78","3299159","co38824","norming","","","","","","",""
"3482","","","post_reveal_questions","survey-likert","558","1924189","0.0-6.0-6.78","3299159","co38824","norming","","","{""aha"":2}","[0]","../img/tt/296tt.jpg","",""
"null","<div style=""font-size:60px;""> </div>","null","fixation","html-keyboard-response","559","1924404","0.0-6.0-0.79","3299159","co38824","norming","","","","","","",""
"null","../img/tt/1226tt.jpg","null","mooney1","image-keyboard-response","560","1927423","0.0-6.0-1.79","3299159","co38824","norming","","","","","","",""
"5681","","","post_mooney1_questions","survey-likert","561","1933111","0.0-6.0-2.79","3299159","co38824","norming","","","{""curiosity"":1,""confidence"":2}","[0,1]","../img/tt/1226tt.jpg","",""
"4501","","","recognition","survey-text","562","1937620","0.0-6.0-3.79","3299159","co38824","norming","","","{""guess"":""chicke""}","","../img/tt/1226tt.jpg","",""
"null","../img/gs/1226gs.jpg","null","reveal","image-keyboard-response","563","1939634","0.0-6.0-4.79","3299159","co38824","norming","","","","","","",""
"null","../img/tt/1226tt.jpg","null","mooney2","image-keyboard-response","564","1941653","0.0-6.0-5.79","3299159","co38824","norming","","","","","","",""
"5034","","","post_reveal_questions","survey-likert","565","1946690","0.0-6.0-6.79","3299159","co38824","norming","","","{""aha"":1}","[0]","../img/tt/1226tt.jpg","",""
"20074","<div style='word-wrap: break-word; width: 900px'><h3>Part 2</h3><p>You completed the first phase of the experiment.</p><p>In the next phase you will again see a series of distorted images, some of which you have already encountered in the previous phase.</p><p>You will be asked to indicate whether the image was an old or a new one (one not seen in the previous phase) and subsequently to recognize what is depicted if you can.</p><p>Press any key to start the new phase</p></div>","32","instructions","html-keyboard-response","566","1966769","0.0-7.0","3299159","co38824","norming","","","","","","",""
"null","<div style=""font-size:60px;""> </div>","null","fixation","html-keyboard-response","567","1966983","0.0-8.0-0.0","3299159","co38824","norming","","","","","","",""
"null","../img/tt/1097tt.jpg","null","ph2_mooney","image-keyboard-response","568","1969008","0.0-8.0-1.0","3299159","co38824","norming","","","","","","",""
