"rt","stimulus","key_press","test_part","trial_type","trial_index","time_elapsed","internal_node_id","totalTime","subject","experiment_name","button_pressed","success","responses","question_order","currentStim","old","correct"
"6666.734999977052","Welcome to the experiment. This is an online experiment so please don't close the tab/window until we say goodbye.  Press any key to begin.","32","instructions","html-keyboard-response","0","6735","0.0-0.0","3424925","co38881","norming","","","","","","",""
"45347.64000005089","<div style='word-wrap: break-word; width: 900px'><h3>Please consider this information carefully before deciding whether to participate in this research</h3><ul style='text-align: left; font-size: .8em;'><li><b>Purpose of the research</b>: To examine how people process images.</li><li><b>What you will do in this research</b>:  Stimuli (images) will be presented on the computer and you will be asked different questions about them.</li><li><b>Time required</b>: Participation will take between 45 and 60 minutes to complete.</li><li><b>Risks</b>:  There are no anticipated risks associated with participating in this study. The effects of participating should be comparable to those you would experience from viewing a computer monitor for 30 minutes and using a mouse or keyboard.</li><li><b>Benefits</b>:  This study provides no benefits to you individually except for the credit. The study provides important information about the nature of perception and learning.</li><li><b>Confidentiality</b>:  Your participation in this study will remain confidential. No personally identifiable information will be associated with your data. Your de-identified data may be shared with other researchers and used in future projects.</li><li><b>Participation and withdrawal</b>:  Your participation in this study is completely voluntary and you may refuse to participate or you may choose to withdraw at any time without penalty.</li><li><b>How to contact the researchers</b>: If you have questions or concerns about your participation or payment, or want to request a summary of research findings, please contact Sander Van de Cruys (KU Leuven), at sander.vandecruys@kuleuven.be.</li></ul><p>The nature and purpose of this research have been sufficiently explained and I agree to participate in this study.  I understand that I am free to withdraw at any time without incurring any penalty.</p><p>Please consent by clicking the button below to continue. Otherwise, please exit the study at this time.</p></div>","","instructions","html-button-response","1","52086","0.0-1.0","3424925","co38881","norming","0","","","","","",""
"","","","instructions","fullscreen","2","59620","0.0-2.0","3424925","co38881","norming","","true","","","","",""
"191033.25500013307","","","sona","survey-html-form","3","250657","0.0-3.0","3424925","co38881","norming","","","[{""name"":""sonaid"",""value"":""38881""},{""name"":""debrief"",""value"":""yes""},{""name"":""datajoin"",""value"":""yes""}]","","","",""
"77020.69999999367","<div style='word-wrap: break-word; width: 900px'><h3>Instructions</h3><p>This experiment will have 3 parts. In the first part you will see a series of distorted images like the one below on the left. As you can see in the righthand image, the distorted images are derived from actual photographs. In what follows, you will <strong>briefly</strong> be presented with <strong>only</strong> the distorted image.</p> <div style='float: left; margin-right: 20px;'><img src='../img/018tt.jpg' height='250' width='250'></img></div><div style='float: right; margin-left: 20px;'><img src='../img/018gs.jpg' height='250' width='250'></img></div><p>Subsequently you will be asked a few questions about the image: One question on how <strong>curious</strong> you are about the solution and one on how <strong>confident</strong> you are that you know the solution.</p>Next, we ask you to make a guess on what is in the image. Note that it is OK to name just the <strong>basic level category</strong>. For example when you see a parrot in the image, 'parrot' will obviously be a correct answer but also correct is 'bird'. However, 'animal' will <strong>not</strong> be counted as a correct response. For the example above, 'rose' would be correct or 'flower', but not 'plant'. When soccer players are depicted, 'soccer', 'football', 'soccer players' will be correct, but not 'humans', 'outdoors', or 'sports'. You do not need to describe the image in full, just name the main object in it <strong>in one or two words</strong>. All images depict objects from one of the following broad level categories: animals, inanimate objects, plants, sports, vehicles, and food. Recognizing means knowing <strong>more</strong> than these broad labels for a given image. But we always encourage you to <strong>make a guess</strong> if you can. Note that you are allowed to use <strong>Dutch and English</strong> in your answers, whatever comes easiest for you.</p><p>Press any key to continue.</p></div>","32","instructions","html-keyboard-response","4","327680","0.0-4.0","3424925","co38881","norming","","","","","","",""
"21285.554999951273","<div style='word-wrap: break-word; width: 900px'><h3>Instructions</h3> <p>Next, the solution image will be revealed to you and you'll be asked to indicate how strong your <strong>aha-experience</strong> was after seeing the solution. This describes the positive feeling of the 'click' you sometimes experience, when the pieces of the 'puzzle' fall together and you suddenly have 'insight' in the image.</p><img src='aha.jpg' height='188' width='250'></img><p>Note that there are no right or wrong answers. We are interested in what <strong>you</strong> see in the image and how <strong>you</strong> feel about it.</p><p>Press any key to start the experiment.</p></div>","32","instructions","html-keyboard-response","5","348967","0.0-5.0","3424925","co38881","norming","","","","","","",""
"null","<div style=""font-size:60px;""> </div>","null","fixation","html-keyboard-response","6","349174","0.0-6.0-0.0","3424925","co38881","norming","","","","","","",""
"null","../img/tt/1078tt.jpg","null","mooney1","image-keyboard-response","7","352188","0.0-6.0-1.0","3424925","co38881","norming","","","","","","",""
"10945.000000065193","","","post_mooney1_questions","survey-likert","8","363136","0.0-6.0-2.0","3424925","co38881","norming","","","{""curiosity"":6,""confidence"":2}","[0,1]","../img/tt/1078tt.jpg","",""
"13214.61999998428","","","recognition","survey-text","9","376355","0.0-6.0-3.0","3424925","co38881","norming","","","{""guess"":""Een vrouw""}","","../img/tt/1078tt.jpg","",""
"null","../img/gs/1078gs.jpg","null","reveal","image-keyboard-response","10","378362","0.0-6.0-4.0","3424925","co38881","norming","","","","","","",""
"null","../img/tt/1078tt.jpg","null","mooney2","image-keyboard-response","11","380376","0.0-6.0-5.0","3424925","co38881","norming","","","","","","",""
"9886.64500019513","","","post_reveal_questions","survey-likert","12","390264","0.0-6.0-6.0","3424925","co38881","norming","","","{""aha"":3}","[0]","../img/tt/1078tt.jpg","",""
"null","<div style=""font-size:60px;""> </div>","null","fixation","html-keyboard-response","13","390473","0.0-6.0-0.1","3424925","co38881","norming","","","","","","",""
"null","../img/tt/1091tt.jpg","null","mooney1","image-keyboard-response","14","393478","0.0-6.0-1.1","3424925","co38881","norming","","","","","","",""
"6532.7500000130385","","","post_mooney1_questions","survey-likert","15","400013","0.0-6.0-2.1","3424925","co38881","norming","","","{""curiosity"":4,""confidence"":6}","[0,1]","../img/tt/1091tt.jpg","",""
"2844.7100000921637","","","recognition","survey-text","16","402861","0.0-6.0-3.1","3424925","co38881","norming","","","{""guess"":""Een paard""}","","../img/tt/1091tt.jpg","",""
"null","../img/gs/1091gs.jpg","null","reveal","image-keyboard-response","17","404868","0.0-6.0-4.1","3424925","co38881","norming","","","","","","",""
"null","../img/tt/1091tt.jpg","null","mooney2","image-keyboard-response","18","406882","0.0-6.0-5.1","3424925","co38881","norming","","","","","","",""
"2860.00999994576","","","post_reveal_questions","survey-likert","19","409744","0.0-6.0-6.1","3424925","co38881","norming","","","{""aha"":0}","[0]","../img/tt/1091tt.jpg","",""
"null","<div style=""font-size:60px;""> </div>","null","fixation","html-keyboard-response","20","409947","0.0-6.0-0.2","3424925","co38881","norming","","","","","","",""
"null","../img/tt/273tt.jpg","null","mooney1","image-keyboard-response","21","412954","0.0-6.0-1.2","3424925","co38881","norming","","","","","","",""
"5144.41499998793","","","post_mooney1_questions","survey-likert","22","418101","0.0-6.0-2.2","3424925","co38881","norming","","","{""curiosity"":1,""confidence"":6}","[0,1]","../img/tt/273tt.jpg","",""
"18433.49500000477","","","recognition","survey-text","23","436538","0.0-6.0-3.2","3424925","co38881","norming","","","{""guess"":""Een gekke bek trekken""}","","../img/tt/273tt.jpg","",""
"null","../img/gs/273gs.jpg","null","reveal","image-keyboard-response","24","438558","0.0-6.0-4.2","3424925","co38881","norming","","","","","","",""
"null","../img/tt/273tt.jpg","null","mooney2","image-keyboard-response","25","440561","0.0-6.0-5.2","3424925","co38881","norming","","","","","","",""
"4560.045000165701","","","post_reveal_questions","survey-likert","26","445123","0.0-6.0-6.2","3424925","co38881","norming","","","{""aha"":2}","[0]","../img/tt/273tt.jpg","",""
"null","<div style=""font-size:60px;""> </div>","null","fixation","html-keyboard-response","27","445338","0.0-6.0-0.3","3424925","co38881","norming","","","","","","",""
"null","../img/tt/1080tt.jpg","null","mooney1","image-keyboard-response","28","448347","0.0-6.0-1.3","3424925","co38881","norming","","","","","","",""
"4032.649999950081","","","post_mooney1_questions","survey-likert","29","452382","0.0-6.0-2.3","3424925","co38881","norming","","","{""curiosity"":6,""confidence"":0}","[0,1]","../img/tt/1080tt.jpg","",""
"10563.32499999553","","","recognition","survey-text","30","462949","0.0-6.0-3.3","3424925","co38881","norming","","","{""guess"":""Een vrouw""}","","../img/tt/1080tt.jpg","",""
"null","../img/gs/1080gs.jpg","null","reveal","image-keyboard-response","31","464968","0.0-6.0-4.3","3424925","co38881","norming","","","","","","",""
"null","../img/tt/1080tt.jpg","null","mooney2","image-keyboard-response","32","466975","0.0-6.0-5.3","3424925","co38881","norming","","","","","","",""
"2172.7449998725206","","","post_reveal_questions","survey-likert","33","469150","0.0-6.0-6.3","3424925","co38881","norming","","","{""aha"":6}","[0]","../img/tt/1080tt.jpg","",""
"null","<div style=""font-size:60px;""> </div>","null","fixation","html-keyboard-response","34","469364","0.0-6.0-0.4","3424925","co38881","norming","","","","","","",""
"null","../img/tt/598tt.jpg","null","mooney1","image-keyboard-response","35","472379","0.0-6.0-1.4","3424925","co38881","norming","","","","","","",""
"5797.539999941364","","","post_mooney1_questions","survey-likert","36","478179","0.0-6.0-2.4","3424925","co38881","norming","","","{""curiosity"":6,""confidence"":0}","[0,1]","../img/tt/598tt.jpg","",""
"4982.499999925494","","","recognition","survey-text","37","483165","0.0-6.0-3.4","3424925","co38881","norming","","","{""guess"":""Pompoen""}","","../img/tt/598tt.jpg","",""
"null","../img/gs/598gs.jpg","null","reveal","image-keyboard-response","38","485168","0.0-6.0-4.4","3424925","co38881","norming","","","","","","",""
"null","../img/tt/598tt.jpg","null","mooney2","image-keyboard-response","39","487187","0.0-6.0-5.4","3424925","co38881","norming","","","","","","",""
"2776.0199999902397","","","post_reveal_questions","survey-likert","40","489965","0.0-6.0-6.4","3424925","co38881","norming","","","{""aha"":6}","[0]","../img/tt/598tt.jpg","",""
"null","<div style=""font-size:60px;""> </div>","null","fixation","html-keyboard-response","41","490181","0.0-6.0-0.5","3424925","co38881","norming","","","","","","",""
"null","../img/tt/1188tt.jpg","null","mooney1","image-keyboard-response","42","493190","0.0-6.0-1.5","3424925","co38881","norming","","","","","","",""
"5193.475000094622","","","post_mooney1_questions","survey-likert","43","498386","0.0-6.0-2.5","3424925","co38881","norming","","","{""curiosity"":2,""confidence"":5}","[0,1]","../img/tt/1188tt.jpg","",""
"5306.875000009313","","","recognition","survey-text","44","503696","0.0-6.0-3.5","3424925","co38881","norming","","","{""guess"":""Een wielrenner""}","","../img/tt/1188tt.jpg","",""
"null","../img/gs/1188gs.jpg","null","reveal","image-keyboard-response","45","505704","0.0-6.0-4.5","3424925","co38881","norming","","","","","","",""
"null","../img/tt/1188tt.jpg","null","mooney2","image-keyboard-response","46","507720","0.0-6.0-5.5","3424925","co38881","norming","","","","","","",""
"3158.975000027567","","","post_reveal_questions","survey-likert","47","510881","0.0-6.0-6.5","3424925","co38881","norming","","","{""aha"":0}","[0]","../img/tt/1188tt.jpg","",""
"null","<div style=""font-size:60px;""> </div>","null","fixation","html-keyboard-response","48","511092","0.0-6.0-0.6","3424925","co38881","norming","","","","","","",""
"null","../img/tt/085tt.jpg","null","mooney1","image-keyboard-response","49","514107","0.0-6.0-1.6","3424925","co38881","norming","","","","","","",""
"4250.185000011697","","","post_mooney1_questions","survey-likert","50","518360","0.0-6.0-2.6","3424925","co38881","norming","","","{""curiosity"":6,""confidence"":0}","[0,1]","../img/tt/085tt.jpg","",""
"22835.149999940768","","","recognition","survey-text","51","541199","0.0-6.0-3.6","3424925","co38881","norming","","","{""guess"":""Geen idee""}","","../img/tt/085tt.jpg","",""
"null","../img/gs/085gs.jpg","null","reveal","image-keyboard-response","52","543213","0.0-6.0-4.6","3424925","co38881","norming","","","","","","",""
"null","../img/tt/085tt.jpg","null","mooney2","image-keyboard-response","53","545218","0.0-6.0-5.6","3424925","co38881","norming","","","","","","",""
"3007.1750001516193","","","post_reveal_questions","survey-likert","54","548227","0.0-6.0-6.6","3424925","co38881","norming","","","{""aha"":6}","[0]","../img/tt/085tt.jpg","",""
"null","<div style=""font-size:60px;""> </div>","null","fixation","html-keyboard-response","55","548443","0.0-6.0-0.7","3424925","co38881","norming","","","","","","",""
"null","../img/tt/020tt.jpg","null","mooney1","image-keyboard-response","56","551462","0.0-6.0-1.7","3424925","co38881","norming","","","","","","",""
"5867.785000009462","","","post_mooney1_questions","survey-likert","57","557332","0.0-6.0-2.7","3424925","co38881","norming","","","{""curiosity"":6,""confidence"":0}","[0,1]","../img/tt/020tt.jpg","",""
"16106.660000048578","","","recognition","survey-text","58","573442","0.0-6.0-3.7","3424925","co38881","norming","","","{""guess"":""""}","","../img/tt/020tt.jpg","",""
"null","../img/gs/020gs.jpg","null","reveal","image-keyboard-response","59","575445","0.0-6.0-4.7","3424925","co38881","norming","","","","","","",""
"null","../img/tt/020tt.jpg","null","mooney2","image-keyboard-response","60","577458","0.0-6.0-5.7","3424925","co38881","norming","","","","","","",""
"3227.845000103116","","","post_reveal_questions","survey-likert","61","580688","0.0-6.0-6.7","3424925","co38881","norming","","","{""aha"":6}","[0]","../img/tt/020tt.jpg","",""
"null","<div style=""font-size:60px;""> </div>","null","fixation","html-keyboard-response","62","580902","0.0-6.0-0.8","3424925","co38881","norming","","","","","","",""
"null","../img/tt/123tt.jpg","null","mooney1","image-keyboard-response","63","583907","0.0-6.0-1.8","3424925","co38881","norming","","","","","","",""
"4835.3650001809","","","post_mooney1_questions","survey-likert","64","588745","0.0-6.0-2.8","3424925","co38881","norming","","","{""curiosity"":6,""confidence"":1}","[0,1]","../img/tt/123tt.jpg","",""
"4742.245000088587","","","recognition","survey-text","65","593491","0.0-6.0-3.8","3424925","co38881","norming","","","{""guess"":""Boekentas""}","","../img/tt/123tt.jpg","",""
"null","../img/gs/123gs.jpg","null","reveal","image-keyboard-response","66","595509","0.0-6.0-4.8","3424925","co38881","norming","","","","","","",""
"null","../img/tt/123tt.jpg","null","mooney2","image-keyboard-response","67","597511","0.0-6.0-5.8","3424925","co38881","norming","","","","","","",""
"6940.064999973401","","","post_reveal_questions","survey-likert","68","604453","0.0-6.0-6.8","3424925","co38881","norming","","","{""aha"":1}","[0]","../img/tt/123tt.jpg","",""
"null","<div style=""font-size:60px;""> </div>","null","fixation","html-keyboard-response","69","604673","0.0-6.0-0.9","3424925","co38881","norming","","","","","","",""
"null","../img/tt/1033tt.jpg","null","mooney1","image-keyboard-response","70","607688","0.0-6.0-1.9","3424925","co38881","norming","","","","","","",""
"4684.6300000324845","","","post_mooney1_questions","survey-likert","71","612375","0.0-6.0-2.9","3424925","co38881","norming","","","{""curiosity"":6,""confidence"":1}","[0,1]","../img/tt/1033tt.jpg","",""
"5981.640000129119","","","recognition","survey-text","72","618360","0.0-6.0-3.9","3424925","co38881","norming","","","{""guess"":""Hockey speler""}","","../img/tt/1033tt.jpg","",""
"null","../img/gs/1033gs.jpg","null","reveal","image-keyboard-response","73","620376","0.0-6.0-4.9","3424925","co38881","norming","","","","","","",""
"null","../img/tt/1033tt.jpg","null","mooney2","image-keyboard-response","74","622386","0.0-6.0-5.9","3424925","co38881","norming","","","","","","",""
"28805.780000053346","","","post_reveal_questions","survey-likert","75","651194","0.0-6.0-6.9","3424925","co38881","norming","","","{""aha"":5}","[0]","../img/tt/1033tt.jpg","",""
"null","<div style=""font-size:60px;""> </div>","null","fixation","html-keyboard-response","76","651412","0.0-6.0-0.10","3424925","co38881","norming","","","","","","",""
"null","../img/tt/1012tt.jpg","null","mooney1","image-keyboard-response","77","654424","0.0-6.0-1.10","3424925","co38881","norming","","","","","","",""
"5787.479999940842","","","post_mooney1_questions","survey-likert","78","660214","0.0-6.0-2.10","3424925","co38881","norming","","","{""curiosity"":6,""confidence"":0}","[0,1]","../img/tt/1012tt.jpg","",""
"1709.6800000872463","","","recognition","survey-text","79","661927","0.0-6.0-3.10","3424925","co38881","norming","","","{""guess"":""""}","","../img/tt/1012tt.jpg","",""
"null","../img/gs/1012gs.jpg","null","reveal","image-keyboard-response","80","663930","0.0-6.0-4.10","3424925","co38881","norming","","","","","","",""
"null","../img/tt/1012tt.jpg","null","mooney2","image-keyboard-response","81","665938","0.0-6.0-5.10","3424925","co38881","norming","","","","","","",""
"3836.1749998293817","","","post_reveal_questions","survey-likert","82","669776","0.0-6.0-6.10","3424925","co38881","norming","","","{""aha"":6}","[0]","../img/tt/1012tt.jpg","",""
"null","<div style=""font-size:60px;""> </div>","null","fixation","html-keyboard-response","83","669991","0.0-6.0-0.11","3424925","co38881","norming","","","","","","",""
"null","../img/tt/1227tt.jpg","null","mooney1","image-keyboard-response","84","672999","0.0-6.0-1.11","3424925","co38881","norming","","","","","","",""
"3847.0050001051277","","","post_mooney1_questions","survey-likert","85","676849","0.0-6.0-2.11","3424925","co38881","norming","","","{""curiosity"":6,""confidence"":1}","[0,1]","../img/tt/1227tt.jpg","",""
"3427.7250000741333","","","recognition","survey-text","86","680280","0.0-6.0-3.11","3424925","co38881","norming","","","{""guess"":""Koeien""}","","../img/tt/1227tt.jpg","",""
"null","../img/gs/1227gs.jpg","null","reveal","image-keyboard-response","87","682294","0.0-6.0-4.11","3424925","co38881","norming","","","","","","",""
"null","../img/tt/1227tt.jpg","null","mooney2","image-keyboard-response","88","684304","0.0-6.0-5.11","3424925","co38881","norming","","","","","","",""
"3717.7750000264496","","","post_reveal_questions","survey-likert","89","688024","0.0-6.0-6.11","3424925","co38881","norming","","","{""aha"":6}","[0]","../img/tt/1227tt.jpg","",""
"null","<div style=""font-size:60px;""> </div>","null","fixation","html-keyboard-response","90","688234","0.0-6.0-0.12","3424925","co38881","norming","","","","","","",""
"null","../img/tt/1237tt.jpg","null","mooney1","image-keyboard-response","91","691236","0.0-6.0-1.12","3424925","co38881","norming","","","","","","",""
"5172.174999956042","","","post_mooney1_questions","survey-likert","92","696411","0.0-6.0-2.12","3424925","co38881","norming","","","{""curiosity"":1,""confidence"":6}","[0,1]","../img/tt/1237tt.jpg","",""
"3914.6050000563264","","","recognition","survey-text","93","700328","0.0-6.0-3.12","3424925","co38881","norming","","","{""guess"":""Een eend""}","","../img/tt/1237tt.jpg","",""
"null","../img/gs/1237gs.jpg","null","reveal","image-keyboard-response","94","702334","0.0-6.0-4.12","3424925","co38881","norming","","","","","","",""
"null","../img/tt/1237tt.jpg","null","mooney2","image-keyboard-response","95","704350","0.0-6.0-5.12","3424925","co38881","norming","","","","","","",""
"3246.6250001452863","","","post_reveal_questions","survey-likert","96","707599","0.0-6.0-6.12","3424925","co38881","norming","","","{""aha"":0}","[0]","../img/tt/1237tt.jpg","",""
"null","<div style=""font-size:60px;""> </div>","null","fixation","html-keyboard-response","97","707806","0.0-6.0-0.13","3424925","co38881","norming","","","","","","",""
"null","../img/tt/1243tt.jpg","null","mooney1","image-keyboard-response","98","710819","0.0-6.0-1.13","3424925","co38881","norming","","","","","","",""
"5384.599999990314","","","post_mooney1_questions","survey-likert","99","716206","0.0-6.0-2.13","3424925","co38881","norming","","","{""curiosity"":5,""confidence"":1}","[0,1]","../img/tt/1243tt.jpg","",""
"5314.649999840185","","","recognition","survey-text","100","721524","0.0-6.0-3.13","3424925","co38881","norming","","","{""guess"":""Gorilla""}","","../img/tt/1243tt.jpg","",""
"null","../img/gs/1243gs.jpg","null","reveal","image-keyboard-response","101","723529","0.0-6.0-4.13","3424925","co38881","norming","","","","","","",""
"null","../img/tt/1243tt.jpg","null","mooney2","image-keyboard-response","102","725537","0.0-6.0-5.13","3424925","co38881","norming","","","","","","",""
"30457.779999822378","","","post_reveal_questions","survey-likert","103","755997","0.0-6.0-6.13","3424925","co38881","norming","","","{""aha"":6}","[0]","../img/tt/1243tt.jpg","",""
"null","<div style=""font-size:60px;""> </div>","null","fixation","html-keyboard-response","104","756212","0.0-6.0-0.14","3424925","co38881","norming","","","","","","",""
"null","../img/tt/319tt.jpg","null","mooney1","image-keyboard-response","105","759214","0.0-6.0-1.14","3424925","co38881","norming","","","","","","",""
"5696.68999989517","","","post_mooney1_questions","survey-likert","106","764913","0.0-6.0-2.14","3424925","co38881","norming","","","{""curiosity"":3,""confidence"":5}","[0,1]","../img/tt/319tt.jpg","",""
"4047.885000007227","","","recognition","survey-text","107","768964","0.0-6.0-3.14","3424925","co38881","norming","","","{""guess"":""Ezels""}","","../img/tt/319tt.jpg","",""
"null","../img/gs/319gs.jpg","null","reveal","image-keyboard-response","108","770966","0.0-6.0-4.14","3424925","co38881","norming","","","","","","",""
"null","../img/tt/319tt.jpg","null","mooney2","image-keyboard-response","109","772978","0.0-6.0-5.14","3424925","co38881","norming","","","","","","",""
"2428.5899999085814","","","post_reveal_questions","survey-likert","110","775409","0.0-6.0-6.14","3424925","co38881","norming","","","{""aha"":0}","[0]","../img/tt/319tt.jpg","",""
"null","<div style=""font-size:60px;""> </div>","null","fixation","html-keyboard-response","111","775614","0.0-6.0-0.15","3424925","co38881","norming","","","","","","",""
"null","../img/tt/1146tt.jpg","null","mooney1","image-keyboard-response","112","778619","0.0-6.0-1.15","3424925","co38881","norming","","","","","","",""
"5791.394999949262","","","post_mooney1_questions","survey-likert","113","784414","0.0-6.0-2.15","3424925","co38881","norming","","","{""curiosity"":6,""confidence"":0}","[0,1]","../img/tt/1146tt.jpg","",""
"17370.525000151247","","","recognition","survey-text","114","801788","0.0-6.0-3.15","3424925","co38881","norming","","","{""guess"":""Brug""}","","../img/tt/1146tt.jpg","",""
"null","../img/gs/1146gs.jpg","null","reveal","image-keyboard-response","115","803804","0.0-6.0-4.15","3424925","co38881","norming","","","","","","",""
"null","../img/tt/1146tt.jpg","null","mooney2","image-keyboard-response","116","805820","0.0-6.0-5.15","3424925","co38881","norming","","","","","","",""
"3930.4700000211596","","","post_reveal_questions","survey-likert","117","809752","0.0-6.0-6.15","3424925","co38881","norming","","","{""aha"":6}","[0]","../img/tt/1146tt.jpg","",""
"null","<div style=""font-size:60px;""> </div>","null","fixation","html-keyboard-response","118","809969","0.0-6.0-0.16","3424925","co38881","norming","","","","","","",""
"null","../img/tt/081tt.jpg","null","mooney1","image-keyboard-response","119","812971","0.0-6.0-1.16","3424925","co38881","norming","","","","","","",""
"5892.789999954402","","","post_mooney1_questions","survey-likert","120","818866","0.0-6.0-2.16","3424925","co38881","norming","","","{""curiosity"":5,""confidence"":5}","[0,1]","../img/tt/081tt.jpg","",""
"3593.014999991283","","","recognition","survey-text","121","822463","0.0-6.0-3.16","3424925","co38881","norming","","","{""guess"":""Kikker""}","","../img/tt/081tt.jpg","",""
"null","../img/gs/081gs.jpg","null","reveal","image-keyboard-response","122","824471","0.0-6.0-4.16","3424925","co38881","norming","","","","","","",""
"null","../img/tt/081tt.jpg","null","mooney2","image-keyboard-response","123","826484","0.0-6.0-5.16","3424925","co38881","norming","","","","","","",""
"2853.9399998262525","","","post_reveal_questions","survey-likert","124","829341","0.0-6.0-6.16","3424925","co38881","norming","","","{""aha"":0}","[0]","../img/tt/081tt.jpg","",""
"null","<div style=""font-size:60px;""> </div>","null","fixation","html-keyboard-response","125","829550","0.0-6.0-0.17","3424925","co38881","norming","","","","","","",""
"null","../img/tt/468tt.jpg","null","mooney1","image-keyboard-response","126","832556","0.0-6.0-1.17","3424925","co38881","norming","","","","","","",""
"4491.274999920279","","","post_mooney1_questions","survey-likert","127","837050","0.0-6.0-2.17","3424925","co38881","norming","","","{""curiosity"":6,""confidence"":1}","[0,1]","../img/tt/468tt.jpg","",""
"3214.3449999857694","","","recognition","survey-text","128","840268","0.0-6.0-3.17","3424925","co38881","norming","","","{""guess"":""Hoed""}","","../img/tt/468tt.jpg","",""
"null","../img/gs/468gs.jpg","null","reveal","image-keyboard-response","129","842275","0.0-6.0-4.17","3424925","co38881","norming","","","","","","",""
"null","../img/tt/468tt.jpg","null","mooney2","image-keyboard-response","130","844299","0.0-6.0-5.17","3424925","co38881","norming","","","","","","",""
"16095.595000078902","","","post_reveal_questions","survey-likert","131","860396","0.0-6.0-6.17","3424925","co38881","norming","","","{""aha"":6}","[0]","../img/tt/468tt.jpg","",""
"null","<div style=""font-size:60px;""> </div>","null","fixation","html-keyboard-response","132","860600","0.0-6.0-0.18","3424925","co38881","norming","","","","","","",""
"null","../img/tt/1143tt.jpg","null","mooney1","image-keyboard-response","133","863614","0.0-6.0-1.18","3424925","co38881","norming","","","","","","",""
"6308.339999988675","","","post_mooney1_questions","survey-likert","134","869925","0.0-6.0-2.18","3424925","co38881","norming","","","{""curiosity"":6,""confidence"":1}","[0,1]","../img/tt/1143tt.jpg","",""
"4662.314999848604","","","recognition","survey-text","135","874590","0.0-6.0-3.18","3424925","co38881","norming","","","{""guess"":""Fitness""}","","../img/tt/1143tt.jpg","",""
"null","../img/gs/1143gs.jpg","null","reveal","image-keyboard-response","136","876597","0.0-6.0-4.18","3424925","co38881","norming","","","","","","",""
"null","../img/tt/1143tt.jpg","null","mooney2","image-keyboard-response","137","878599","0.0-6.0-5.18","3424925","co38881","norming","","","","","","",""
"2618.6850001104176","","","post_reveal_questions","survey-likert","138","881220","0.0-6.0-6.18","3424925","co38881","norming","","","{""aha"":1}","[0]","../img/tt/1143tt.jpg","",""
"null","<div style=""font-size:60px;""> </div>","null","fixation","html-keyboard-response","139","881424","0.0-6.0-0.19","3424925","co38881","norming","","","","","","",""
"null","../img/tt/1148tt.jpg","null","mooney1","image-keyboard-response","140","884430","0.0-6.0-1.19","3424925","co38881","norming","","","","","","",""
"4282.41500002332","","","post_mooney1_questions","survey-likert","141","888714","0.0-6.0-2.19","3424925","co38881","norming","","","{""curiosity"":6,""confidence"":0}","[0,1]","../img/tt/1148tt.jpg","",""
"6155.269999988377","","","recognition","survey-text","142","894873","0.0-6.0-3.19","3424925","co38881","norming","","","{""guess"":""Kinderwagen""}","","../img/tt/1148tt.jpg","",""
"null","../img/gs/1148gs.jpg","null","reveal","image-keyboard-response","143","896889","0.0-6.0-4.19","3424925","co38881","norming","","","","","","",""
"null","../img/tt/1148tt.jpg","null","mooney2","image-keyboard-response","144","898891","0.0-6.0-5.19","3424925","co38881","norming","","","","","","",""
"2700.2349998801947","","","post_reveal_questions","survey-likert","145","901594","0.0-6.0-6.19","3424925","co38881","norming","","","{""aha"":6}","[0]","../img/tt/1148tt.jpg","",""
"null","<div style=""font-size:60px;""> </div>","null","fixation","html-keyboard-response","146","901808","0.0-6.0-0.20","3424925","co38881","norming","","","","","","",""
"null","../img/tt/580tt.jpg","null","mooney1","image-keyboard-response","147","904822","0.0-6.0-1.20","3424925","co38881","norming","","","","","","",""
"18636.614999966696","","","post_mooney1_questions","survey-likert","148","923461","0.0-6.0-2.20","3424925","co38881","norming","","","{""curiosity"":6,""confidence"":0}","[0,1]","../img/tt/580tt.jpg","",""
"1203.1549999956042","","","recognition","survey-text","149","924667","0.0-6.0-3.20","3424925","co38881","norming","","","{""guess"":""""}","","../img/tt/580tt.jpg","",""
"null","../img/gs/580gs.jpg","null","reveal","image-keyboard-response","150","926685","0.0-6.0-4.20","3424925","co38881","norming","","","","","","",""
"null","../img/tt/580tt.jpg","null","mooney2","image-keyboard-response","151","928692","0.0-6.0-5.20","3424925","co38881","norming","","","","","","",""
"3167.7349999081343","","","post_reveal_questions","survey-likert","152","931861","0.0-6.0-6.20","3424925","co38881","norming","","","{""aha"":6}","[0]","../img/tt/580tt.jpg","",""
"null","<div style=""font-size:60px;""> </div>","null","fixation","html-keyboard-response","153","932067","0.0-6.0-0.21","3424925","co38881","norming","","","","","","",""
"null","../img/tt/1199tt.jpg","null","mooney1","image-keyboard-response","154","935074","0.0-6.0-1.21","3424925","co38881","norming","","","","","","",""
"4987.955000018701","","","post_mooney1_questions","survey-likert","155","940064","0.0-6.0-2.21","3424925","co38881","norming","","","{""curiosity"":6,""confidence"":1}","[0,1]","../img/tt/1199tt.jpg","",""
"3884.0900000650436","","","recognition","survey-text","156","943952","0.0-6.0-3.21","3424925","co38881","norming","","","{""guess"":""Cinema zaal""}","","../img/tt/1199tt.jpg","",""
"null","../img/gs/1199gs.jpg","null","reveal","image-keyboard-response","157","945969","0.0-6.0-4.21","3424925","co38881","norming","","","","","","",""
"null","../img/tt/1199tt.jpg","null","mooney2","image-keyboard-response","158","947981","0.0-6.0-5.21","3424925","co38881","norming","","","","","","",""
"2713.2900001015514","","","post_reveal_questions","survey-likert","159","950696","0.0-6.0-6.21","3424925","co38881","norming","","","{""aha"":6}","[0]","../img/tt/1199tt.jpg","",""
"null","<div style=""font-size:60px;""> </div>","null","fixation","html-keyboard-response","160","950910","0.0-6.0-0.22","3424925","co38881","norming","","","","","","",""
"null","../img/tt/094tt.jpg","null","mooney1","image-keyboard-response","161","953924","0.0-6.0-1.22","3424925","co38881","norming","","","","","","",""
"6818.680000025779","","","post_mooney1_questions","survey-likert","162","960746","0.0-6.0-2.22","3424925","co38881","norming","","","{""curiosity"":6,""confidence"":0}","[0,1]","../img/tt/094tt.jpg","",""
"1023.5349999275059","","","recognition","survey-text","163","961773","0.0-6.0-3.22","3424925","co38881","norming","","","{""guess"":""""}","","../img/tt/094tt.jpg","",""
"null","../img/gs/094gs.jpg","null","reveal","image-keyboard-response","164","963777","0.0-6.0-4.22","3424925","co38881","norming","","","","","","",""
"null","../img/tt/094tt.jpg","null","mooney2","image-keyboard-response","165","965784","0.0-6.0-5.22","3424925","co38881","norming","","","","","","",""
"2709.589999867603","","","post_reveal_questions","survey-likert","166","968496","0.0-6.0-6.22","3424925","co38881","norming","","","{""aha"":6}","[0]","../img/tt/094tt.jpg","",""
"null","<div style=""font-size:60px;""> </div>","null","fixation","html-keyboard-response","167","968712","0.0-6.0-0.23","3424925","co38881","norming","","","","","","",""
"null","../img/tt/1191tt.jpg","null","mooney1","image-keyboard-response","168","971729","0.0-6.0-1.23","3424925","co38881","norming","","","","","","",""
"4534.284999826923","","","post_mooney1_questions","survey-likert","169","976266","0.0-6.0-2.23","3424925","co38881","norming","","","{""curiosity"":6,""confidence"":1}","[0,1]","../img/tt/1191tt.jpg","",""
"7373.244999907911","","","recognition","survey-text","170","983643","0.0-6.0-3.23","3424925","co38881","norming","","","{""guess"":""Golf""}","","../img/tt/1191tt.jpg","",""
"null","../img/gs/1191gs.jpg","null","reveal","image-keyboard-response","171","985660","0.0-6.0-4.23","3424925","co38881","norming","","","","","","",""
"null","../img/tt/1191tt.jpg","null","mooney2","image-keyboard-response","172","987673","0.0-6.0-5.23","3424925","co38881","norming","","","","","","",""
"3197.9450001381338","","","post_reveal_questions","survey-likert","173","990873","0.0-6.0-6.23","3424925","co38881","norming","","","{""aha"":0}","[0]","../img/tt/1191tt.jpg","",""
"null","<div style=""font-size:60px;""> </div>","null","fixation","html-keyboard-response","174","991083","0.0-6.0-0.24","3424925","co38881","norming","","","","","","",""
"null","../img/tt/036tt.jpg","null","mooney1","image-keyboard-response","175","994088","0.0-6.0-1.24","3424925","co38881","norming","","","","","","",""
"5011.045000050217","","","post_mooney1_questions","survey-likert","176","999102","0.0-6.0-2.24","3424925","co38881","norming","","","{""curiosity"":6,""confidence"":1}","[0,1]","../img/tt/036tt.jpg","",""
"3714.549999916926","","","recognition","survey-text","177","1002820","0.0-6.0-3.24","3424925","co38881","norming","","","{""guess"":""Spinnenweb""}","","../img/tt/036tt.jpg","",""
"null","../img/gs/036gs.jpg","null","reveal","image-keyboard-response","178","1004835","0.0-6.0-4.24","3424925","co38881","norming","","","","","","",""
"null","../img/tt/036tt.jpg","null","mooney2","image-keyboard-response","179","1006846","0.0-6.0-5.24","3424925","co38881","norming","","","","","","",""
"2435.0150001700968","","","post_reveal_questions","survey-likert","180","1009283","0.0-6.0-6.24","3424925","co38881","norming","","","{""aha"":6}","[0]","../img/tt/036tt.jpg","",""
"null","<div style=""font-size:60px;""> </div>","null","fixation","html-keyboard-response","181","1009486","0.0-6.0-0.25","3424925","co38881","norming","","","","","","",""
"null","../img/tt/481tt.jpg","null","mooney1","image-keyboard-response","182","1012501","0.0-6.0-1.25","3424925","co38881","norming","","","","","","",""
"5217.160000000149","","","post_mooney1_questions","survey-likert","183","1017721","0.0-6.0-2.25","3424925","co38881","norming","","","{""curiosity"":3,""confidence"":6}","[0,1]","../img/tt/481tt.jpg","",""
"1589.0550001058728","","","recognition","survey-text","184","1019313","0.0-6.0-3.25","3424925","co38881","norming","","","{""guess"":""Hond""}","","../img/tt/481tt.jpg","",""
"null","../img/gs/481gs.jpg","null","reveal","image-keyboard-response","185","1021329","0.0-6.0-4.25","3424925","co38881","norming","","","","","","",""
"null","../img/tt/481tt.jpg","null","mooney2","image-keyboard-response","186","1023338","0.0-6.0-5.25","3424925","co38881","norming","","","","","","",""
"2628.125000046566","","","post_reveal_questions","survey-likert","187","1025969","0.0-6.0-6.25","3424925","co38881","norming","","","{""aha"":0}","[0]","../img/tt/481tt.jpg","",""
"null","<div style=""font-size:60px;""> </div>","null","fixation","html-keyboard-response","188","1026180","0.0-6.0-0.26","3424925","co38881","norming","","","","","","",""
"null","../img/tt/163tt.jpg","null","mooney1","image-keyboard-response","189","1029199","0.0-6.0-1.26","3424925","co38881","norming","","","","","","",""
"4402.800000039861","","","post_mooney1_questions","survey-likert","190","1033605","0.0-6.0-2.26","3424925","co38881","norming","","","{""curiosity"":6,""confidence"":1}","[0,1]","../img/tt/163tt.jpg","",""
"11576.020000036806","","","recognition","survey-text","191","1045184","0.0-6.0-3.26","3424925","co38881","norming","","","{""guess"":""Bloem""}","","../img/tt/163tt.jpg","",""
"null","../img/gs/163gs.jpg","null","reveal","image-keyboard-response","192","1047189","0.0-6.0-4.26","3424925","co38881","norming","","","","","","",""
"null","../img/tt/163tt.jpg","null","mooney2","image-keyboard-response","193","1049194","0.0-6.0-5.26","3424925","co38881","norming","","","","","","",""
"3860.850000055507","","","post_reveal_questions","survey-likert","194","1053057","0.0-6.0-6.26","3424925","co38881","norming","","","{""aha"":4}","[0]","../img/tt/163tt.jpg","",""
"null","<div style=""font-size:60px;""> </div>","null","fixation","html-keyboard-response","195","1053261","0.0-6.0-0.27","3424925","co38881","norming","","","","","","",""
"null","../img/tt/1175tt.jpg","null","mooney1","image-keyboard-response","196","1056267","0.0-6.0-1.27","3424925","co38881","norming","","","","","","",""
"4788.500000024214","","","post_mooney1_questions","survey-likert","197","1061058","0.0-6.0-2.27","3424925","co38881","norming","","","{""curiosity"":6,""confidence"":1}","[0,1]","../img/tt/1175tt.jpg","",""
"8613.590000197291","","","recognition","survey-text","198","1069675","0.0-6.0-3.27","3424925","co38881","norming","","","{""guess"":""Stal ""}","","../img/tt/1175tt.jpg","",""
"null","../img/gs/1175gs.jpg","null","reveal","image-keyboard-response","199","1071692","0.0-6.0-4.27","3424925","co38881","norming","","","","","","",""
"null","../img/tt/1175tt.jpg","null","mooney2","image-keyboard-response","200","1073694","0.0-6.0-5.27","3424925","co38881","norming","","","","","","",""
"2851.4849999919534","","","post_reveal_questions","survey-likert","201","1076548","0.0-6.0-6.27","3424925","co38881","norming","","","{""aha"":6}","[0]","../img/tt/1175tt.jpg","",""
"null","<div style=""font-size:60px;""> </div>","null","fixation","html-keyboard-response","202","1076760","0.0-6.0-0.28","3424925","co38881","norming","","","","","","",""
"null","../img/tt/056tt.jpg","null","mooney1","image-keyboard-response","203","1079777","0.0-6.0-1.28","3424925","co38881","norming","","","","","","",""
"6355.7499998714775","","","post_mooney1_questions","survey-likert","204","1086135","0.0-6.0-2.28","3424925","co38881","norming","","","{""curiosity"":6,""confidence"":2}","[0,1]","../img/tt/056tt.jpg","",""
"13707.580000162125","","","recognition","survey-text","205","1099846","0.0-6.0-3.28","3424925","co38881","norming","","","{""guess"":""Hond op rots""}","","../img/tt/056tt.jpg","",""
"null","../img/gs/056gs.jpg","null","reveal","image-keyboard-response","206","1101852","0.0-6.0-4.28","3424925","co38881","norming","","","","","","",""
"null","../img/tt/056tt.jpg","null","mooney2","image-keyboard-response","207","1103857","0.0-6.0-5.28","3424925","co38881","norming","","","","","","",""
"4115.564999869093","","","post_reveal_questions","survey-likert","208","1107975","0.0-6.0-6.28","3424925","co38881","norming","","","{""aha"":4}","[0]","../img/tt/056tt.jpg","",""
"null","<div style=""font-size:60px;""> </div>","null","fixation","html-keyboard-response","209","1108181","0.0-6.0-0.29","3424925","co38881","norming","","","","","","",""
"null","../img/tt/108tt.jpg","null","mooney1","image-keyboard-response","210","1111185","0.0-6.0-1.29","3424925","co38881","norming","","","","","","",""
"4995.200000004843","","","post_mooney1_questions","survey-likert","211","1116184","0.0-6.0-2.29","3424925","co38881","norming","","","{""curiosity"":6,""confidence"":1}","[0,1]","../img/tt/108tt.jpg","",""
"6111.125000054017","","","recognition","survey-text","212","1122298","0.0-6.0-3.29","3424925","co38881","norming","","","{""guess"":""Zwaan/eend""}","","../img/tt/108tt.jpg","",""
"null","../img/gs/108gs.jpg","null","reveal","image-keyboard-response","213","1124303","0.0-6.0-4.29","3424925","co38881","norming","","","","","","",""
"null","../img/tt/108tt.jpg","null","mooney2","image-keyboard-response","214","1126314","0.0-6.0-5.29","3424925","co38881","norming","","","","","","",""
"3047.484999988228","","","post_reveal_questions","survey-likert","215","1129363","0.0-6.0-6.29","3424925","co38881","norming","","","{""aha"":6}","[0]","../img/tt/108tt.jpg","",""
"null","<div style=""font-size:60px;""> </div>","null","fixation","html-keyboard-response","216","1129579","0.0-6.0-0.30","3424925","co38881","norming","","","","","","",""
"null","../img/tt/1126tt.jpg","null","mooney1","image-keyboard-response","217","1132598","0.0-6.0-1.30","3424925","co38881","norming","","","","","","",""
"4085.2699999231845","","","post_mooney1_questions","survey-likert","218","1136686","0.0-6.0-2.30","3424925","co38881","norming","","","{""curiosity"":6,""confidence"":1}","[0,1]","../img/tt/1126tt.jpg","",""
"1423.0850001331419","","","recognition","survey-text","219","1138112","0.0-6.0-3.30","3424925","co38881","norming","","","{""guess"":""Berg""}","","../img/tt/1126tt.jpg","",""
"null","../img/gs/1126gs.jpg","null","reveal","image-keyboard-response","220","1140128","0.0-6.0-4.30","3424925","co38881","norming","","","","","","",""
"null","../img/tt/1126tt.jpg","null","mooney2","image-keyboard-response","221","1142129","0.0-6.0-5.30","3424925","co38881","norming","","","","","","",""
"3026.6350000165403","","","post_reveal_questions","survey-likert","222","1145158","0.0-6.0-6.30","3424925","co38881","norming","","","{""aha"":4}","[0]","../img/tt/1126tt.jpg","",""
"null","<div style=""font-size:60px;""> </div>","null","fixation","html-keyboard-response","223","1145372","0.0-6.0-0.31","3424925","co38881","norming","","","","","","",""
"null","../img/tt/1226tt.jpg","null","mooney1","image-keyboard-response","224","1148377","0.0-6.0-1.31","3424925","co38881","norming","","","","","","",""
"4958.6899999994785","","","post_mooney1_questions","survey-likert","225","1153338","0.0-6.0-2.31","3424925","co38881","norming","","","{""curiosity"":4,""confidence"":4}","[0,1]","../img/tt/1226tt.jpg","",""
"1690.574999898672","","","recognition","survey-text","226","1155032","0.0-6.0-3.31","3424925","co38881","norming","","","{""guess"":""Kippen""}","","../img/tt/1226tt.jpg","",""
"null","../img/gs/1226gs.jpg","null","reveal","image-keyboard-response","227","1157055","0.0-6.0-4.31","3424925","co38881","norming","","","","","","",""
"null","../img/tt/1226tt.jpg","null","mooney2","image-keyboard-response","228","1159067","0.0-6.0-5.31","3424925","co38881","norming","","","","","","",""
"3188.554999884218","","","post_reveal_questions","survey-likert","229","1162258","0.0-6.0-6.31","3424925","co38881","norming","","","{""aha"":0}","[0]","../img/tt/1226tt.jpg","",""
"null","<div style=""font-size:60px;""> </div>","null","fixation","html-keyboard-response","230","1162471","0.0-6.0-0.32","3424925","co38881","norming","","","","","","",""
"null","../img/tt/418tt.jpg","null","mooney1","image-keyboard-response","231","1165487","0.0-6.0-1.32","3424925","co38881","norming","","","","","","",""
"5268.84499983862","","","post_mooney1_questions","survey-likert","232","1170759","0.0-6.0-2.32","3424925","co38881","norming","","","{""curiosity"":4,""confidence"":5}","[0,1]","../img/tt/418tt.jpg","",""
"4474.745000014082","","","recognition","survey-text","233","1175237","0.0-6.0-3.32","3424925","co38881","norming","","","{""guess"":""Tomaten ""}","","../img/tt/418tt.jpg","",""
"null","../img/gs/418gs.jpg","null","reveal","image-keyboard-response","234","1177241","0.0-6.0-4.32","3424925","co38881","norming","","","","","","",""
"null","../img/tt/418tt.jpg","null","mooney2","image-keyboard-response","235","1179251","0.0-6.0-5.32","3424925","co38881","norming","","","","","","",""
"2641.5850000921637","","","post_reveal_questions","survey-likert","236","1181895","0.0-6.0-6.32","3424925","co38881","norming","","","{""aha"":0}","[0]","../img/tt/418tt.jpg","",""
"null","<div style=""font-size:60px;""> </div>","null","fixation","html-keyboard-response","237","1182106","0.0-6.0-0.33","3424925","co38881","norming","","","","","","",""
"null","../img/tt/296tt.jpg","null","mooney1","image-keyboard-response","238","1185118","0.0-6.0-1.33","3424925","co38881","norming","","","","","","",""
"4754.204999888316","","","post_mooney1_questions","survey-likert","239","1189875","0.0-6.0-2.33","3424925","co38881","norming","","","{""curiosity"":4,""confidence"":4}","[0,1]","../img/tt/296tt.jpg","",""
"6396.889999974519","","","recognition","survey-text","240","1196275","0.0-6.0-3.33","3424925","co38881","norming","","","{""guess"":""Ziekenhuisbed ""}","","../img/tt/296tt.jpg","",""
"null","../img/gs/296gs.jpg","null","reveal","image-keyboard-response","241","1198278","0.0-6.0-4.33","3424925","co38881","norming","","","","","","",""
"null","../img/tt/296tt.jpg","null","mooney2","image-keyboard-response","242","1200294","0.0-6.0-5.33","3424925","co38881","norming","","","","","","",""
"1982.4049999006093","","","post_reveal_questions","survey-likert","243","1202278","0.0-6.0-6.33","3424925","co38881","norming","","","{""aha"":0}","[0]","../img/tt/296tt.jpg","",""
"null","<div style=""font-size:60px;""> </div>","null","fixation","html-keyboard-response","244","1202487","0.0-6.0-0.34","3424925","co38881","norming","","","","","","",""
"null","../img/tt/438tt.jpg","null","mooney1","image-keyboard-response","245","1205492","0.0-6.0-1.34","3424925","co38881","norming","","","","","","",""
"4770.0849999673665","","","post_mooney1_questions","survey-likert","246","1210264","0.0-6.0-2.34","3424925","co38881","norming","","","{""curiosity"":6,""confidence"":1}","[0,1]","../img/tt/438tt.jpg","",""
"951.9950000103563","","","recognition","survey-text","247","1211219","0.0-6.0-3.34","3424925","co38881","norming","","","{""guess"":""""}","","../img/tt/438tt.jpg","",""
"null","../img/gs/438gs.jpg","null","reveal","image-keyboard-response","248","1213226","0.0-6.0-4.34","3424925","co38881","norming","","","","","","",""
"null","../img/tt/438tt.jpg","null","mooney2","image-keyboard-response","249","1215228","0.0-6.0-5.34","3424925","co38881","norming","","","","","","",""
"2598.1449999380857","","","post_reveal_questions","survey-likert","250","1217828","0.0-6.0-6.34","3424925","co38881","norming","","","{""aha"":6}","[0]","../img/tt/438tt.jpg","",""
"null","<div style=""font-size:60px;""> </div>","null","fixation","html-keyboard-response","251","1218035","0.0-6.0-0.35","3424925","co38881","norming","","","","","","",""
"null","../img/tt/1122tt.jpg","null","mooney1","image-keyboard-response","252","1221039","0.0-6.0-1.35","3424925","co38881","norming","","","","","","",""
"4353.345000185072","","","post_mooney1_questions","survey-likert","253","1225394","0.0-6.0-2.35","3424925","co38881","norming","","","{""curiosity"":2,""confidence"":6}","[0,1]","../img/tt/1122tt.jpg","",""
"3751.1650000233203","","","recognition","survey-text","254","1229149","0.0-6.0-3.35","3424925","co38881","norming","","","{""guess"":""Boten""}","","../img/tt/1122tt.jpg","",""
"null","../img/gs/1122gs.jpg","null","reveal","image-keyboard-response","255","1231151","0.0-6.0-4.35","3424925","co38881","norming","","","","","","",""
"null","../img/tt/1122tt.jpg","null","mooney2","image-keyboard-response","256","1233153","0.0-6.0-5.35","3424925","co38881","norming","","","","","","",""
"3529.689999995753","","","post_reveal_questions","survey-likert","257","1236685","0.0-6.0-6.35","3424925","co38881","norming","","","{""aha"":0}","[0]","../img/tt/1122tt.jpg","",""
"null","<div style=""font-size:60px;""> </div>","null","fixation","html-keyboard-response","258","1236896","0.0-6.0-0.36","3424925","co38881","norming","","","","","","",""
"null","../img/tt/353tt.jpg","null","mooney1","image-keyboard-response","259","1239901","0.0-6.0-1.36","3424925","co38881","norming","","","","","","",""
"3377.3400001227856","","","post_mooney1_questions","survey-likert","260","1243281","0.0-6.0-2.36","3424925","co38881","norming","","","{""curiosity"":1,""confidence"":6}","[0,1]","../img/tt/353tt.jpg","",""
"4954.94500012137","","","recognition","survey-text","261","1248239","0.0-6.0-3.36","3424925","co38881","norming","","","{""guess"":""Pinguïn""}","","../img/tt/353tt.jpg","",""
"null","../img/gs/353gs.jpg","null","reveal","image-keyboard-response","262","1250246","0.0-6.0-4.36","3424925","co38881","norming","","","","","","",""
"null","../img/tt/353tt.jpg","null","mooney2","image-keyboard-response","263","1252251","0.0-6.0-5.36","3424925","co38881","norming","","","","","","",""
"2737.6000001095235","","","post_reveal_questions","survey-likert","264","1254991","0.0-6.0-6.36","3424925","co38881","norming","","","{""aha"":0}","[0]","../img/tt/353tt.jpg","",""
"null","<div style=""font-size:60px;""> </div>","null","fixation","html-keyboard-response","265","1255204","0.0-6.0-0.37","3424925","co38881","norming","","","","","","",""
"null","../img/tt/416tt.jpg","null","mooney1","image-keyboard-response","266","1258221","0.0-6.0-1.37","3424925","co38881","norming","","","","","","",""
"32298.500000033528","","","post_mooney1_questions","survey-likert","267","1290523","0.0-6.0-2.37","3424925","co38881","norming","","","{""curiosity"":0,""confidence"":6}","[0,1]","../img/tt/416tt.jpg","",""
"5894.945000065491","","","recognition","survey-text","268","1296421","0.0-6.0-3.37","3424925","co38881","norming","","","{""guess"":""Struisvogels""}","","../img/tt/416tt.jpg","",""
"null","../img/gs/416gs.jpg","null","reveal","image-keyboard-response","269","1298437","0.0-6.0-4.37","3424925","co38881","norming","","","","","","",""
"null","../img/tt/416tt.jpg","null","mooney2","image-keyboard-response","270","1300456","0.0-6.0-5.37","3424925","co38881","norming","","","","","","",""
"2657.725000055507","","","post_reveal_questions","survey-likert","271","1303115","0.0-6.0-6.37","3424925","co38881","norming","","","{""aha"":0}","[0]","../img/tt/416tt.jpg","",""
"null","<div style=""font-size:60px;""> </div>","null","fixation","html-keyboard-response","272","1303329","0.0-6.0-0.38","3424925","co38881","norming","","","","","","",""
"null","../img/tt/079tt.jpg","null","mooney1","image-keyboard-response","273","1306331","0.0-6.0-1.38","3424925","co38881","norming","","","","","","",""
"5804.280000040308","","","post_mooney1_questions","survey-likert","274","1312137","0.0-6.0-2.38","3424925","co38881","norming","","","{""curiosity"":0,""confidence"":6}","[0,1]","../img/tt/079tt.jpg","",""
"2160.2950000669807","","","recognition","survey-text","275","1314301","0.0-6.0-3.38","3424925","co38881","norming","","","{""guess"":""Beer""}","","../img/tt/079tt.jpg","",""
"null","../img/gs/079gs.jpg","null","reveal","image-keyboard-response","276","1316314","0.0-6.0-4.38","3424925","co38881","norming","","","","","","",""
"null","../img/tt/079tt.jpg","null","mooney2","image-keyboard-response","277","1318332","0.0-6.0-5.38","3424925","co38881","norming","","","","","","",""
"3263.8600000645965","","","post_reveal_questions","survey-likert","278","1321597","0.0-6.0-6.38","3424925","co38881","norming","","","{""aha"":0}","[0]","../img/tt/079tt.jpg","",""
"null","<div style=""font-size:60px;""> </div>","null","fixation","html-keyboard-response","279","1321812","0.0-6.0-0.39","3424925","co38881","norming","","","","","","",""
"null","../img/tt/584tt.jpg","null","mooney1","image-keyboard-response","280","1324824","0.0-6.0-1.39","3424925","co38881","norming","","","","","","",""
"4663.154999958351","","","post_mooney1_questions","survey-likert","281","1329491","0.0-6.0-2.39","3424925","co38881","norming","","","{""curiosity"":5,""confidence"":3}","[0,1]","../img/tt/584tt.jpg","",""
"30046.820000046864","","","recognition","survey-text","282","1359541","0.0-6.0-3.39","3424925","co38881","norming","","","{""guess"":""Tuin schaar""}","","../img/tt/584tt.jpg","",""
"null","../img/gs/584gs.jpg","null","reveal","image-keyboard-response","283","1361551","0.0-6.0-4.39","3424925","co38881","norming","","","","","","",""
"null","../img/tt/584tt.jpg","null","mooney2","image-keyboard-response","284","1363556","0.0-6.0-5.39","3424925","co38881","norming","","","","","","",""
"4119.32500009425","","","post_reveal_questions","survey-likert","285","1367678","0.0-6.0-6.39","3424925","co38881","norming","","","{""aha"":3}","[0]","../img/tt/584tt.jpg","",""
"null","<div style=""font-size:60px;""> </div>","null","fixation","html-keyboard-response","286","1367885","0.0-6.0-0.40","3424925","co38881","norming","","","","","","",""
"null","../img/tt/135tt.jpg","null","mooney1","image-keyboard-response","287","1370891","0.0-6.0-1.40","3424925","co38881","norming","","","","","","",""
"4734.809999819845","","","post_mooney1_questions","survey-likert","288","1375629","0.0-6.0-2.40","3424925","co38881","norming","","","{""curiosity"":0,""confidence"":6}","[0,1]","../img/tt/135tt.jpg","",""
"3524.165000068024","","","recognition","survey-text","289","1379156","0.0-6.0-3.40","3424925","co38881","norming","","","{""guess"":""Toilet""}","","../img/tt/135tt.jpg","",""
"null","../img/gs/135gs.jpg","null","reveal","image-keyboard-response","290","1381171","0.0-6.0-4.40","3424925","co38881","norming","","","","","","",""
"null","../img/tt/135tt.jpg","null","mooney2","image-keyboard-response","291","1383186","0.0-6.0-5.40","3424925","co38881","norming","","","","","","",""
"2899.5900000445545","","","post_reveal_questions","survey-likert","292","1386088","0.0-6.0-6.40","3424925","co38881","norming","","","{""aha"":0}","[0]","../img/tt/135tt.jpg","",""
"null","<div style=""font-size:60px;""> </div>","null","fixation","html-keyboard-response","293","1386304","0.0-6.0-0.41","3424925","co38881","norming","","","","","","",""
"null","../img/tt/1279tt.jpg","null","mooney1","image-keyboard-response","294","1389320","0.0-6.0-1.41","3424925","co38881","norming","","","","","","",""
"5309.059999883175","","","post_mooney1_questions","survey-likert","295","1394632","0.0-6.0-2.41","3424925","co38881","norming","","","{""curiosity"":6,""confidence"":1}","[0,1]","../img/tt/1279tt.jpg","",""
"1556.855000089854","","","recognition","survey-text","296","1396192","0.0-6.0-3.41","3424925","co38881","norming","","","{""guess"":""Koe""}","","../img/tt/1279tt.jpg","",""
"null","../img/gs/1279gs.jpg","null","reveal","image-keyboard-response","297","1398208","0.0-6.0-4.41","3424925","co38881","norming","","","","","","",""
"null","../img/tt/1279tt.jpg","null","mooney2","image-keyboard-response","298","1400218","0.0-6.0-5.41","3424925","co38881","norming","","","","","","",""
"2737.88999998942","","","post_reveal_questions","survey-likert","299","1402958","0.0-6.0-6.41","3424925","co38881","norming","","","{""aha"":5}","[0]","../img/tt/1279tt.jpg","",""
"null","<div style=""font-size:60px;""> </div>","null","fixation","html-keyboard-response","300","1403163","0.0-6.0-0.42","3424925","co38881","norming","","","","","","",""
"null","../img/tt/315tt.jpg","null","mooney1","image-keyboard-response","301","1406168","0.0-6.0-1.42","3424925","co38881","norming","","","","","","",""
"4709.024999989197","","","post_mooney1_questions","survey-likert","302","1410881","0.0-6.0-2.42","3424925","co38881","norming","","","{""curiosity"":6,""confidence"":1}","[0,1]","../img/tt/315tt.jpg","",""
"4128.999999957159","","","recognition","survey-text","303","1415013","0.0-6.0-3.42","3424925","co38881","norming","","","{""guess"":""Konijn""}","","../img/tt/315tt.jpg","",""
"null","../img/gs/315gs.jpg","null","reveal","image-keyboard-response","304","1417018","0.0-6.0-4.42","3424925","co38881","norming","","","","","","",""
"null","../img/tt/315tt.jpg","null","mooney2","image-keyboard-response","305","1419033","0.0-6.0-5.42","3424925","co38881","norming","","","","","","",""
"3327.8550000395626","","","post_reveal_questions","survey-likert","306","1422363","0.0-6.0-6.42","3424925","co38881","norming","","","{""aha"":6}","[0]","../img/tt/315tt.jpg","",""
"null","<div style=""font-size:60px;""> </div>","null","fixation","html-keyboard-response","307","1422577","0.0-6.0-0.43","3424925","co38881","norming","","","","","","",""
"null","../img/tt/124tt.jpg","null","mooney1","image-keyboard-response","308","1425586","0.0-6.0-1.43","3424925","co38881","norming","","","","","","",""
"4040.555000072345","","","post_mooney1_questions","survey-likert","309","1429629","0.0-6.0-2.43","3424925","co38881","norming","","","{""curiosity"":5,""confidence"":4}","[0,1]","../img/tt/124tt.jpg","",""
"2072.730000130832","","","recognition","survey-text","310","1431705","0.0-6.0-3.43","3424925","co38881","norming","","","{""guess"":""Bever""}","","../img/tt/124tt.jpg","",""
"null","../img/gs/124gs.jpg","null","reveal","image-keyboard-response","311","1433707","0.0-6.0-4.43","3424925","co38881","norming","","","","","","",""
"null","../img/tt/124tt.jpg","null","mooney2","image-keyboard-response","312","1435713","0.0-6.0-5.43","3424925","co38881","norming","","","","","","",""
"1600.235000019893","","","post_reveal_questions","survey-likert","313","1437315","0.0-6.0-6.43","3424925","co38881","norming","","","{""aha"":6}","[0]","../img/tt/124tt.jpg","",""
"null","<div style=""font-size:60px;""> </div>","null","fixation","html-keyboard-response","314","1437526","0.0-6.0-0.44","3424925","co38881","norming","","","","","","",""
"null","../img/tt/1066tt.jpg","null","mooney1","image-keyboard-response","315","1440530","0.0-6.0-1.44","3424925","co38881","norming","","","","","","",""
"3969.425000017509","","","post_mooney1_questions","survey-likert","316","1444503","0.0-6.0-2.44","3424925","co38881","norming","","","{""curiosity"":5,""confidence"":3}","[0,1]","../img/tt/1066tt.jpg","",""
"1648.795000044629","","","recognition","survey-text","317","1446154","0.0-6.0-3.44","3424925","co38881","norming","","","{""guess"":""Bus""}","","../img/tt/1066tt.jpg","",""
"null","../img/gs/1066gs.jpg","null","reveal","image-keyboard-response","318","1448168","0.0-6.0-4.44","3424925","co38881","norming","","","","","","",""
"null","../img/tt/1066tt.jpg","null","mooney2","image-keyboard-response","319","1450173","0.0-6.0-5.44","3424925","co38881","norming","","","","","","",""
"3095.6099999602884","","","post_reveal_questions","survey-likert","320","1453271","0.0-6.0-6.44","3424925","co38881","norming","","","{""aha"":0}","[0]","../img/tt/1066tt.jpg","",""
"null","<div style=""font-size:60px;""> </div>","null","fixation","html-keyboard-response","321","1453475","0.0-6.0-0.45","3424925","co38881","norming","","","","","","",""
"null","../img/tt/1072tt.jpg","null","mooney1","image-keyboard-response","322","1456479","0.0-6.0-1.45","3424925","co38881","norming","","","","","","",""
"4677.239999873564","","","post_mooney1_questions","survey-likert","323","1461159","0.0-6.0-2.45","3424925","co38881","norming","","","{""curiosity"":6,""confidence"":2}","[0,1]","../img/tt/1072tt.jpg","",""
"2760.1550000254065","","","recognition","survey-text","324","1463922","0.0-6.0-3.45","3424925","co38881","norming","","","{""guess"":""Brommer""}","","../img/tt/1072tt.jpg","",""
"null","../img/gs/1072gs.jpg","null","reveal","image-keyboard-response","325","1465933","0.0-6.0-4.45","3424925","co38881","norming","","","","","","",""
"null","../img/tt/1072tt.jpg","null","mooney2","image-keyboard-response","326","1467946","0.0-6.0-5.45","3424925","co38881","norming","","","","","","",""
"3083.9249999262393","","","post_reveal_questions","survey-likert","327","1471032","0.0-6.0-6.45","3424925","co38881","norming","","","{""aha"":2}","[0]","../img/tt/1072tt.jpg","",""
"null","<div style=""font-size:60px;""> </div>","null","fixation","html-keyboard-response","328","1471236","0.0-6.0-0.46","3424925","co38881","norming","","","","","","",""
"null","../img/tt/019tt.jpg","null","mooney1","image-keyboard-response","329","1474248","0.0-6.0-1.46","3424925","co38881","norming","","","","","","",""
"3706.5399999264628","","","post_mooney1_questions","survey-likert","330","1477957","0.0-6.0-2.46","3424925","co38881","norming","","","{""curiosity"":5,""confidence"":2}","[0,1]","../img/tt/019tt.jpg","",""
"1774.6999999508262","","","recognition","survey-text","331","1479735","0.0-6.0-3.46","3424925","co38881","norming","","","{""guess"":""Brug""}","","../img/tt/019tt.jpg","",""
"null","../img/gs/019gs.jpg","null","reveal","image-keyboard-response","332","1481750","0.0-6.0-4.46","3424925","co38881","norming","","","","","","",""
"null","../img/tt/019tt.jpg","null","mooney2","image-keyboard-response","333","1483765","0.0-6.0-5.46","3424925","co38881","norming","","","","","","",""
"3351.1250000447035","","","post_reveal_questions","survey-likert","334","1487118","0.0-6.0-6.46","3424925","co38881","norming","","","{""aha"":4}","[0]","../img/tt/019tt.jpg","",""
"null","<div style=""font-size:60px;""> </div>","null","fixation","html-keyboard-response","335","1487320","0.0-6.0-0.47","3424925","co38881","norming","","","","","","",""
"null","../img/tt/1004tt.jpg","null","mooney1","image-keyboard-response","336","1490331","0.0-6.0-1.47","3424925","co38881","norming","","","","","","",""
"4714.0699999872595","","","post_mooney1_questions","survey-likert","337","1495047","0.0-6.0-2.47","3424925","co38881","norming","","","{""curiosity"":5,""confidence"":2}","[0,1]","../img/tt/1004tt.jpg","",""
"1685.7499999459833","","","recognition","survey-text","338","1496736","0.0-6.0-3.47","3424925","co38881","norming","","","{""guess"":""Beer""}","","../img/tt/1004tt.jpg","",""
"null","../img/gs/1004gs.jpg","null","reveal","image-keyboard-response","339","1498749","0.0-6.0-4.47","3424925","co38881","norming","","","","","","",""
"null","../img/tt/1004tt.jpg","null","mooney2","image-keyboard-response","340","1500766","0.0-6.0-5.47","3424925","co38881","norming","","","","","","",""
"4282.760000089183","","","post_reveal_questions","survey-likert","341","1505051","0.0-6.0-6.47","3424925","co38881","norming","","","{""aha"":6}","[0]","../img/tt/1004tt.jpg","",""
"null","<div style=""font-size:60px;""> </div>","null","fixation","html-keyboard-response","342","1505267","0.0-6.0-0.48","3424925","co38881","norming","","","","","","",""
"null","../img/tt/1275tt.jpg","null","mooney1","image-keyboard-response","343","1508278","0.0-6.0-1.48","3424925","co38881","norming","","","","","","",""
"12780.04499990493","","","post_mooney1_questions","survey-likert","344","1521061","0.0-6.0-2.48","3424925","co38881","norming","","","{""curiosity"":6,""confidence"":4}","[0,1]","../img/tt/1275tt.jpg","",""
"2031.0349999926984","","","recognition","survey-text","345","1523096","0.0-6.0-3.48","3424925","co38881","norming","","","{""guess"":""Olifant""}","","../img/tt/1275tt.jpg","",""
"null","../img/gs/1275gs.jpg","null","reveal","image-keyboard-response","346","1525112","0.0-6.0-4.48","3424925","co38881","norming","","","","","","",""
"null","../img/tt/1275tt.jpg","null","mooney2","image-keyboard-response","347","1527126","0.0-6.0-5.48","3424925","co38881","norming","","","","","","",""
"2701.429999899119","","","post_reveal_questions","survey-likert","348","1529830","0.0-6.0-6.48","3424925","co38881","norming","","","{""aha"":6}","[0]","../img/tt/1275tt.jpg","",""
"null","<div style=""font-size:60px;""> </div>","null","fixation","html-keyboard-response","349","1530034","0.0-6.0-0.49","3424925","co38881","norming","","","","","","",""
"null","../img/tt/105tt.jpg","null","mooney1","image-keyboard-response","350","1533040","0.0-6.0-1.49","3424925","co38881","norming","","","","","","",""
"5275.19499999471","","","post_mooney1_questions","survey-likert","351","1538318","0.0-6.0-2.49","3424925","co38881","norming","","","{""curiosity"":2,""confidence"":5}","[0,1]","../img/tt/105tt.jpg","",""
"5032.325000036508","","","recognition","survey-text","352","1543353","0.0-6.0-3.49","3424925","co38881","norming","","","{""guess"":""Paperclips ""}","","../img/tt/105tt.jpg","",""
"null","../img/gs/105gs.jpg","null","reveal","image-keyboard-response","353","1545358","0.0-6.0-4.49","3424925","co38881","norming","","","","","","",""
"null","../img/tt/105tt.jpg","null","mooney2","image-keyboard-response","354","1547371","0.0-6.0-5.49","3424925","co38881","norming","","","","","","",""
"2717.4599999561906","","","post_reveal_questions","survey-likert","355","1550090","0.0-6.0-6.49","3424925","co38881","norming","","","{""aha"":0}","[0]","../img/tt/105tt.jpg","",""
"null","<div style=""font-size:60px;""> </div>","null","fixation","html-keyboard-response","356","1550308","0.0-6.0-0.50","3424925","co38881","norming","","","","","","",""
"null","../img/tt/1196tt.jpg","null","mooney1","image-keyboard-response","357","1553311","0.0-6.0-1.50","3424925","co38881","norming","","","","","","",""
"4173.519999952987","","","post_mooney1_questions","survey-likert","358","1557486","0.0-6.0-2.50","3424925","co38881","norming","","","{""curiosity"":6,""confidence"":0}","[0,1]","../img/tt/1196tt.jpg","",""
"2221.3899998459965","","","recognition","survey-text","359","1559711","0.0-6.0-3.50","3424925","co38881","norming","","","{""guess"":""""}","","../img/tt/1196tt.jpg","",""
"null","../img/gs/1196gs.jpg","null","reveal","image-keyboard-response","360","1561727","0.0-6.0-4.50","3424925","co38881","norming","","","","","","",""
"null","../img/tt/1196tt.jpg","null","mooney2","image-keyboard-response","361","1563729","0.0-6.0-5.50","3424925","co38881","norming","","","","","","",""
"2646.334999939427","","","post_reveal_questions","survey-likert","362","1566378","0.0-6.0-6.50","3424925","co38881","norming","","","{""aha"":6}","[0]","../img/tt/1196tt.jpg","",""
"null","<div style=""font-size:60px;""> </div>","null","fixation","html-keyboard-response","363","1566588","0.0-6.0-0.51","3424925","co38881","norming","","","","","","",""
"null","../img/tt/552tt.jpg","null","mooney1","image-keyboard-response","364","1569604","0.0-6.0-1.51","3424925","co38881","norming","","","","","","",""
"4259.599999990314","","","post_mooney1_questions","survey-likert","365","1573867","0.0-6.0-2.51","3424925","co38881","norming","","","{""curiosity"":4,""confidence"":5}","[0,1]","../img/tt/552tt.jpg","",""
"2402.114999946207","","","recognition","survey-text","366","1576272","0.0-6.0-3.51","3424925","co38881","norming","","","{""guess"":""Stinkdier""}","","../img/tt/552tt.jpg","",""
"null","../img/gs/552gs.jpg","null","reveal","image-keyboard-response","367","1578287","0.0-6.0-4.51","3424925","co38881","norming","","","","","","",""
"null","../img/tt/552tt.jpg","null","mooney2","image-keyboard-response","368","1580292","0.0-6.0-5.51","3424925","co38881","norming","","","","","","",""
"2157.0449999999255","","","post_reveal_questions","survey-likert","369","1582451","0.0-6.0-6.51","3424925","co38881","norming","","","{""aha"":0}","[0]","../img/tt/552tt.jpg","",""
"null","<div style=""font-size:60px;""> </div>","null","fixation","html-keyboard-response","370","1582666","0.0-6.0-0.52","3424925","co38881","norming","","","","","","",""
"null","../img/tt/270tt.jpg","null","mooney1","image-keyboard-response","371","1585681","0.0-6.0-1.52","3424925","co38881","norming","","","","","","",""
"5547.04499989748","","","post_mooney1_questions","survey-likert","372","1591230","0.0-6.0-2.52","3424925","co38881","norming","","","{""curiosity"":5,""confidence"":4}","[0,1]","../img/tt/270tt.jpg","",""
"1378.254999872297","","","recognition","survey-text","373","1592611","0.0-6.0-3.52","3424925","co38881","norming","","","{""guess"":""Hert""}","","../img/tt/270tt.jpg","",""
"null","../img/gs/270gs.jpg","null","reveal","image-keyboard-response","374","1594623","0.0-6.0-4.52","3424925","co38881","norming","","","","","","",""
"null","../img/tt/270tt.jpg","null","mooney2","image-keyboard-response","375","1596629","0.0-6.0-5.52","3424925","co38881","norming","","","","","","",""
"3490.5150001868606","","","post_reveal_questions","survey-likert","376","1600121","0.0-6.0-6.52","3424925","co38881","norming","","","{""aha"":3}","[0]","../img/tt/270tt.jpg","",""
"null","<div style=""font-size:60px;""> </div>","null","fixation","html-keyboard-response","377","1600326","0.0-6.0-0.53","3424925","co38881","norming","","","","","","",""
"null","../img/tt/063tt.jpg","null","mooney1","image-keyboard-response","378","1603331","0.0-6.0-1.53","3424925","co38881","norming","","","","","","",""
"4523.250000085682","","","post_mooney1_questions","survey-likert","379","1607857","0.0-6.0-2.53","3424925","co38881","norming","","","{""curiosity"":6,""confidence"":1}","[0,1]","../img/tt/063tt.jpg","",""
"2898.9800000563264","","","recognition","survey-text","380","1610759","0.0-6.0-3.53","3424925","co38881","norming","","","{""guess"":""Telefoon""}","","../img/tt/063tt.jpg","",""
"null","../img/gs/063gs.jpg","null","reveal","image-keyboard-response","381","1612766","0.0-6.0-4.53","3424925","co38881","norming","","","","","","",""
"null","../img/tt/063tt.jpg","null","mooney2","image-keyboard-response","382","1614769","0.0-6.0-5.53","3424925","co38881","norming","","","","","","",""
"2021.4350000023842","","","post_reveal_questions","survey-likert","383","1616792","0.0-6.0-6.53","3424925","co38881","norming","","","{""aha"":6}","[0]","../img/tt/063tt.jpg","",""
"null","<div style=""font-size:60px;""> </div>","null","fixation","html-keyboard-response","384","1617003","0.0-6.0-0.54","3424925","co38881","norming","","","","","","",""
"null","../img/tt/1270tt.jpg","null","mooney1","image-keyboard-response","385","1620012","0.0-6.0-1.54","3424925","co38881","norming","","","","","","",""
"3914.3199999816716","","","post_mooney1_questions","survey-likert","386","1623930","0.0-6.0-2.54","3424925","co38881","norming","","","{""curiosity"":4,""confidence"":5}","[0,1]","../img/tt/1270tt.jpg","",""
"2591.8600000441074","","","recognition","survey-text","387","1626524","0.0-6.0-3.54","3424925","co38881","norming","","","{""guess"":""Muis""}","","../img/tt/1270tt.jpg","",""
"null","../img/gs/1270gs.jpg","null","reveal","image-keyboard-response","388","1628528","0.0-6.0-4.54","3424925","co38881","norming","","","","","","",""
"null","../img/tt/1270tt.jpg","null","mooney2","image-keyboard-response","389","1630544","0.0-6.0-5.54","3424925","co38881","norming","","","","","","",""
"1980.9200000017881","","","post_reveal_questions","survey-likert","390","1632527","0.0-6.0-6.54","3424925","co38881","norming","","","{""aha"":1}","[0]","../img/tt/1270tt.jpg","",""
"null","<div style=""font-size:60px;""> </div>","null","fixation","html-keyboard-response","391","1632740","0.0-6.0-0.55","3424925","co38881","norming","","","","","","",""
"null","../img/tt/436tt.jpg","null","mooney1","image-keyboard-response","392","1635742","0.0-6.0-1.55","3424925","co38881","norming","","","","","","",""
"5247.280000010505","","","post_mooney1_questions","survey-likert","393","1640992","0.0-6.0-2.55","3424925","co38881","norming","","","{""curiosity"":4,""confidence"":4}","[0,1]","../img/tt/436tt.jpg","",""
"3146.4500001166016","","","recognition","survey-text","394","1644142","0.0-6.0-3.55","3424925","co38881","norming","","","{""guess"":""Salamander""}","","../img/tt/436tt.jpg","",""
"null","../img/gs/436gs.jpg","null","reveal","image-keyboard-response","395","1646152","0.0-6.0-4.55","3424925","co38881","norming","","","","","","",""
"null","../img/tt/436tt.jpg","null","mooney2","image-keyboard-response","396","1648166","0.0-6.0-5.55","3424925","co38881","norming","","","","","","",""
"3226.0549999773502","","","post_reveal_questions","survey-likert","397","1651395","0.0-6.0-6.55","3424925","co38881","norming","","","{""aha"":1}","[0]","../img/tt/436tt.jpg","",""
"null","<div style=""font-size:60px;""> </div>","null","fixation","html-keyboard-response","398","1651604","0.0-6.0-0.56","3424925","co38881","norming","","","","","","",""
"null","../img/tt/1142tt.jpg","null","mooney1","image-keyboard-response","399","1654614","0.0-6.0-1.56","3424925","co38881","norming","","","","","","",""
"5127.584999892861","","","post_mooney1_questions","survey-likert","400","1659744","0.0-6.0-2.56","3424925","co38881","norming","","","{""curiosity"":5,""confidence"":3}","[0,1]","../img/tt/1142tt.jpg","",""
"2718.339999904856","","","recognition","survey-text","401","1662466","0.0-6.0-3.56","3424925","co38881","norming","","","{""guess"":""Rugby speler""}","","../img/tt/1142tt.jpg","",""
"null","../img/gs/1142gs.jpg","null","reveal","image-keyboard-response","402","1664474","0.0-6.0-4.56","3424925","co38881","norming","","","","","","",""
"null","../img/tt/1142tt.jpg","null","mooney2","image-keyboard-response","403","1666478","0.0-6.0-5.56","3424925","co38881","norming","","","","","","",""
"36684.09500014968","","","post_reveal_questions","survey-likert","404","1703165","0.0-6.0-6.56","3424925","co38881","norming","","","{""aha"":6}","[0]","../img/tt/1142tt.jpg","",""
"null","<div style=""font-size:60px;""> </div>","null","fixation","html-keyboard-response","405","1703371","0.0-6.0-0.57","3424925","co38881","norming","","","","","","",""
"null","../img/tt/1048tt.jpg","null","mooney1","image-keyboard-response","406","1706388","0.0-6.0-1.57","3424925","co38881","norming","","","","","","",""
"4832.530000014231","","","post_mooney1_questions","survey-likert","407","1711223","0.0-6.0-2.57","3424925","co38881","norming","","","{""curiosity"":5,""confidence"":2}","[0,1]","../img/tt/1048tt.jpg","",""
"2897.330000065267","","","recognition","survey-text","408","1714124","0.0-6.0-3.57","3424925","co38881","norming","","","{""guess"":""Draak""}","","../img/tt/1048tt.jpg","",""
"null","../img/gs/1048gs.jpg","null","reveal","image-keyboard-response","409","1716138","0.0-6.0-4.57","3424925","co38881","norming","","","","","","",""
"null","../img/tt/1048tt.jpg","null","mooney2","image-keyboard-response","410","1718147","0.0-6.0-5.57","3424925","co38881","norming","","","","","","",""
"3876.7099999822676","","","post_reveal_questions","survey-likert","411","1722026","0.0-6.0-6.57","3424925","co38881","norming","","","{""aha"":6}","[0]","../img/tt/1048tt.jpg","",""
"null","<div style=""font-size:60px;""> </div>","null","fixation","html-keyboard-response","412","1722243","0.0-6.0-0.58","3424925","co38881","norming","","","","","","",""
"null","../img/tt/1251tt.jpg","null","mooney1","image-keyboard-response","413","1725258","0.0-6.0-1.58","3424925","co38881","norming","","","","","","",""
"5551.304999971762","","","post_mooney1_questions","survey-likert","414","1730812","0.0-6.0-2.58","3424925","co38881","norming","","","{""curiosity"":6,""confidence"":0}","[0,1]","../img/tt/1251tt.jpg","",""
"1722.9300001636147","","","recognition","survey-text","415","1732538","0.0-6.0-3.58","3424925","co38881","norming","","","{""guess"":""""}","","../img/tt/1251tt.jpg","",""
"null","../img/gs/1251gs.jpg","null","reveal","image-keyboard-response","416","1734554","0.0-6.0-4.58","3424925","co38881","norming","","","","","","",""
"null","../img/tt/1251tt.jpg","null","mooney2","image-keyboard-response","417","1736572","0.0-6.0-5.58","3424925","co38881","norming","","","","","","",""
"3415.589999873191","","","post_reveal_questions","survey-likert","418","1739990","0.0-6.0-6.58","3424925","co38881","norming","","","{""aha"":6}","[0]","../img/tt/1251tt.jpg","",""
"null","<div style=""font-size:60px;""> </div>","null","fixation","html-keyboard-response","419","1740194","0.0-6.0-0.59","3424925","co38881","norming","","","","","","",""
"null","../img/tt/1211tt.jpg","null","mooney1","image-keyboard-response","420","1743204","0.0-6.0-1.59","3424925","co38881","norming","","","","","","",""
"5589.415000053123","","","post_mooney1_questions","survey-likert","421","1748796","0.0-6.0-2.59","3424925","co38881","norming","","","{""curiosity"":5,""confidence"":1}","[0,1]","../img/tt/1211tt.jpg","",""
"3097.62499993667","","","recognition","survey-text","422","1751897","0.0-6.0-3.59","3424925","co38881","norming","","","{""guess"":""Landschap""}","","../img/tt/1211tt.jpg","",""
"null","../img/gs/1211gs.jpg","null","reveal","image-keyboard-response","423","1753907","0.0-6.0-4.59","3424925","co38881","norming","","","","","","",""
"null","../img/tt/1211tt.jpg","null","mooney2","image-keyboard-response","424","1755910","0.0-6.0-5.59","3424925","co38881","norming","","","","","","",""
"3994.365000165999","","","post_reveal_questions","survey-likert","425","1759906","0.0-6.0-6.59","3424925","co38881","norming","","","{""aha"":6}","[0]","../img/tt/1211tt.jpg","",""
"null","<div style=""font-size:60px;""> </div>","null","fixation","html-keyboard-response","426","1760110","0.0-6.0-0.60","3424925","co38881","norming","","","","","","",""
"null","../img/tt/1130tt.jpg","null","mooney1","image-keyboard-response","427","1763129","0.0-6.0-1.60","3424925","co38881","norming","","","","","","",""
"3469.529999885708","","","post_mooney1_questions","survey-likert","428","1766601","0.0-6.0-2.60","3424925","co38881","norming","","","{""curiosity"":6,""confidence"":0}","[0,1]","../img/tt/1130tt.jpg","",""
"817.5250000786036","","","recognition","survey-text","429","1767422","0.0-6.0-3.60","3424925","co38881","norming","","","{""guess"":""""}","","../img/tt/1130tt.jpg","",""
"null","../img/gs/1130gs.jpg","null","reveal","image-keyboard-response","430","1769425","0.0-6.0-4.60","3424925","co38881","norming","","","","","","",""
"null","../img/tt/1130tt.jpg","null","mooney2","image-keyboard-response","431","1771430","0.0-6.0-5.60","3424925","co38881","norming","","","","","","",""
"2554.3899999465793","","","post_reveal_questions","survey-likert","432","1773987","0.0-6.0-6.60","3424925","co38881","norming","","","{""aha"":2}","[0]","../img/tt/1130tt.jpg","",""
"null","<div style=""font-size:60px;""> </div>","null","fixation","html-keyboard-response","433","1774199","0.0-6.0-0.61","3424925","co38881","norming","","","","","","",""
"null","../img/tt/112tt.jpg","null","mooney1","image-keyboard-response","434","1777214","0.0-6.0-1.61","3424925","co38881","norming","","","","","","",""
"3938.259999966249","","","post_mooney1_questions","survey-likert","435","1781155","0.0-6.0-2.61","3424925","co38881","norming","","","{""curiosity"":4,""confidence"":4}","[0,1]","../img/tt/112tt.jpg","",""
"3146.2550000287592","","","recognition","survey-text","436","1784304","0.0-6.0-3.61","3424925","co38881","norming","","","{""guess"":""Brandblusser""}","","../img/tt/112tt.jpg","",""
"null","../img/gs/112gs.jpg","null","reveal","image-keyboard-response","437","1786320","0.0-6.0-4.61","3424925","co38881","norming","","","","","","",""
"null","../img/tt/112tt.jpg","null","mooney2","image-keyboard-response","438","1788330","0.0-6.0-5.61","3424925","co38881","norming","","","","","","",""
"2699.1699999198318","","","post_reveal_questions","survey-likert","439","1791031","0.0-6.0-6.61","3424925","co38881","norming","","","{""aha"":6}","[0]","../img/tt/112tt.jpg","",""
"null","<div style=""font-size:60px;""> </div>","null","fixation","html-keyboard-response","440","1791247","0.0-6.0-0.62","3424925","co38881","norming","","","","","","",""
"null","../img/tt/1161tt.jpg","null","mooney1","image-keyboard-response","441","1794261","0.0-6.0-1.62","3424925","co38881","norming","","","","","","",""
"3817.879999987781","","","post_mooney1_questions","survey-likert","442","1798082","0.0-6.0-2.62","3424925","co38881","norming","","","{""curiosity"":5,""confidence"":3}","[0,1]","../img/tt/1161tt.jpg","",""
"3794.4399998523295","","","recognition","survey-text","443","1801880","0.0-6.0-3.62","3424925","co38881","norming","","","{""guess"":""Bergbeklimmer""}","","../img/tt/1161tt.jpg","",""
"null","../img/gs/1161gs.jpg","null","reveal","image-keyboard-response","444","1803893","0.0-6.0-4.62","3424925","co38881","norming","","","","","","",""
"null","../img/tt/1161tt.jpg","null","mooney2","image-keyboard-response","445","1805910","0.0-6.0-5.62","3424925","co38881","norming","","","","","","",""
"15408.670000033453","","","post_reveal_questions","survey-likert","446","1821321","0.0-6.0-6.62","3424925","co38881","norming","","","{""aha"":0}","[0]","../img/tt/1161tt.jpg","",""
"null","<div style=""font-size:60px;""> </div>","null","fixation","html-keyboard-response","447","1821535","0.0-6.0-0.63","3424925","co38881","norming","","","","","","",""
"null","../img/tt/358tt.jpg","null","mooney1","image-keyboard-response","448","1824540","0.0-6.0-1.63","3424925","co38881","norming","","","","","","",""
"4608.5800000000745","","","post_mooney1_questions","survey-likert","449","1829151","0.0-6.0-2.63","3424925","co38881","norming","","","{""curiosity"":5,""confidence"":2}","[0,1]","../img/tt/358tt.jpg","",""
"1433.7649999652058","","","recognition","survey-text","450","1830588","0.0-6.0-3.63","3424925","co38881","norming","","","{""guess"":""Hond""}","","../img/tt/358tt.jpg","",""
"null","../img/gs/358gs.jpg","null","reveal","image-keyboard-response","451","1832591","0.0-6.0-4.63","3424925","co38881","norming","","","","","","",""
"null","../img/tt/358tt.jpg","null","mooney2","image-keyboard-response","452","1834595","0.0-6.0-5.63","3424925","co38881","norming","","","","","","",""
"11313.04999999702","","","post_reveal_questions","survey-likert","453","1845910","0.0-6.0-6.63","3424925","co38881","norming","","","{""aha"":5}","[0]","../img/tt/358tt.jpg","",""
"null","<div style=""font-size:60px;""> </div>","null","fixation","html-keyboard-response","454","1846119","0.0-6.0-0.64","3424925","co38881","norming","","","","","","",""
"null","../img/tt/412tt.jpg","null","mooney1","image-keyboard-response","455","1849124","0.0-6.0-1.64","3424925","co38881","norming","","","","","","",""
"3321.4749998878688","","","post_mooney1_questions","survey-likert","456","1852448","0.0-6.0-2.64","3424925","co38881","norming","","","{""curiosity"":5,""confidence"":2}","[0,1]","../img/tt/412tt.jpg","",""
"2191.5299999527633","","","recognition","survey-text","457","1854643","0.0-6.0-3.64","3424925","co38881","norming","","","{""guess"":""Parfum""}","","../img/tt/412tt.jpg","",""
"null","../img/gs/412gs.jpg","null","reveal","image-keyboard-response","458","1856650","0.0-6.0-4.64","3424925","co38881","norming","","","","","","",""
"null","../img/tt/412tt.jpg","null","mooney2","image-keyboard-response","459","1858656","0.0-6.0-5.64","3424925","co38881","norming","","","","","","",""
"44302.78499983251","","","post_reveal_questions","survey-likert","460","1902961","0.0-6.0-6.64","3424925","co38881","norming","","","{""aha"":4}","[0]","../img/tt/412tt.jpg","",""
"null","<div style=""font-size:60px;""> </div>","null","fixation","html-keyboard-response","461","1903174","0.0-6.0-0.65","3424925","co38881","norming","","","","","","",""
"null","../img/tt/318tt.jpg","null","mooney1","image-keyboard-response","462","1906182","0.0-6.0-1.65","3424925","co38881","norming","","","","","","",""
"4727.870000060648","","","post_mooney1_questions","survey-likert","463","1910912","0.0-6.0-2.65","3424925","co38881","norming","","","{""curiosity"":5,""confidence"":1}","[0,1]","../img/tt/318tt.jpg","",""
"1994.9849999975413","","","recognition","survey-text","464","1912911","0.0-6.0-3.65","3424925","co38881","norming","","","{""guess"":""Auto""}","","../img/tt/318tt.jpg","",""
"null","../img/gs/318gs.jpg","null","reveal","image-keyboard-response","465","1914927","0.0-6.0-4.65","3424925","co38881","norming","","","","","","",""
"null","../img/tt/318tt.jpg","null","mooney2","image-keyboard-response","466","1916929","0.0-6.0-5.65","3424925","co38881","norming","","","","","","",""
"3373.1149998493493","","","post_reveal_questions","survey-likert","467","1920305","0.0-6.0-6.65","3424925","co38881","norming","","","{""aha"":0}","[0]","../img/tt/318tt.jpg","",""
"null","<div style=""font-size:60px;""> </div>","null","fixation","html-keyboard-response","468","1920521","0.0-6.0-0.66","3424925","co38881","norming","","","","","","",""
"null","../img/tt/046tt.jpg","null","mooney1","image-keyboard-response","469","1923529","0.0-6.0-1.66","3424925","co38881","norming","","","","","","",""
"5921.585000120103","","","post_mooney1_questions","survey-likert","470","1929453","0.0-6.0-2.66","3424925","co38881","norming","","","{""curiosity"":3,""confidence"":4}","[0,1]","../img/tt/046tt.jpg","",""
"1347.8200000245124","","","recognition","survey-text","471","1930805","0.0-6.0-3.66","3424925","co38881","norming","","","{""guess"":""Hond""}","","../img/tt/046tt.jpg","",""
"null","../img/gs/046gs.jpg","null","reveal","image-keyboard-response","472","1932822","0.0-6.0-4.66","3424925","co38881","norming","","","","","","",""
"null","../img/tt/046tt.jpg","null","mooney2","image-keyboard-response","473","1934824","0.0-6.0-5.66","3424925","co38881","norming","","","","","","",""
"2611.9600001256913","","","post_reveal_questions","survey-likert","474","1937439","0.0-6.0-6.66","3424925","co38881","norming","","","{""aha"":0}","[0]","../img/tt/046tt.jpg","",""
"null","<div style=""font-size:60px;""> </div>","null","fixation","html-keyboard-response","475","1937650","0.0-6.0-0.67","3424925","co38881","norming","","","","","","",""
"null","../img/tt/008tt.jpg","null","mooney1","image-keyboard-response","476","1940664","0.0-6.0-1.67","3424925","co38881","norming","","","","","","",""
"5453.690000111237","","","post_mooney1_questions","survey-likert","477","1946120","0.0-6.0-2.67","3424925","co38881","norming","","","{""curiosity"":5,""confidence"":2}","[0,1]","../img/tt/008tt.jpg","",""
"1661.0650001093745","","","recognition","survey-text","478","1947785","0.0-6.0-3.67","3424925","co38881","norming","","","{""guess"":""Geweer""}","","../img/tt/008tt.jpg","",""
"null","../img/gs/008gs.jpg","null","reveal","image-keyboard-response","479","1949795","0.0-6.0-4.67","3424925","co38881","norming","","","","","","",""
"null","../img/tt/008tt.jpg","null","mooney2","image-keyboard-response","480","1951804","0.0-6.0-5.67","3424925","co38881","norming","","","","","","",""
"2982.9049999825656","","","post_reveal_questions","survey-likert","481","1954790","0.0-6.0-6.67","3424925","co38881","norming","","","{""aha"":0}","[0]","../img/tt/008tt.jpg","",""
"null","<div style=""font-size:60px;""> </div>","null","fixation","html-keyboard-response","482","1955003","0.0-6.0-0.68","3424925","co38881","norming","","","","","","",""
"null","../img/tt/1070tt.jpg","null","mooney1","image-keyboard-response","483","1958014","0.0-6.0-1.68","3424925","co38881","norming","","","","","","",""
"4665.3500001411885","","","post_mooney1_questions","survey-likert","484","1962682","0.0-6.0-2.68","3424925","co38881","norming","","","{""curiosity"":5,""confidence"":2}","[0,1]","../img/tt/1070tt.jpg","",""
"2376.8099998123944","","","recognition","survey-text","485","1965063","0.0-6.0-3.68","3424925","co38881","norming","","","{""guess"":""Eten""}","","../img/tt/1070tt.jpg","",""
"null","../img/gs/1070gs.jpg","null","reveal","image-keyboard-response","486","1967072","0.0-6.0-4.68","3424925","co38881","norming","","","","","","",""
"null","../img/tt/1070tt.jpg","null","mooney2","image-keyboard-response","487","1969075","0.0-6.0-5.68","3424925","co38881","norming","","","","","","",""
"2709.8149999510497","","","post_reveal_questions","survey-likert","488","1971786","0.0-6.0-6.68","3424925","co38881","norming","","","{""aha"":1}","[0]","../img/tt/1070tt.jpg","",""
"null","<div style=""font-size:60px;""> </div>","null","fixation","html-keyboard-response","489","1971996","0.0-6.0-0.69","3424925","co38881","norming","","","","","","",""
"null","../img/tt/1116tt.jpg","null","mooney1","image-keyboard-response","490","1975008","0.0-6.0-1.69","3424925","co38881","norming","","","","","","",""
"4804.684999864548","","","post_mooney1_questions","survey-likert","491","1979815","0.0-6.0-2.69","3424925","co38881","norming","","","{""curiosity"":5,""confidence"":3}","[0,1]","../img/tt/1116tt.jpg","",""
"1969.9699999764562","","","recognition","survey-text","492","1981789","0.0-6.0-3.69","3424925","co38881","norming","","","{""guess"":""Kajak""}","","../img/tt/1116tt.jpg","",""
"null","../img/gs/1116gs.jpg","null","reveal","image-keyboard-response","493","1983801","0.0-6.0-4.69","3424925","co38881","norming","","","","","","",""
"null","../img/tt/1116tt.jpg","null","mooney2","image-keyboard-response","494","1985806","0.0-6.0-5.69","3424925","co38881","norming","","","","","","",""
"44737.4449998606","","","post_reveal_questions","survey-likert","495","2030545","0.0-6.0-6.69","3424925","co38881","norming","","","{""aha"":5}","[0]","../img/tt/1116tt.jpg","",""
"null","<div style=""font-size:60px;""> </div>","null","fixation","html-keyboard-response","496","2030756","0.0-6.0-0.70","3424925","co38881","norming","","","","","","",""
"null","../img/tt/052tt.jpg","null","mooney1","image-keyboard-response","497","2033772","0.0-6.0-1.70","3424925","co38881","norming","","","","","","",""
"5333.1949999555945","","","post_mooney1_questions","survey-likert","498","2039108","0.0-6.0-2.70","3424925","co38881","norming","","","{""curiosity"":6,""confidence"":1}","[0,1]","../img/tt/052tt.jpg","",""
"2939.1650001052767","","","recognition","survey-text","499","2042050","0.0-6.0-3.70","3424925","co38881","norming","","","{""guess"":""Boterham""}","","../img/tt/052tt.jpg","",""
"null","../img/gs/052gs.jpg","null","reveal","image-keyboard-response","500","2044065","0.0-6.0-4.70","3424925","co38881","norming","","","","","","",""
"null","../img/tt/052tt.jpg","null","mooney2","image-keyboard-response","501","2046075","0.0-6.0-5.70","3424925","co38881","norming","","","","","","",""
"2587.0250000152737","","","post_reveal_questions","survey-likert","502","2048664","0.0-6.0-6.70","3424925","co38881","norming","","","{""aha"":6}","[0]","../img/tt/052tt.jpg","",""
"null","<div style=""font-size:60px;""> </div>","null","fixation","html-keyboard-response","503","2048875","0.0-6.0-0.71","3424925","co38881","norming","","","","","","",""
"null","../img/tt/1181tt.jpg","null","mooney1","image-keyboard-response","504","2051889","0.0-6.0-1.71","3424925","co38881","norming","","","","","","",""
"4524.144999915734","","","post_mooney1_questions","survey-likert","505","2056416","0.0-6.0-2.71","3424925","co38881","norming","","","{""curiosity"":5,""confidence"":1}","[0,1]","../img/tt/1181tt.jpg","",""
"2669.329999946058","","","recognition","survey-text","506","2059089","0.0-6.0-3.71","3424925","co38881","norming","","","{""guess"":""Honkbal""}","","../img/tt/1181tt.jpg","",""
"null","../img/gs/1181gs.jpg","null","reveal","image-keyboard-response","507","2061100","0.0-6.0-4.71","3424925","co38881","norming","","","","","","",""
"null","../img/tt/1181tt.jpg","null","mooney2","image-keyboard-response","508","2063117","0.0-6.0-5.71","3424925","co38881","norming","","","","","","",""
"2681.0200000181794","","","post_reveal_questions","survey-likert","509","2065800","0.0-6.0-6.71","3424925","co38881","norming","","","{""aha"":6}","[0]","../img/tt/1181tt.jpg","",""
"null","<div style=""font-size:60px;""> </div>","null","fixation","html-keyboard-response","510","2066011","0.0-6.0-0.72","3424925","co38881","norming","","","","","","",""
"null","../img/tt/549tt.jpg","null","mooney1","image-keyboard-response","511","2069034","0.0-6.0-1.72","3424925","co38881","norming","","","","","","",""
"3693.19500005804","","","post_mooney1_questions","survey-likert","512","2072731","0.0-6.0-2.72","3424925","co38881","norming","","","{""curiosity"":6,""confidence"":0}","[0,1]","../img/tt/549tt.jpg","",""
"1266.184999840334","","","recognition","survey-text","513","2074000","0.0-6.0-3.72","3424925","co38881","norming","","","{""guess"":""""}","","../img/tt/549tt.jpg","",""
"null","../img/gs/549gs.jpg","null","reveal","image-keyboard-response","514","2076013","0.0-6.0-4.72","3424925","co38881","norming","","","","","","",""
"null","../img/tt/549tt.jpg","null","mooney2","image-keyboard-response","515","2078028","0.0-6.0-5.72","3424925","co38881","norming","","","","","","",""
"3148.9050001837313","","","post_reveal_questions","survey-likert","516","2081179","0.0-6.0-6.72","3424925","co38881","norming","","","{""aha"":6}","[0]","../img/tt/549tt.jpg","",""
"null","<div style=""font-size:60px;""> </div>","null","fixation","html-keyboard-response","517","2081386","0.0-6.0-0.73","3424925","co38881","norming","","","","","","",""
"null","../img/tt/060tt.jpg","null","mooney1","image-keyboard-response","518","2084399","0.0-6.0-1.73","3424925","co38881","norming","","","","","","",""
"4007.274999981746","","","post_mooney1_questions","survey-likert","519","2088409","0.0-6.0-2.73","3424925","co38881","norming","","","{""curiosity"":6,""confidence"":1}","[0,1]","../img/tt/060tt.jpg","",""
"1813.4500000160187","","","recognition","survey-text","520","2090226","0.0-6.0-3.73","3424925","co38881","norming","","","{""guess"":""Taco""}","","../img/tt/060tt.jpg","",""
"null","../img/gs/060gs.jpg","null","reveal","image-keyboard-response","521","2092245","0.0-6.0-4.73","3424925","co38881","norming","","","","","","",""
"null","../img/tt/060tt.jpg","null","mooney2","image-keyboard-response","522","2094247","0.0-6.0-5.73","3424925","co38881","norming","","","","","","",""
"2466.5550000499934","","","post_reveal_questions","survey-likert","523","2096716","0.0-6.0-6.73","3424925","co38881","norming","","","{""aha"":4}","[0]","../img/tt/060tt.jpg","",""
"null","<div style=""font-size:60px;""> </div>","null","fixation","html-keyboard-response","524","2096928","0.0-6.0-0.74","3424925","co38881","norming","","","","","","",""
"null","../img/tt/1250tt.jpg","null","mooney1","image-keyboard-response","525","2099932","0.0-6.0-1.74","3424925","co38881","norming","","","","","","",""
"8872.590000042692","","","post_mooney1_questions","survey-likert","526","2108807","0.0-6.0-2.74","3424925","co38881","norming","","","{""curiosity"":6,""confidence"":1}","[0,1]","../img/tt/1250tt.jpg","",""
"2225.1699999906123","","","recognition","survey-text","527","2111036","0.0-6.0-3.74","3424925","co38881","norming","","","{""guess"":""Ganzen""}","","../img/tt/1250tt.jpg","",""
"null","../img/gs/1250gs.jpg","null","reveal","image-keyboard-response","528","2113041","0.0-6.0-4.74","3424925","co38881","norming","","","","","","",""
"null","../img/tt/1250tt.jpg","null","mooney2","image-keyboard-response","529","2115044","0.0-6.0-5.74","3424925","co38881","norming","","","","","","",""
"2850.709999911487","","","post_reveal_questions","survey-likert","530","2117897","0.0-6.0-6.74","3424925","co38881","norming","","","{""aha"":6}","[0]","../img/tt/1250tt.jpg","",""
"null","<div style=""font-size:60px;""> </div>","null","fixation","html-keyboard-response","531","2118109","0.0-6.0-0.75","3424925","co38881","norming","","","","","","",""
"null","../img/tt/1260tt.jpg","null","mooney1","image-keyboard-response","532","2121127","0.0-6.0-1.75","3424925","co38881","norming","","","","","","",""
"3912.7199999056756","","","post_mooney1_questions","survey-likert","533","2125042","0.0-6.0-2.75","3424925","co38881","norming","","","{""curiosity"":6,""confidence"":0}","[0,1]","../img/tt/1260tt.jpg","",""
"4328.074999852106","","","recognition","survey-text","534","2129373","0.0-6.0-3.75","3424925","co38881","norming","","","{""guess"":""Gebergte""}","","../img/tt/1260tt.jpg","",""
"null","../img/gs/1260gs.jpg","null","reveal","image-keyboard-response","535","2131387","0.0-6.0-4.75","3424925","co38881","norming","","","","","","",""
"null","../img/tt/1260tt.jpg","null","mooney2","image-keyboard-response","536","2133395","0.0-6.0-5.75","3424925","co38881","norming","","","","","","",""
"2542.4550001043826","","","post_reveal_questions","survey-likert","537","2135940","0.0-6.0-6.75","3424925","co38881","norming","","","{""aha"":6}","[0]","../img/tt/1260tt.jpg","",""
"null","<div style=""font-size:60px;""> </div>","null","fixation","html-keyboard-response","538","2136150","0.0-6.0-0.76","3424925","co38881","norming","","","","","","",""
"null","../img/tt/1063tt.jpg","null","mooney1","image-keyboard-response","539","2139159","0.0-6.0-1.76","3424925","co38881","norming","","","","","","",""
"3958.850000053644","","","post_mooney1_questions","survey-likert","540","2143121","0.0-6.0-2.76","3424925","co38881","norming","","","{""curiosity"":0,""confidence"":6}","[0,1]","../img/tt/1063tt.jpg","",""
"3358.7350000161678","","","recognition","survey-text","541","2146483","0.0-6.0-3.76","3424925","co38881","norming","","","{""guess"":""Paarden""}","","../img/tt/1063tt.jpg","",""
"null","../img/gs/1063gs.jpg","null","reveal","image-keyboard-response","542","2148501","0.0-6.0-4.76","3424925","co38881","norming","","","","","","",""
"null","../img/tt/1063tt.jpg","null","mooney2","image-keyboard-response","543","2150509","0.0-6.0-5.76","3424925","co38881","norming","","","","","","",""
"2583.9100000448525","","","post_reveal_questions","survey-likert","544","2153095","0.0-6.0-6.76","3424925","co38881","norming","","","{""aha"":0}","[0]","../img/tt/1063tt.jpg","",""
"null","<div style=""font-size:60px;""> </div>","null","fixation","html-keyboard-response","545","2153305","0.0-6.0-0.77","3424925","co38881","norming","","","","","","",""
"null","../img/tt/357tt.jpg","null","mooney1","image-keyboard-response","546","2156321","0.0-6.0-1.77","3424925","co38881","norming","","","","","","",""
"4616.704999934882","","","post_mooney1_questions","survey-likert","547","2160940","0.0-6.0-2.77","3424925","co38881","norming","","","{""curiosity"":3,""confidence"":4}","[0,1]","../img/tt/357tt.jpg","",""
"1867.2450000885874","","","recognition","survey-text","548","2162811","0.0-6.0-3.77","3424925","co38881","norming","","","{""guess"":""Egel""}","","../img/tt/357tt.jpg","",""
"null","../img/gs/357gs.jpg","null","reveal","image-keyboard-response","549","2164816","0.0-6.0-4.77","3424925","co38881","norming","","","","","","",""
"null","../img/tt/357tt.jpg","null","mooney2","image-keyboard-response","550","2166828","0.0-6.0-5.77","3424925","co38881","norming","","","","","","",""
