"rt","stimulus","key_press","test_part","trial_type","trial_index","time_elapsed","internal_node_id","totalTime","subject","experiment_name","button_pressed","success","responses","question_order","currentStim","old","correct"
"5715","Welcome to the experiment. This is an online experiment so please don't close the tab/window until we say goodbye.  Press any key to begin.","32","instructions","html-keyboard-response","0","5725","0.0-0.0","11110270","co38500","norming","","","","","","",""
"42463","<div style='word-wrap: break-word; width: 900px'><h3>Please consider this information carefully before deciding whether to participate in this research</h3><ul style='text-align: left; font-size: .8em;'><li><b>Purpose of the research</b>: To examine how people process images.</li><li><b>What you will do in this research</b>:  Stimuli (images) will be presented on the computer and you will be asked different questions about them.</li><li><b>Time required</b>: Participation will take between 45 and 60 minutes to complete.</li><li><b>Risks</b>:  There are no anticipated risks associated with participating in this study. The effects of participating should be comparable to those you would experience from viewing a computer monitor for 30 minutes and using a mouse or keyboard.</li><li><b>Benefits</b>:  This study provides no benefits to you individually except for the credit. The study provides important information about the nature of perception and learning.</li><li><b>Confidentiality</b>:  Your participation in this study will remain confidential. No personally identifiable information will be associated with your data. Your de-identified data may be shared with other researchers and used in future projects.</li><li><b>Participation and withdrawal</b>:  Your participation in this study is completely voluntary and you may refuse to participate or you may choose to withdraw at any time without penalty.</li><li><b>How to contact the researchers</b>: If you have questions or concerns about your participation or payment, or want to request a summary of research findings, please contact Sander Van de Cruys (KU Leuven), at sander.vandecruys@kuleuven.be.</li></ul><p>The nature and purpose of this research have been sufficiently explained and I agree to participate in this study.  I understand that I am free to withdraw at any time without incurring any penalty.</p><p>Please consent by clicking the button below to continue. Otherwise, please exit the study at this time.</p></div>","","instructions","html-button-response","1","48197","0.0-1.0","11110270","co38500","norming","0","","","","","",""
"","","","instructions","fullscreen","2","55910","0.0-2.0","11110270","co38500","norming","","true","","","","",""
"36390","","","sona","survey-html-form","3","92306","0.0-3.0","11110270","co38500","norming","","","[{""name"":""sonaid"",""value"":""38500""},{""name"":""debrief"",""value"":""yes""},{""name"":""datajoin"",""value"":""yes""}]","","","",""
"125142","<div style='word-wrap: break-word; width: 900px'><h3>Instructions</h3><p>This experiment will have 3 parts. In the first part you will see a series of distorted images like the one below on the left. As you can see in the righthand image, the distorted images are derived from actual photographs. In what follows, you will <strong>briefly</strong> be presented with <strong>only</strong> the distorted image.</p> <div style='float: left; margin-right: 20px;'><img src='../img/018tt.jpg' height='250' width='250'></img></div><div style='float: right; margin-left: 20px;'><img src='../img/018gs.jpg' height='250' width='250'></img></div><p>Subsequently you will be asked a few questions about the image: One question on how <strong>curious</strong> you are about the solution and one on how <strong>confident</strong> you are that you know the solution.</p>Next, we ask you to make a guess on what is in the image. Note that it is OK to name just the <strong>basic level category</strong>. For example when you see a parrot in the image, 'parrot' will obviously be a correct answer but also correct is 'bird'. However, 'animal' will <strong>not</strong> be counted as a correct response. For the example above, 'rose' would be correct or 'flower', but not 'plant'. When soccer players are depicted, 'soccer', 'football', 'soccer players' will be correct, but not 'humans', 'outdoors', or 'sports'. You do not need to describe the image in full, just name the main object in it <strong>in one or two words</strong>. All images depict objects from one of the following broad level categories: animals, inanimate objects, plants, sports, vehicles, and food. Recognizing means knowing <strong>more</strong> than these broad labels for a given image. But we always encourage you to <strong>make a guess</strong> if you can. Note that you are allowed to use <strong>Dutch and English</strong> in your answers, whatever comes easiest for you.</p><p>Press any key to continue.</p></div>","32","instructions","html-keyboard-response","4","217457","0.0-4.0","11110270","co38500","norming","","","","","","",""
"22780","<div style='word-wrap: break-word; width: 900px'><h3>Instructions</h3> <p>Next, the solution image will be revealed to you and you'll be asked to indicate how strong your <strong>aha-experience</strong> was after seeing the solution. This describes the positive feeling of the 'click' you sometimes experience, when the pieces of the 'puzzle' fall together and you suddenly have 'insight' in the image.</p><img src='aha.jpg' height='188' width='250'></img><p>Note that there are no right or wrong answers. We are interested in what <strong>you</strong> see in the image and how <strong>you</strong> feel about it.</p><p>Press any key to start the experiment.</p></div>","32","instructions","html-keyboard-response","5","240243","0.0-5.0","11110270","co38500","norming","","","","","","",""
"null","<div style=""font-size:60px;""> </div>","null","fixation","html-keyboard-response","6","240449","0.0-6.0-0.0","11110270","co38500","norming","","","","","","",""
"null","../img/tt/1269tt.jpg","null","mooney1","image-keyboard-response","7","243464","0.0-6.0-1.0","11110270","co38500","norming","","","","","","",""
"10609","","","post_mooney1_questions","survey-likert","8","254080","0.0-6.0-2.0","11110270","co38500","norming","","","{""curiosity"":3,""confidence"":2}","[0,1]","../img/tt/1269tt.jpg","",""
"8937","","","recognition","survey-text","9","263026","0.0-6.0-3.0","11110270","co38500","norming","","","{""guess"":""dog""}","","../img/tt/1269tt.jpg","",""
"null","../img/gs/1269gs.jpg","null","reveal","image-keyboard-response","10","265036","0.0-6.0-4.0","11110270","co38500","norming","","","","","","",""
"null","../img/tt/1269tt.jpg","null","mooney2","image-keyboard-response","11","267052","0.0-6.0-5.0","11110270","co38500","norming","","","","","","",""
"5029","","","post_reveal_questions","survey-likert","12","272085","0.0-6.0-6.0","11110270","co38500","norming","","","{""aha"":2}","[0]","../img/tt/1269tt.jpg","",""
"null","<div style=""font-size:60px;""> </div>","null","fixation","html-keyboard-response","13","272303","0.0-6.0-0.1","11110270","co38500","norming","","","","","","",""
"null","../img/tt/1012tt.jpg","null","mooney1","image-keyboard-response","14","275306","0.0-6.0-1.1","11110270","co38500","norming","","","","","","",""
"8683","","","post_mooney1_questions","survey-likert","15","283993","0.0-6.0-2.1","11110270","co38500","norming","","","{""curiosity"":5,""confidence"":0}","[0,1]","../img/tt/1012tt.jpg","",""
"3392","","","recognition","survey-text","16","287392","0.0-6.0-3.1","11110270","co38500","norming","","","{""guess"":""""}","","../img/tt/1012tt.jpg","",""
"null","../img/gs/1012gs.jpg","null","reveal","image-keyboard-response","17","289402","0.0-6.0-4.1","11110270","co38500","norming","","","","","","",""
"null","../img/tt/1012tt.jpg","null","mooney2","image-keyboard-response","18","291417","0.0-6.0-5.1","11110270","co38500","norming","","","","","","",""
"4296","","","post_reveal_questions","survey-likert","19","295717","0.0-6.0-6.1","11110270","co38500","norming","","","{""aha"":6}","[0]","../img/tt/1012tt.jpg","",""
"null","<div style=""font-size:60px;""> </div>","null","fixation","html-keyboard-response","20","295931","0.0-6.0-0.2","11110270","co38500","norming","","","","","","",""
"null","../img/tt/1237tt.jpg","null","mooney1","image-keyboard-response","21","298949","0.0-6.0-1.2","11110270","co38500","norming","","","","","","",""
"6852","","","post_mooney1_questions","survey-likert","22","305805","0.0-6.0-2.2","11110270","co38500","norming","","","{""curiosity"":0,""confidence"":5}","[0,1]","../img/tt/1237tt.jpg","",""
"7011","","","recognition","survey-text","23","312822","0.0-6.0-3.2","11110270","co38500","norming","","","{""guess"":""duck""}","","../img/tt/1237tt.jpg","",""
"null","../img/gs/1237gs.jpg","null","reveal","image-keyboard-response","24","314839","0.0-6.0-4.2","11110270","co38500","norming","","","","","","",""
"null","../img/tt/1237tt.jpg","null","mooney2","image-keyboard-response","25","316850","0.0-6.0-5.2","11110270","co38500","norming","","","","","","",""
"4137","","","post_reveal_questions","survey-likert","26","320988","0.0-6.0-6.2","11110270","co38500","norming","","","{""aha"":0}","[0]","../img/tt/1237tt.jpg","",""
"null","<div style=""font-size:60px;""> </div>","null","fixation","html-keyboard-response","27","321199","0.0-6.0-0.3","11110270","co38500","norming","","","","","","",""
"null","../img/tt/010tt.jpg","null","mooney1","image-keyboard-response","28","324214","0.0-6.0-1.3","11110270","co38500","norming","","","","","","",""
"6674","","","post_mooney1_questions","survey-likert","29","330891","0.0-6.0-2.3","11110270","co38500","norming","","","{""curiosity"":5,""confidence"":0}","[0,1]","../img/tt/010tt.jpg","",""
"1867","","","recognition","survey-text","30","332765","0.0-6.0-3.3","11110270","co38500","norming","","","{""guess"":""""}","","../img/tt/010tt.jpg","",""
"null","../img/gs/010gs.jpg","null","reveal","image-keyboard-response","31","334776","0.0-6.0-4.3","11110270","co38500","norming","","","","","","",""
"null","../img/tt/010tt.jpg","null","mooney2","image-keyboard-response","32","336778","0.0-6.0-5.3","11110270","co38500","norming","","","","","","",""
"3516","","","post_reveal_questions","survey-likert","33","340298","0.0-6.0-6.3","11110270","co38500","norming","","","{""aha"":6}","[0]","../img/tt/010tt.jpg","",""
"null","<div style=""font-size:60px;""> </div>","null","fixation","html-keyboard-response","34","340510","0.0-6.0-0.4","11110270","co38500","norming","","","","","","",""
"null","../img/tt/1242tt.jpg","null","mooney1","image-keyboard-response","35","343525","0.0-6.0-1.4","11110270","co38500","norming","","","","","","",""
"10203","","","post_mooney1_questions","survey-likert","36","353732","0.0-6.0-2.4","11110270","co38500","norming","","","{""curiosity"":3,""confidence"":1}","[0,1]","../img/tt/1242tt.jpg","",""
"10679","","","recognition","survey-text","37","364417","0.0-6.0-3.4","11110270","co38500","norming","","","{""guess"":""""}","","../img/tt/1242tt.jpg","",""
"null","../img/gs/1242gs.jpg","null","reveal","image-keyboard-response","38","366421","0.0-6.0-4.4","11110270","co38500","norming","","","","","","",""
"null","../img/tt/1242tt.jpg","null","mooney2","image-keyboard-response","39","368432","0.0-6.0-5.4","11110270","co38500","norming","","","","","","",""
"3965","","","post_reveal_questions","survey-likert","40","372400","0.0-6.0-6.4","11110270","co38500","norming","","","{""aha"":4}","[0]","../img/tt/1242tt.jpg","",""
"null","<div style=""font-size:60px;""> </div>","null","fixation","html-keyboard-response","41","372604","0.0-6.0-0.5","11110270","co38500","norming","","","","","","",""
"null","../img/tt/549tt.jpg","null","mooney1","image-keyboard-response","42","375619","0.0-6.0-1.5","11110270","co38500","norming","","","","","","",""
"7723","","","post_mooney1_questions","survey-likert","43","383346","0.0-6.0-2.5","11110270","co38500","norming","","","{""curiosity"":3,""confidence"":2}","[0,1]","../img/tt/549tt.jpg","",""
"4658","","","recognition","survey-text","44","388010","0.0-6.0-3.5","11110270","co38500","norming","","","{""guess"":""krokodil""}","","../img/tt/549tt.jpg","",""
"null","../img/gs/549gs.jpg","null","reveal","image-keyboard-response","45","390015","0.0-6.0-4.5","11110270","co38500","norming","","","","","","",""
"null","../img/tt/549tt.jpg","null","mooney2","image-keyboard-response","46","392016","0.0-6.0-5.5","11110270","co38500","norming","","","","","","",""
"3641","","","post_reveal_questions","survey-likert","47","395660","0.0-6.0-6.5","11110270","co38500","norming","","","{""aha"":6}","[0]","../img/tt/549tt.jpg","",""
"null","<div style=""font-size:60px;""> </div>","null","fixation","html-keyboard-response","48","395871","0.0-6.0-0.6","11110270","co38500","norming","","","","","","",""
"null","../img/tt/1040tt.jpg","null","mooney1","image-keyboard-response","49","398888","0.0-6.0-1.6","11110270","co38500","norming","","","","","","",""
"8427","","","post_mooney1_questions","survey-likert","50","407318","0.0-6.0-2.6","11110270","co38500","norming","","","{""curiosity"":6,""confidence"":3}","[0,1]","../img/tt/1040tt.jpg","",""
"19063","","","recognition","survey-text","51","426387","0.0-6.0-3.6","11110270","co38500","norming","","","{""guess"":""krokodil""}","","../img/tt/1040tt.jpg","",""
"null","../img/gs/1040gs.jpg","null","reveal","image-keyboard-response","52","428401","0.0-6.0-4.6","11110270","co38500","norming","","","","","","",""
"null","../img/tt/1040tt.jpg","null","mooney2","image-keyboard-response","53","430417","0.0-6.0-5.6","11110270","co38500","norming","","","","","","",""
"5601","","","post_reveal_questions","survey-likert","54","436022","0.0-6.0-6.6","11110270","co38500","norming","","","{""aha"":6}","[0]","../img/tt/1040tt.jpg","",""
"null","<div style=""font-size:60px;""> </div>","null","fixation","html-keyboard-response","55","436239","0.0-6.0-0.7","11110270","co38500","norming","","","","","","",""
"null","../img/tt/1200tt.jpg","null","mooney1","image-keyboard-response","56","439247","0.0-6.0-1.7","11110270","co38500","norming","","","","","","",""
"10038","","","post_mooney1_questions","survey-likert","57","449288","0.0-6.0-2.7","11110270","co38500","norming","","","{""curiosity"":6,""confidence"":0}","[0,1]","../img/tt/1200tt.jpg","",""
"1095","","","recognition","survey-text","58","450389","0.0-6.0-3.7","11110270","co38500","norming","","","{""guess"":""""}","","../img/tt/1200tt.jpg","",""
"null","../img/gs/1200gs.jpg","null","reveal","image-keyboard-response","59","452402","0.0-6.0-4.7","11110270","co38500","norming","","","","","","",""
"null","../img/tt/1200tt.jpg","null","mooney2","image-keyboard-response","60","454416","0.0-6.0-5.7","11110270","co38500","norming","","","","","","",""
"2150","","","post_reveal_questions","survey-likert","61","456569","0.0-6.0-6.7","11110270","co38500","norming","","","{""aha"":6}","[0]","../img/tt/1200tt.jpg","",""
"null","<div style=""font-size:60px;""> </div>","null","fixation","html-keyboard-response","62","456787","0.0-6.0-0.8","11110270","co38500","norming","","","","","","",""
"null","../img/tt/357tt.jpg","null","mooney1","image-keyboard-response","63","459792","0.0-6.0-1.8","11110270","co38500","norming","","","","","","",""
"7915","","","post_mooney1_questions","survey-likert","64","467710","0.0-6.0-2.8","11110270","co38500","norming","","","{""curiosity"":4,""confidence"":0}","[0,1]","../img/tt/357tt.jpg","",""
"16541","","","recognition","survey-text","65","484258","0.0-6.0-3.8","11110270","co38500","norming","","","{""guess"":""rots""}","","../img/tt/357tt.jpg","",""
"null","../img/gs/357gs.jpg","null","reveal","image-keyboard-response","66","486277","0.0-6.0-4.8","11110270","co38500","norming","","","","","","",""
"null","../img/tt/357tt.jpg","null","mooney2","image-keyboard-response","67","488291","0.0-6.0-5.8","11110270","co38500","norming","","","","","","",""
"3413","","","post_reveal_questions","survey-likert","68","491709","0.0-6.0-6.8","11110270","co38500","norming","","","{""aha"":6}","[0]","../img/tt/357tt.jpg","",""
"null","<div style=""font-size:60px;""> </div>","null","fixation","html-keyboard-response","69","491919","0.0-6.0-0.9","11110270","co38500","norming","","","","","","",""
"null","../img/tt/1066tt.jpg","null","mooney1","image-keyboard-response","70","494934","0.0-6.0-1.9","11110270","co38500","norming","","","","","","",""
"9803","","","post_mooney1_questions","survey-likert","71","504742","0.0-6.0-2.9","11110270","co38500","norming","","","{""curiosity"":4,""confidence"":2}","[0,1]","../img/tt/1066tt.jpg","",""
"2560","","","recognition","survey-text","72","507309","0.0-6.0-3.9","11110270","co38500","norming","","","{""guess"":""bus""}","","../img/tt/1066tt.jpg","",""
"null","../img/gs/1066gs.jpg","null","reveal","image-keyboard-response","73","509326","0.0-6.0-4.9","11110270","co38500","norming","","","","","","",""
"null","../img/tt/1066tt.jpg","null","mooney2","image-keyboard-response","74","511336","0.0-6.0-5.9","11110270","co38500","norming","","","","","","",""
"2852","","","post_reveal_questions","survey-likert","75","514193","0.0-6.0-6.9","11110270","co38500","norming","","","{""aha"":1}","[0]","../img/tt/1066tt.jpg","",""
"null","<div style=""font-size:60px;""> </div>","null","fixation","html-keyboard-response","76","514399","0.0-6.0-0.10","11110270","co38500","norming","","","","","","",""
"null","../img/tt/481tt.jpg","null","mooney1","image-keyboard-response","77","517403","0.0-6.0-1.10","11110270","co38500","norming","","","","","","",""
"8692","","","post_mooney1_questions","survey-likert","78","526099","0.0-6.0-2.10","11110270","co38500","norming","","","{""curiosity"":4,""confidence"":1}","[0,1]","../img/tt/481tt.jpg","",""
"12293","","","recognition","survey-text","79","538400","0.0-6.0-3.10","11110270","co38500","norming","","","{""guess"":""tijger""}","","../img/tt/481tt.jpg","",""
"null","../img/gs/481gs.jpg","null","reveal","image-keyboard-response","80","540417","0.0-6.0-4.10","11110270","co38500","norming","","","","","","",""
"null","../img/tt/481tt.jpg","null","mooney2","image-keyboard-response","81","542434","0.0-6.0-5.10","11110270","co38500","norming","","","","","","",""
"4801","","","post_reveal_questions","survey-likert","82","547241","0.0-6.0-6.10","11110270","co38500","norming","","","{""aha"":2}","[0]","../img/tt/481tt.jpg","",""
"null","<div style=""font-size:60px;""> </div>","null","fixation","html-keyboard-response","83","547448","0.0-6.0-0.11","11110270","co38500","norming","","","","","","",""
"null","../img/tt/468tt.jpg","null","mooney1","image-keyboard-response","84","550470","0.0-6.0-1.11","11110270","co38500","norming","","","","","","",""
"9454","","","post_mooney1_questions","survey-likert","85","559929","0.0-6.0-2.11","11110270","co38500","norming","","","{""curiosity"":3,""confidence"":1}","[0,1]","../img/tt/468tt.jpg","",""
"7349","","","recognition","survey-text","86","567286","0.0-6.0-3.11","11110270","co38500","norming","","","{""guess"":""cowboy""}","","../img/tt/468tt.jpg","",""
"null","../img/gs/468gs.jpg","null","reveal","image-keyboard-response","87","569294","0.0-6.0-4.11","11110270","co38500","norming","","","","","","",""
"null","../img/tt/468tt.jpg","null","mooney2","image-keyboard-response","88","571309","0.0-6.0-5.11","11110270","co38500","norming","","","","","","",""
"7553","","","post_reveal_questions","survey-likert","89","578867","0.0-6.0-6.11","11110270","co38500","norming","","","{""aha"":6}","[0]","../img/tt/468tt.jpg","",""
"null","<div style=""font-size:60px;""> </div>","null","fixation","html-keyboard-response","90","579073","0.0-6.0-0.12","11110270","co38500","norming","","","","","","",""
"null","../img/tt/036tt.jpg","null","mooney1","image-keyboard-response","91","582078","0.0-6.0-1.12","11110270","co38500","norming","","","","","","",""
"12462","","","post_mooney1_questions","survey-likert","92","594545","0.0-6.0-2.12","11110270","co38500","norming","","","{""curiosity"":5,""confidence"":2}","[0,1]","../img/tt/036tt.jpg","",""
"10241","","","recognition","survey-text","93","604792","0.0-6.0-3.12","11110270","co38500","norming","","","{""guess"":""spinneweb""}","","../img/tt/036tt.jpg","",""
"null","../img/gs/036gs.jpg","null","reveal","image-keyboard-response","94","606803","0.0-6.0-4.12","11110270","co38500","norming","","","","","","",""
"null","../img/tt/036tt.jpg","null","mooney2","image-keyboard-response","95","608809","0.0-6.0-5.12","11110270","co38500","norming","","","","","","",""
"5040","","","post_reveal_questions","survey-likert","96","613854","0.0-6.0-6.12","11110270","co38500","norming","","","{""aha"":4}","[0]","../img/tt/036tt.jpg","",""
"null","<div style=""font-size:60px;""> </div>","null","fixation","html-keyboard-response","97","614065","0.0-6.0-0.13","11110270","co38500","norming","","","","","","",""
"null","../img/tt/1143tt.jpg","null","mooney1","image-keyboard-response","98","617070","0.0-6.0-1.13","11110270","co38500","norming","","","","","","",""
"10012","","","post_mooney1_questions","survey-likert","99","627087","0.0-6.0-2.13","11110270","co38500","norming","","","{""curiosity"":4,""confidence"":1}","[0,1]","../img/tt/1143tt.jpg","",""
"5235","","","recognition","survey-text","100","632330","0.0-6.0-3.13","11110270","co38500","norming","","","{""guess"":""fitness""}","","../img/tt/1143tt.jpg","",""
"null","../img/gs/1143gs.jpg","null","reveal","image-keyboard-response","101","634334","0.0-6.0-4.13","11110270","co38500","norming","","","","","","",""
"null","../img/tt/1143tt.jpg","null","mooney2","image-keyboard-response","102","636341","0.0-6.0-5.13","11110270","co38500","norming","","","","","","",""
"3411","","","post_reveal_questions","survey-likert","103","639759","0.0-6.0-6.13","11110270","co38500","norming","","","{""aha"":4}","[0]","../img/tt/1143tt.jpg","",""
"null","<div style=""font-size:60px;""> </div>","null","fixation","html-keyboard-response","104","639980","0.0-6.0-0.14","11110270","co38500","norming","","","","","","",""
"null","../img/tt/1254tt.jpg","null","mooney1","image-keyboard-response","105","642991","0.0-6.0-1.14","11110270","co38500","norming","","","","","","",""
"13659","","","post_mooney1_questions","survey-likert","106","656656","0.0-6.0-2.14","11110270","co38500","norming","","","{""curiosity"":2,""confidence"":4}","[0,1]","../img/tt/1254tt.jpg","",""
"3857","","","recognition","survey-text","107","660521","0.0-6.0-3.14","11110270","co38500","norming","","","{""guess"":""konijn""}","","../img/tt/1254tt.jpg","",""
"null","../img/gs/1254gs.jpg","null","reveal","image-keyboard-response","108","662539","0.0-6.0-4.14","11110270","co38500","norming","","","","","","",""
"null","../img/tt/1254tt.jpg","null","mooney2","image-keyboard-response","109","664557","0.0-6.0-5.14","11110270","co38500","norming","","","","","","",""
"4147","","","post_reveal_questions","survey-likert","110","668707","0.0-6.0-6.14","11110270","co38500","norming","","","{""aha"":1}","[0]","../img/tt/1254tt.jpg","",""
"null","<div style=""font-size:60px;""> </div>","null","fixation","html-keyboard-response","111","668916","0.0-6.0-0.15","11110270","co38500","norming","","","","","","",""
"null","../img/tt/1199tt.jpg","null","mooney1","image-keyboard-response","112","671927","0.0-6.0-1.15","11110270","co38500","norming","","","","","","",""
"22957","","","post_mooney1_questions","survey-likert","113","694890","0.0-6.0-2.15","11110270","co38500","norming","","","{""curiosity"":4,""confidence"":2}","[0,1]","../img/tt/1199tt.jpg","",""
"3934","","","recognition","survey-text","114","698834","0.0-6.0-3.15","11110270","co38500","norming","","","{""guess"":""turnster""}","","../img/tt/1199tt.jpg","",""
"null","../img/gs/1199gs.jpg","null","reveal","image-keyboard-response","115","700854","0.0-6.0-4.15","11110270","co38500","norming","","","","","","",""
"null","../img/tt/1199tt.jpg","null","mooney2","image-keyboard-response","116","702865","0.0-6.0-5.15","11110270","co38500","norming","","","","","","",""
"4931","","","post_reveal_questions","survey-likert","117","707802","0.0-6.0-6.15","11110270","co38500","norming","","","{""aha"":3}","[0]","../img/tt/1199tt.jpg","",""
"null","<div style=""font-size:60px;""> </div>","null","fixation","html-keyboard-response","118","708007","0.0-6.0-0.16","11110270","co38500","norming","","","","","","",""
"null","../img/tt/019tt.jpg","null","mooney1","image-keyboard-response","119","711011","0.0-6.0-1.16","11110270","co38500","norming","","","","","","",""
"11526","","","post_mooney1_questions","survey-likert","120","722540","0.0-6.0-2.16","11110270","co38500","norming","","","{""curiosity"":4,""confidence"":2}","[0,1]","../img/tt/019tt.jpg","",""
"1325","","","recognition","survey-text","121","723871","0.0-6.0-3.16","11110270","co38500","norming","","","{""guess"":""""}","","../img/tt/019tt.jpg","",""
"null","../img/gs/019gs.jpg","null","reveal","image-keyboard-response","122","725886","0.0-6.0-4.16","11110270","co38500","norming","","","","","","",""
"null","../img/tt/019tt.jpg","null","mooney2","image-keyboard-response","123","727902","0.0-6.0-5.16","11110270","co38500","norming","","","","","","",""
"3459","","","post_reveal_questions","survey-likert","124","731366","0.0-6.0-6.16","11110270","co38500","norming","","","{""aha"":5}","[0]","../img/tt/019tt.jpg","",""
"null","<div style=""font-size:60px;""> </div>","null","fixation","html-keyboard-response","125","731583","0.0-6.0-0.17","11110270","co38500","norming","","","","","","",""
"null","../img/tt/1053tt.jpg","null","mooney1","image-keyboard-response","126","734590","0.0-6.0-1.17","11110270","co38500","norming","","","","","","",""
"7842","","","post_mooney1_questions","survey-likert","127","742435","0.0-6.0-2.17","11110270","co38500","norming","","","{""curiosity"":4,""confidence"":2}","[0,1]","../img/tt/1053tt.jpg","",""
"4078","","","recognition","survey-text","128","746518","0.0-6.0-3.17","11110270","co38500","norming","","","{""guess"":""koe""}","","../img/tt/1053tt.jpg","",""
"null","../img/gs/1053gs.jpg","null","reveal","image-keyboard-response","129","748526","0.0-6.0-4.17","11110270","co38500","norming","","","","","","",""
"null","../img/tt/1053tt.jpg","null","mooney2","image-keyboard-response","130","750541","0.0-6.0-5.17","11110270","co38500","norming","","","","","","",""
"3442","","","post_reveal_questions","survey-likert","131","753987","0.0-6.0-6.17","11110270","co38500","norming","","","{""aha"":0}","[0]","../img/tt/1053tt.jpg","",""
"null","<div style=""font-size:60px;""> </div>","null","fixation","html-keyboard-response","132","754189","0.0-6.0-0.18","11110270","co38500","norming","","","","","","",""
"null","../img/tt/049tt.jpg","null","mooney1","image-keyboard-response","133","757195","0.0-6.0-1.18","11110270","co38500","norming","","","","","","",""
"19729","","","post_mooney1_questions","survey-likert","134","776930","0.0-6.0-2.18","11110270","co38500","norming","","","{""curiosity"":4,""confidence"":1}","[0,1]","../img/tt/049tt.jpg","",""
"3056","","","recognition","survey-text","135","779991","0.0-6.0-3.18","11110270","co38500","norming","","","{""guess"":""frog""}","","../img/tt/049tt.jpg","",""
"null","../img/gs/049gs.jpg","null","reveal","image-keyboard-response","136","782006","0.0-6.0-4.18","11110270","co38500","norming","","","","","","",""
"null","../img/tt/049tt.jpg","null","mooney2","image-keyboard-response","137","784009","0.0-6.0-5.18","11110270","co38500","norming","","","","","","",""
"4258","","","post_reveal_questions","survey-likert","138","788271","0.0-6.0-6.18","11110270","co38500","norming","","","{""aha"":5}","[0]","../img/tt/049tt.jpg","",""
"null","<div style=""font-size:60px;""> </div>","null","fixation","html-keyboard-response","139","788479","0.0-6.0-0.19","11110270","co38500","norming","","","","","","",""
"null","../img/tt/296tt.jpg","null","mooney1","image-keyboard-response","140","791493","0.0-6.0-1.19","11110270","co38500","norming","","","","","","",""
"21616","","","post_mooney1_questions","survey-likert","141","813113","0.0-6.0-2.19","11110270","co38500","norming","","","{""curiosity"":4,""confidence"":1}","[0,1]","../img/tt/296tt.jpg","",""
"11141","","","recognition","survey-text","142","824261","0.0-6.0-3.19","11110270","co38500","norming","","","{""guess"":""ziekenhuisbed ""}","","../img/tt/296tt.jpg","",""
"null","../img/gs/296gs.jpg","null","reveal","image-keyboard-response","143","826275","0.0-6.0-4.19","11110270","co38500","norming","","","","","","",""
"null","../img/tt/296tt.jpg","null","mooney2","image-keyboard-response","144","828279","0.0-6.0-5.19","11110270","co38500","norming","","","","","","",""
"5928","","","post_reveal_questions","survey-likert","145","834211","0.0-6.0-6.19","11110270","co38500","norming","","","{""aha"":2}","[0]","../img/tt/296tt.jpg","",""
"null","<div style=""font-size:60px;""> </div>","null","fixation","html-keyboard-response","146","834416","0.0-6.0-0.20","11110270","co38500","norming","","","","","","",""
"null","../img/tt/329tt.jpg","null","mooney1","image-keyboard-response","147","837432","0.0-6.0-1.20","11110270","co38500","norming","","","","","","",""
"20011","","","post_mooney1_questions","survey-likert","148","857447","0.0-6.0-2.20","11110270","co38500","norming","","","{""curiosity"":5,""confidence"":0}","[0,1]","../img/tt/329tt.jpg","",""
"1596","","","recognition","survey-text","149","859049","0.0-6.0-3.20","11110270","co38500","norming","","","{""guess"":""""}","","../img/tt/329tt.jpg","",""
"null","../img/gs/329gs.jpg","null","reveal","image-keyboard-response","150","861057","0.0-6.0-4.20","11110270","co38500","norming","","","","","","",""
"null","../img/tt/329tt.jpg","null","mooney2","image-keyboard-response","151","863073","0.0-6.0-5.20","11110270","co38500","norming","","","","","","",""
"4235","","","post_reveal_questions","survey-likert","152","867310","0.0-6.0-6.20","11110270","co38500","norming","","","{""aha"":5}","[0]","../img/tt/329tt.jpg","",""
"null","<div style=""font-size:60px;""> </div>","null","fixation","html-keyboard-response","153","867525","0.0-6.0-0.21","11110270","co38500","norming","","","","","","",""
"null","../img/tt/1290tt.jpg","null","mooney1","image-keyboard-response","154","870541","0.0-6.0-1.21","11110270","co38500","norming","","","","","","",""
"116022","","","post_mooney1_questions","survey-likert","155","986568","0.0-6.0-2.21","11110270","co38500","norming","","","{""curiosity"":2,""confidence"":1}","[0,1]","../img/tt/1290tt.jpg","",""
"756","","","recognition","survey-text","156","987330","0.0-6.0-3.21","11110270","co38500","norming","","","{""guess"":""""}","","../img/tt/1290tt.jpg","",""
"null","../img/gs/1290gs.jpg","null","reveal","image-keyboard-response","157","989341","0.0-6.0-4.21","11110270","co38500","norming","","","","","","",""
"null","../img/tt/1290tt.jpg","null","mooney2","image-keyboard-response","158","991344","0.0-6.0-5.21","11110270","co38500","norming","","","","","","",""
"6381","","","post_reveal_questions","survey-likert","159","997728","0.0-6.0-6.21","11110270","co38500","norming","","","{""aha"":1}","[0]","../img/tt/1290tt.jpg","",""
"null","<div style=""font-size:60px;""> </div>","null","fixation","html-keyboard-response","160","997932","0.0-6.0-0.22","11110270","co38500","norming","","","","","","",""
"null","../img/tt/1232tt.jpg","null","mooney1","image-keyboard-response","161","1000934","0.0-6.0-1.22","11110270","co38500","norming","","","","","","",""
"21603","","","post_mooney1_questions","survey-likert","162","1022541","0.0-6.0-2.22","11110270","co38500","norming","","","{""curiosity"":4,""confidence"":2}","[0,1]","../img/tt/1232tt.jpg","",""
"4381","","","recognition","survey-text","163","1026929","0.0-6.0-3.22","11110270","co38500","norming","","","{""guess"":""helicopter""}","","../img/tt/1232tt.jpg","",""
"null","../img/gs/1232gs.jpg","null","reveal","image-keyboard-response","164","1028947","0.0-6.0-4.22","11110270","co38500","norming","","","","","","",""
"null","../img/tt/1232tt.jpg","null","mooney2","image-keyboard-response","165","1030951","0.0-6.0-5.22","11110270","co38500","norming","","","","","","",""
"5637","","","post_reveal_questions","survey-likert","166","1036592","0.0-6.0-6.22","11110270","co38500","norming","","","{""aha"":5}","[0]","../img/tt/1232tt.jpg","",""
"null","<div style=""font-size:60px;""> </div>","null","fixation","html-keyboard-response","167","1036802","0.0-6.0-0.23","11110270","co38500","norming","","","","","","",""
"null","../img/tt/1235tt.jpg","null","mooney1","image-keyboard-response","168","1039806","0.0-6.0-1.23","11110270","co38500","norming","","","","","","",""
"26759","","","post_mooney1_questions","survey-likert","169","1066570","0.0-6.0-2.23","11110270","co38500","norming","","","{""curiosity"":4,""confidence"":2}","[0,1]","../img/tt/1235tt.jpg","",""
"7969","","","recognition","survey-text","170","1074545","0.0-6.0-3.23","11110270","co38500","norming","","","{""guess"":""struisvogel""}","","../img/tt/1235tt.jpg","",""
"null","../img/gs/1235gs.jpg","null","reveal","image-keyboard-response","171","1076552","0.0-6.0-4.23","11110270","co38500","norming","","","","","","",""
"null","../img/tt/1235tt.jpg","null","mooney2","image-keyboard-response","172","1078557","0.0-6.0-5.23","11110270","co38500","norming","","","","","","",""
"10207","","","post_reveal_questions","survey-likert","173","1088767","0.0-6.0-6.23","11110270","co38500","norming","","","{""aha"":2}","[0]","../img/tt/1235tt.jpg","",""
"null","<div style=""font-size:60px;""> </div>","null","fixation","html-keyboard-response","174","1088979","0.0-6.0-0.24","11110270","co38500","norming","","","","","","",""
"null","../img/tt/1186tt.jpg","null","mooney1","image-keyboard-response","175","1091992","0.0-6.0-1.24","11110270","co38500","norming","","","","","","",""
"14884","","","post_mooney1_questions","survey-likert","176","1106881","0.0-6.0-2.24","11110270","co38500","norming","","","{""curiosity"":2,""confidence"":2}","[0,1]","../img/tt/1186tt.jpg","",""
"19719","","","recognition","survey-text","177","1126607","0.0-6.0-3.24","11110270","co38500","norming","","","{""guess"":""helicopter""}","","../img/tt/1186tt.jpg","",""
"null","../img/gs/1186gs.jpg","null","reveal","image-keyboard-response","178","1128620","0.0-6.0-4.24","11110270","co38500","norming","","","","","","",""
"null","../img/tt/1186tt.jpg","null","mooney2","image-keyboard-response","179","1130635","0.0-6.0-5.24","11110270","co38500","norming","","","","","","",""
"3847","","","post_reveal_questions","survey-likert","180","1134485","0.0-6.0-6.24","11110270","co38500","norming","","","{""aha"":3}","[0]","../img/tt/1186tt.jpg","",""
"null","<div style=""font-size:60px;""> </div>","null","fixation","html-keyboard-response","181","1134688","0.0-6.0-0.25","11110270","co38500","norming","","","","","","",""
"null","../img/tt/1190tt.jpg","null","mooney1","image-keyboard-response","182","1137699","0.0-6.0-1.25","11110270","co38500","norming","","","","","","",""
"22151","","","post_mooney1_questions","survey-likert","183","1159854","0.0-6.0-2.25","11110270","co38500","norming","","","{""curiosity"":6,""confidence"":0}","[0,1]","../img/tt/1190tt.jpg","",""
"1101","","","recognition","survey-text","184","1160961","0.0-6.0-3.25","11110270","co38500","norming","","","{""guess"":""""}","","../img/tt/1190tt.jpg","",""
"null","../img/gs/1190gs.jpg","null","reveal","image-keyboard-response","185","1162979","0.0-6.0-4.25","11110270","co38500","norming","","","","","","",""
"null","../img/tt/1190tt.jpg","null","mooney2","image-keyboard-response","186","1164988","0.0-6.0-5.25","11110270","co38500","norming","","","","","","",""
"2959","","","post_reveal_questions","survey-likert","187","1167951","0.0-6.0-6.25","11110270","co38500","norming","","","{""aha"":6}","[0]","../img/tt/1190tt.jpg","",""
"null","<div style=""font-size:60px;""> </div>","null","fixation","html-keyboard-response","188","1168166","0.0-6.0-0.26","11110270","co38500","norming","","","","","","",""
"null","../img/tt/353tt.jpg","null","mooney1","image-keyboard-response","189","1171169","0.0-6.0-1.26","11110270","co38500","norming","","","","","","",""
"11152","","","post_mooney1_questions","survey-likert","190","1182324","0.0-6.0-2.26","11110270","co38500","norming","","","{""curiosity"":0,""confidence"":6}","[0,1]","../img/tt/353tt.jpg","",""
"5928","","","recognition","survey-text","191","1188258","0.0-6.0-3.26","11110270","co38500","norming","","","{""guess"":""pinguin""}","","../img/tt/353tt.jpg","",""
"null","../img/gs/353gs.jpg","null","reveal","image-keyboard-response","192","1190274","0.0-6.0-4.26","11110270","co38500","norming","","","","","","",""
"null","../img/tt/353tt.jpg","null","mooney2","image-keyboard-response","193","1192287","0.0-6.0-5.26","11110270","co38500","norming","","","","","","",""
"3921","","","post_reveal_questions","survey-likert","194","1196211","0.0-6.0-6.26","11110270","co38500","norming","","","{""aha"":0}","[0]","../img/tt/353tt.jpg","",""
"null","<div style=""font-size:60px;""> </div>","null","fixation","html-keyboard-response","195","1196416","0.0-6.0-0.27","11110270","co38500","norming","","","","","","",""
"null","../img/tt/1239tt.jpg","null","mooney1","image-keyboard-response","196","1199431","0.0-6.0-1.27","11110270","co38500","norming","","","","","","",""
"19425","","","post_mooney1_questions","survey-likert","197","1218862","0.0-6.0-2.27","11110270","co38500","norming","","","{""curiosity"":5,""confidence"":1}","[0,1]","../img/tt/1239tt.jpg","",""
"8523","","","recognition","survey-text","198","1227390","0.0-6.0-3.27","11110270","co38500","norming","","","{""guess"":""paard""}","","../img/tt/1239tt.jpg","",""
"null","../img/gs/1239gs.jpg","null","reveal","image-keyboard-response","199","1229401","0.0-6.0-4.27","11110270","co38500","norming","","","","","","",""
"null","../img/tt/1239tt.jpg","null","mooney2","image-keyboard-response","200","1231403","0.0-6.0-5.27","11110270","co38500","norming","","","","","","",""
"13603","","","post_reveal_questions","survey-likert","201","1245009","0.0-6.0-6.27","11110270","co38500","norming","","","{""aha"":3}","[0]","../img/tt/1239tt.jpg","",""
"null","<div style=""font-size:60px;""> </div>","null","fixation","html-keyboard-response","202","1245224","0.0-6.0-0.28","11110270","co38500","norming","","","","","","",""
"null","../img/tt/416tt.jpg","null","mooney1","image-keyboard-response","203","1248230","0.0-6.0-1.28","11110270","co38500","norming","","","","","","",""
"11335","","","post_mooney1_questions","survey-likert","204","1259571","0.0-6.0-2.28","11110270","co38500","norming","","","{""curiosity"":1,""confidence"":6}","[0,1]","../img/tt/416tt.jpg","",""
"12368","","","recognition","survey-text","205","1271951","0.0-6.0-3.28","11110270","co38500","norming","","","{""guess"":""struisvogels""}","","../img/tt/416tt.jpg","",""
"null","../img/gs/416gs.jpg","null","reveal","image-keyboard-response","206","1273964","0.0-6.0-4.28","11110270","co38500","norming","","","","","","",""
"null","../img/tt/416tt.jpg","null","mooney2","image-keyboard-response","207","1275971","0.0-6.0-5.28","11110270","co38500","norming","","","","","","",""
"3048","","","post_reveal_questions","survey-likert","208","1279027","0.0-6.0-6.28","11110270","co38500","norming","","","{""aha"":0}","[0]","../img/tt/416tt.jpg","",""
"null","<div style=""font-size:60px;""> </div>","null","fixation","html-keyboard-response","209","1279247","0.0-6.0-0.29","11110270","co38500","norming","","","","","","",""
"null","../img/tt/1224tt.jpg","null","mooney1","image-keyboard-response","210","1282257","0.0-6.0-1.29","11110270","co38500","norming","","","","","","",""
"25392","","","post_mooney1_questions","survey-likert","211","1307656","0.0-6.0-2.29","11110270","co38500","norming","","","{""curiosity"":3,""confidence"":2}","[0,1]","../img/tt/1224tt.jpg","",""
"11284","","","recognition","survey-text","212","1318946","0.0-6.0-3.29","11110270","co38500","norming","","","{""guess"":""schermster""}","","../img/tt/1224tt.jpg","",""
"null","../img/gs/1224gs.jpg","null","reveal","image-keyboard-response","213","1320953","0.0-6.0-4.29","11110270","co38500","norming","","","","","","",""
"null","../img/tt/1224tt.jpg","null","mooney2","image-keyboard-response","214","1322965","0.0-6.0-5.29","11110270","co38500","norming","","","","","","",""
"13332","","","post_reveal_questions","survey-likert","215","1336305","0.0-6.0-6.29","11110270","co38500","norming","","","{""aha"":4}","[0]","../img/tt/1224tt.jpg","",""
"null","<div style=""font-size:60px;""> </div>","null","fixation","html-keyboard-response","216","1336515","0.0-6.0-0.30","11110270","co38500","norming","","","","","","",""
"null","../img/tt/438tt.jpg","null","mooney1","image-keyboard-response","217","1339523","0.0-6.0-1.30","11110270","co38500","norming","","","","","","",""
"64526","","","post_mooney1_questions","survey-likert","218","1404054","0.0-6.0-2.30","11110270","co38500","norming","","","{""curiosity"":6,""confidence"":1}","[0,1]","../img/tt/438tt.jpg","",""
"2540","","","recognition","survey-text","219","1406603","0.0-6.0-3.30","11110270","co38500","norming","","","{""guess"":""fruit""}","","../img/tt/438tt.jpg","",""
"null","../img/gs/438gs.jpg","null","reveal","image-keyboard-response","220","1408620","0.0-6.0-4.30","11110270","co38500","norming","","","","","","",""
"null","../img/tt/438tt.jpg","null","mooney2","image-keyboard-response","221","1410636","0.0-6.0-5.30","11110270","co38500","norming","","","","","","",""
"3425","","","post_reveal_questions","survey-likert","222","1414065","0.0-6.0-6.30","11110270","co38500","norming","","","{""aha"":5}","[0]","../img/tt/438tt.jpg","",""
"null","<div style=""font-size:60px;""> </div>","null","fixation","html-keyboard-response","223","1414277","0.0-6.0-0.31","11110270","co38500","norming","","","","","","",""
"null","../img/tt/1128tt.jpg","null","mooney1","image-keyboard-response","224","1417289","0.0-6.0-1.31","11110270","co38500","norming","","","","","","",""
"24837","","","post_mooney1_questions","survey-likert","225","1442130","0.0-6.0-2.31","11110270","co38500","norming","","","{""curiosity"":5,""confidence"":1}","[0,1]","../img/tt/1128tt.jpg","",""
"4190","","","recognition","survey-text","226","1446327","0.0-6.0-3.31","11110270","co38500","norming","","","{""guess"":""aap""}","","../img/tt/1128tt.jpg","",""
"null","../img/gs/1128gs.jpg","null","reveal","image-keyboard-response","227","1448341","0.0-6.0-4.31","11110270","co38500","norming","","","","","","",""
"null","../img/tt/1128tt.jpg","null","mooney2","image-keyboard-response","228","1450348","0.0-6.0-5.31","11110270","co38500","norming","","","","","","",""
"13242","","","post_reveal_questions","survey-likert","229","1463600","0.0-6.0-6.31","11110270","co38500","norming","","","{""aha"":6}","[0]","../img/tt/1128tt.jpg","",""
"null","<div style=""font-size:60px;""> </div>","null","fixation","html-keyboard-response","230","1463807","0.0-6.0-0.32","11110270","co38500","norming","","","","","","",""
"null","../img/tt/270tt.jpg","null","mooney1","image-keyboard-response","231","1466818","0.0-6.0-1.32","11110270","co38500","norming","","","","","","",""
"38424","","","post_mooney1_questions","survey-likert","232","1505246","0.0-6.0-2.32","11110270","co38500","norming","","","{""curiosity"":6,""confidence"":0}","[0,1]","../img/tt/270tt.jpg","",""
"3766","","","recognition","survey-text","233","1509021","0.0-6.0-3.32","11110270","co38500","norming","","","{""guess"":""bos""}","","../img/tt/270tt.jpg","",""
"null","../img/gs/270gs.jpg","null","reveal","image-keyboard-response","234","1511042","0.0-6.0-4.32","11110270","co38500","norming","","","","","","",""
"null","../img/tt/270tt.jpg","null","mooney2","image-keyboard-response","235","1513060","0.0-6.0-5.32","11110270","co38500","norming","","","","","","",""
"5416","","","post_reveal_questions","survey-likert","236","1518484","0.0-6.0-6.32","11110270","co38500","norming","","","{""aha"":5}","[0]","../img/tt/270tt.jpg","",""
"null","<div style=""font-size:60px;""> </div>","null","fixation","html-keyboard-response","237","1518698","0.0-6.0-0.33","11110270","co38500","norming","","","","","","",""
"null","../img/tt/1154tt.jpg","null","mooney1","image-keyboard-response","238","1521709","0.0-6.0-1.33","11110270","co38500","norming","","","","","","",""
"20129","","","post_mooney1_questions","survey-likert","239","1541844","0.0-6.0-2.33","11110270","co38500","norming","","","{""curiosity"":5,""confidence"":1}","[0,1]","../img/tt/1154tt.jpg","",""
"18674","","","recognition","survey-text","240","1560524","0.0-6.0-3.33","11110270","co38500","norming","","","{""guess"":""auto""}","","../img/tt/1154tt.jpg","",""
"null","../img/gs/1154gs.jpg","null","reveal","image-keyboard-response","241","1562540","0.0-6.0-4.33","11110270","co38500","norming","","","","","","",""
"null","../img/tt/1154tt.jpg","null","mooney2","image-keyboard-response","242","1564557","0.0-6.0-5.33","11110270","co38500","norming","","","","","","",""
"2532","","","post_reveal_questions","survey-likert","243","1567092","0.0-6.0-6.33","11110270","co38500","norming","","","{""aha"":4}","[0]","../img/tt/1154tt.jpg","",""
"null","<div style=""font-size:60px;""> </div>","null","fixation","html-keyboard-response","244","1567304","0.0-6.0-0.34","11110270","co38500","norming","","","","","","",""
"null","../img/tt/1101tt.jpg","null","mooney1","image-keyboard-response","245","1570308","0.0-6.0-1.34","11110270","co38500","norming","","","","","","",""
"11972","","","post_mooney1_questions","survey-likert","246","1582283","0.0-6.0-2.34","11110270","co38500","norming","","","{""curiosity"":3,""confidence"":1}","[0,1]","../img/tt/1101tt.jpg","",""
"32630","","","recognition","survey-text","247","1614922","0.0-6.0-3.34","11110270","co38500","norming","","","{""guess"":""hockey speler""}","","../img/tt/1101tt.jpg","",""
"null","../img/gs/1101gs.jpg","null","reveal","image-keyboard-response","248","1616944","0.0-6.0-4.34","11110270","co38500","norming","","","","","","",""
"null","../img/tt/1101tt.jpg","null","mooney2","image-keyboard-response","249","1618964","0.0-6.0-5.34","11110270","co38500","norming","","","","","","",""
"5793","","","post_reveal_questions","survey-likert","250","1624763","0.0-6.0-6.34","11110270","co38500","norming","","","{""aha"":3}","[0]","../img/tt/1101tt.jpg","",""
"null","<div style=""font-size:60px;""> </div>","null","fixation","html-keyboard-response","251","1624977","0.0-6.0-0.35","11110270","co38500","norming","","","","","","",""
"null","../img/tt/1061tt.jpg","null","mooney1","image-keyboard-response","252","1627996","0.0-6.0-1.35","11110270","co38500","norming","","","","","","",""
"15698","","","post_mooney1_questions","survey-likert","253","1643698","0.0-6.0-2.35","11110270","co38500","norming","","","{""curiosity"":3,""confidence"":1}","[0,1]","../img/tt/1061tt.jpg","",""
"10699","","","recognition","survey-text","254","1654407","0.0-6.0-3.35","11110270","co38500","norming","","","{""guess"":""volleybal spelers""}","","../img/tt/1061tt.jpg","",""
"null","../img/gs/1061gs.jpg","null","reveal","image-keyboard-response","255","1656418","0.0-6.0-4.35","11110270","co38500","norming","","","","","","",""
"null","../img/tt/1061tt.jpg","null","mooney2","image-keyboard-response","256","1658432","0.0-6.0-5.35","11110270","co38500","norming","","","","","","",""
"25640","","","post_reveal_questions","survey-likert","257","1684080","0.0-6.0-6.35","11110270","co38500","norming","","","{""aha"":2}","[0]","../img/tt/1061tt.jpg","",""
"null","<div style=""font-size:60px;""> </div>","null","fixation","html-keyboard-response","258","1684294","0.0-6.0-0.36","11110270","co38500","norming","","","","","","",""
"null","../img/tt/1268tt.jpg","null","mooney1","image-keyboard-response","259","1687313","0.0-6.0-1.36","11110270","co38500","norming","","","","","","",""
"34778","","","post_mooney1_questions","survey-likert","260","1722096","0.0-6.0-2.36","11110270","co38500","norming","","","{""curiosity"":6,""confidence"":2}","[0,1]","../img/tt/1268tt.jpg","",""
"5802","","","recognition","survey-text","261","1727906","0.0-6.0-3.36","11110270","co38500","norming","","","{""guess"":""animal""}","","../img/tt/1268tt.jpg","",""
"null","../img/gs/1268gs.jpg","null","reveal","image-keyboard-response","262","1729916","0.0-6.0-4.36","11110270","co38500","norming","","","","","","",""
"null","../img/tt/1268tt.jpg","null","mooney2","image-keyboard-response","263","1731927","0.0-6.0-5.36","11110270","co38500","norming","","","","","","",""
"4589","","","post_reveal_questions","survey-likert","264","1736520","0.0-6.0-6.36","11110270","co38500","norming","","","{""aha"":4}","[0]","../img/tt/1268tt.jpg","",""
"null","<div style=""font-size:60px;""> </div>","null","fixation","html-keyboard-response","265","1736725","0.0-6.0-0.37","11110270","co38500","norming","","","","","","",""
"null","../img/tt/1142tt.jpg","null","mooney1","image-keyboard-response","266","1739729","0.0-6.0-1.37","11110270","co38500","norming","","","","","","",""
"26061","","","post_mooney1_questions","survey-likert","267","1765794","0.0-6.0-2.37","11110270","co38500","norming","","","{""curiosity"":5,""confidence"":2}","[0,1]","../img/tt/1142tt.jpg","",""
"73014","","","recognition","survey-text","268","1838815","0.0-6.0-3.37","11110270","co38500","norming","","","{""guess"":""keeper""}","","../img/tt/1142tt.jpg","",""
"null","../img/gs/1142gs.jpg","null","reveal","image-keyboard-response","269","1840839","0.0-6.0-4.37","11110270","co38500","norming","","","","","","",""
"null","../img/tt/1142tt.jpg","null","mooney2","image-keyboard-response","270","1842854","0.0-6.0-5.37","11110270","co38500","norming","","","","","","",""
"5997","","","post_reveal_questions","survey-likert","271","1848860","0.0-6.0-6.37","11110270","co38500","norming","","","{""aha"":4}","[0]","../img/tt/1142tt.jpg","",""
"null","<div style=""font-size:60px;""> </div>","null","fixation","html-keyboard-response","272","1849072","0.0-6.0-0.38","11110270","co38500","norming","","","","","","",""
"null","../img/tt/194tt.jpg","null","mooney1","image-keyboard-response","273","1852084","0.0-6.0-1.38","11110270","co38500","norming","","","","","","",""
"7850","","","post_mooney1_questions","survey-likert","274","1859940","0.0-6.0-2.38","11110270","co38500","norming","","","{""curiosity"":5,""confidence"":4}","[0,1]","../img/tt/194tt.jpg","",""
"88138","","","recognition","survey-text","275","1948087","0.0-6.0-3.38","11110270","co38500","norming","","","{""guess"":""instrument bespeelster""}","","../img/tt/194tt.jpg","",""
"null","../img/gs/194gs.jpg","null","reveal","image-keyboard-response","276","1950104","0.0-6.0-4.38","11110270","co38500","norming","","","","","","",""
"null","../img/tt/194tt.jpg","null","mooney2","image-keyboard-response","277","1952116","0.0-6.0-5.38","11110270","co38500","norming","","","","","","",""
"17569","","","post_reveal_questions","survey-likert","278","1969689","0.0-6.0-6.38","11110270","co38500","norming","","","{""aha"":3}","[0]","../img/tt/194tt.jpg","",""
"null","<div style=""font-size:60px;""> </div>","null","fixation","html-keyboard-response","279","1969894","0.0-6.0-0.39","11110270","co38500","norming","","","","","","",""
"null","../img/tt/1196tt.jpg","null","mooney1","image-keyboard-response","280","1972902","0.0-6.0-1.39","11110270","co38500","norming","","","","","","",""
"5013","","","post_mooney1_questions","survey-likert","281","1977921","0.0-6.0-2.39","11110270","co38500","norming","","","{""curiosity"":3,""confidence"":2}","[0,1]","../img/tt/1196tt.jpg","",""
"5195","","","recognition","survey-text","282","1983122","0.0-6.0-3.39","11110270","co38500","norming","","","{""guess"":""springkasteel""}","","../img/tt/1196tt.jpg","",""
"null","../img/gs/1196gs.jpg","null","reveal","image-keyboard-response","283","1985136","0.0-6.0-4.39","11110270","co38500","norming","","","","","","",""
"null","../img/tt/1196tt.jpg","null","mooney2","image-keyboard-response","284","1987147","0.0-6.0-5.39","11110270","co38500","norming","","","","","","",""
"7897","","","post_reveal_questions","survey-likert","285","1995048","0.0-6.0-6.39","11110270","co38500","norming","","","{""aha"":4}","[0]","../img/tt/1196tt.jpg","",""
"null","<div style=""font-size:60px;""> </div>","null","fixation","html-keyboard-response","286","1995261","0.0-6.0-0.40","11110270","co38500","norming","","","","","","",""
"null","../img/tt/078tt.jpg","null","mooney1","image-keyboard-response","287","1998266","0.0-6.0-1.40","11110270","co38500","norming","","","","","","",""
"8082","","","post_mooney1_questions","survey-likert","288","2006350","0.0-6.0-2.40","11110270","co38500","norming","","","{""curiosity"":2,""confidence"":2}","[0,1]","../img/tt/078tt.jpg","",""
"9039","","","recognition","survey-text","289","2015396","0.0-6.0-3.40","11110270","co38500","norming","","","{""guess"":""tros druiven""}","","../img/tt/078tt.jpg","",""
"null","../img/gs/078gs.jpg","null","reveal","image-keyboard-response","290","2017402","0.0-6.0-4.40","11110270","co38500","norming","","","","","","",""
"null","../img/tt/078tt.jpg","null","mooney2","image-keyboard-response","291","2019414","0.0-6.0-5.40","11110270","co38500","norming","","","","","","",""
"17827","","","post_reveal_questions","survey-likert","292","2037246","0.0-6.0-6.40","11110270","co38500","norming","","","{""aha"":4}","[0]","../img/tt/078tt.jpg","",""
"null","<div style=""font-size:60px;""> </div>","null","fixation","html-keyboard-response","293","2037464","0.0-6.0-0.41","11110270","co38500","norming","","","","","","",""
"null","../img/tt/032tt.jpg","null","mooney1","image-keyboard-response","294","2040479","0.0-6.0-1.41","11110270","co38500","norming","","","","","","",""
"30229","","","post_mooney1_questions","survey-likert","295","2070711","0.0-6.0-2.41","11110270","co38500","norming","","","{""curiosity"":4,""confidence"":1}","[0,1]","../img/tt/032tt.jpg","",""
"2699","","","recognition","survey-text","296","2073417","0.0-6.0-3.41","11110270","co38500","norming","","","{""guess"":""giraffe""}","","../img/tt/032tt.jpg","",""
"null","../img/gs/032gs.jpg","null","reveal","image-keyboard-response","297","2075432","0.0-6.0-4.41","11110270","co38500","norming","","","","","","",""
"null","../img/tt/032tt.jpg","null","mooney2","image-keyboard-response","298","2077436","0.0-6.0-5.41","11110270","co38500","norming","","","","","","",""
"3190","","","post_reveal_questions","survey-likert","299","2080631","0.0-6.0-6.41","11110270","co38500","norming","","","{""aha"":4}","[0]","../img/tt/032tt.jpg","",""
"null","<div style=""font-size:60px;""> </div>","null","fixation","html-keyboard-response","300","2080839","0.0-6.0-0.42","11110270","co38500","norming","","","","","","",""
"null","../img/tt/135tt.jpg","null","mooney1","image-keyboard-response","301","2083852","0.0-6.0-1.42","11110270","co38500","norming","","","","","","",""
"8951","","","post_mooney1_questions","survey-likert","302","2092806","0.0-6.0-2.42","11110270","co38500","norming","","","{""curiosity"":5,""confidence"":3}","[0,1]","../img/tt/135tt.jpg","",""
"5758","","","recognition","survey-text","303","2098571","0.0-6.0-3.42","11110270","co38500","norming","","","{""guess"":""een toilet""}","","../img/tt/135tt.jpg","",""
"null","../img/gs/135gs.jpg","null","reveal","image-keyboard-response","304","2100588","0.0-6.0-4.42","11110270","co38500","norming","","","","","","",""
"null","../img/tt/135tt.jpg","null","mooney2","image-keyboard-response","305","2102604","0.0-6.0-5.42","11110270","co38500","norming","","","","","","",""
"2791","","","post_reveal_questions","survey-likert","306","2105398","0.0-6.0-6.42","11110270","co38500","norming","","","{""aha"":1}","[0]","../img/tt/135tt.jpg","",""
"null","<div style=""font-size:60px;""> </div>","null","fixation","html-keyboard-response","307","2105604","0.0-6.0-0.43","11110270","co38500","norming","","","","","","",""
"null","../img/tt/273tt.jpg","null","mooney1","image-keyboard-response","308","2108620","0.0-6.0-1.43","11110270","co38500","norming","","","","","","",""
"17929","","","post_mooney1_questions","survey-likert","309","2126552","0.0-6.0-2.43","11110270","co38500","norming","","","{""curiosity"":4,""confidence"":2}","[0,1]","../img/tt/273tt.jpg","",""
"12983","","","recognition","survey-text","310","2139541","0.0-6.0-3.43","11110270","co38500","norming","","","{""guess"":""dwarsfluit bespeelster ""}","","../img/tt/273tt.jpg","",""
"null","../img/gs/273gs.jpg","null","reveal","image-keyboard-response","311","2141552","0.0-6.0-4.43","11110270","co38500","norming","","","","","","",""
"null","../img/tt/273tt.jpg","null","mooney2","image-keyboard-response","312","2143556","0.0-6.0-5.43","11110270","co38500","norming","","","","","","",""
"3348","","","post_reveal_questions","survey-likert","313","2146908","0.0-6.0-6.43","11110270","co38500","norming","","","{""aha"":3}","[0]","../img/tt/273tt.jpg","",""
"null","<div style=""font-size:60px;""> </div>","null","fixation","html-keyboard-response","314","2147116","0.0-6.0-0.44","11110270","co38500","norming","","","","","","",""
"null","../img/tt/300tt.jpg","null","mooney1","image-keyboard-response","315","2150119","0.0-6.0-1.44","11110270","co38500","norming","","","","","","",""
"19280","","","post_mooney1_questions","survey-likert","316","2169402","0.0-6.0-2.44","11110270","co38500","norming","","","{""curiosity"":3,""confidence"":3}","[0,1]","../img/tt/300tt.jpg","",""
"1087","","","recognition","survey-text","317","2170495","0.0-6.0-3.44","11110270","co38500","norming","","","{""guess"":""""}","","../img/tt/300tt.jpg","",""
"null","../img/gs/300gs.jpg","null","reveal","image-keyboard-response","318","2172510","0.0-6.0-4.44","11110270","co38500","norming","","","","","","",""
"null","../img/tt/300tt.jpg","null","mooney2","image-keyboard-response","319","2174524","0.0-6.0-5.44","11110270","co38500","norming","","","","","","",""
"5575","","","post_reveal_questions","survey-likert","320","2180102","0.0-6.0-6.44","11110270","co38500","norming","","","{""aha"":4}","[0]","../img/tt/300tt.jpg","",""
"null","<div style=""font-size:60px;""> </div>","null","fixation","html-keyboard-response","321","2180308","0.0-6.0-0.45","11110270","co38500","norming","","","","","","",""
"null","../img/tt/121tt.jpg","null","mooney1","image-keyboard-response","322","2183322","0.0-6.0-1.45","11110270","co38500","norming","","","","","","",""
"9592","","","post_mooney1_questions","survey-likert","323","2192918","0.0-6.0-2.45","11110270","co38500","norming","","","{""curiosity"":4,""confidence"":1}","[0,1]","../img/tt/121tt.jpg","",""
"2343","","","recognition","survey-text","324","2195269","0.0-6.0-3.45","11110270","co38500","norming","","","{""guess"":""vogel""}","","../img/tt/121tt.jpg","",""
"null","../img/gs/121gs.jpg","null","reveal","image-keyboard-response","325","2197273","0.0-6.0-4.45","11110270","co38500","norming","","","","","","",""
"null","../img/tt/121tt.jpg","null","mooney2","image-keyboard-response","326","2199278","0.0-6.0-5.45","11110270","co38500","norming","","","","","","",""
"8817","","","post_reveal_questions","survey-likert","327","2208098","0.0-6.0-6.45","11110270","co38500","norming","","","{""aha"":4}","[0]","../img/tt/121tt.jpg","",""
"null","<div style=""font-size:60px;""> </div>","null","fixation","html-keyboard-response","328","2208302","0.0-6.0-0.46","11110270","co38500","norming","","","","","","",""
"null","../img/tt/1055tt.jpg","null","mooney1","image-keyboard-response","329","2211304","0.0-6.0-1.46","11110270","co38500","norming","","","","","","",""
"14122","","","post_mooney1_questions","survey-likert","330","2225431","0.0-6.0-2.46","11110270","co38500","norming","","","{""curiosity"":3,""confidence"":3}","[0,1]","../img/tt/1055tt.jpg","",""
"25851","","","recognition","survey-text","331","2251291","0.0-6.0-3.46","11110270","co38500","norming","","","{""guess"":""grot""}","","../img/tt/1055tt.jpg","",""
"null","../img/gs/1055gs.jpg","null","reveal","image-keyboard-response","332","2253294","0.0-6.0-4.46","11110270","co38500","norming","","","","","","",""
"null","../img/tt/1055tt.jpg","null","mooney2","image-keyboard-response","333","2255310","0.0-6.0-5.46","11110270","co38500","norming","","","","","","",""
"4597","","","post_reveal_questions","survey-likert","334","2259910","0.0-6.0-6.46","11110270","co38500","norming","","","{""aha"":5}","[0]","../img/tt/1055tt.jpg","",""
"null","<div style=""font-size:60px;""> </div>","null","fixation","html-keyboard-response","335","2260121","0.0-6.0-0.47","11110270","co38500","norming","","","","","","",""
"null","../img/tt/1173tt.jpg","null","mooney1","image-keyboard-response","336","2263130","0.0-6.0-1.47","11110270","co38500","norming","","","","","","",""
"14308","","","post_mooney1_questions","survey-likert","337","2277444","0.0-6.0-2.47","11110270","co38500","norming","","","{""curiosity"":4,""confidence"":3}","[0,1]","../img/tt/1173tt.jpg","",""
"4166","","","recognition","survey-text","338","2281615","0.0-6.0-3.47","11110270","co38500","norming","","","{""guess"":""bal sporters""}","","../img/tt/1173tt.jpg","",""
"null","../img/gs/1173gs.jpg","null","reveal","image-keyboard-response","339","2283621","0.0-6.0-4.47","11110270","co38500","norming","","","","","","",""
"null","../img/tt/1173tt.jpg","null","mooney2","image-keyboard-response","340","2285637","0.0-6.0-5.47","11110270","co38500","norming","","","","","","",""
"3888","","","post_reveal_questions","survey-likert","341","2289527","0.0-6.0-6.47","11110270","co38500","norming","","","{""aha"":5}","[0]","../img/tt/1173tt.jpg","",""
"null","<div style=""font-size:60px;""> </div>","null","fixation","html-keyboard-response","342","2289745","0.0-6.0-0.48","11110270","co38500","norming","","","","","","",""
"null","../img/tt/189tt.jpg","null","mooney1","image-keyboard-response","343","2292762","0.0-6.0-1.48","11110270","co38500","norming","","","","","","",""
"5361","","","post_mooney1_questions","survey-likert","344","2298128","0.0-6.0-2.48","11110270","co38500","norming","","","{""curiosity"":4,""confidence"":3}","[0,1]","../img/tt/189tt.jpg","",""
"15920","","","recognition","survey-text","345","2314053","0.0-6.0-3.48","11110270","co38500","norming","","","{""guess"":""gevechtssporter""}","","../img/tt/189tt.jpg","",""
"null","../img/gs/189gs.jpg","null","reveal","image-keyboard-response","346","2316060","0.0-6.0-4.48","11110270","co38500","norming","","","","","","",""
"null","../img/tt/189tt.jpg","null","mooney2","image-keyboard-response","347","2318073","0.0-6.0-5.48","11110270","co38500","norming","","","","","","",""
"3179","","","post_reveal_questions","survey-likert","348","2321255","0.0-6.0-6.48","11110270","co38500","norming","","","{""aha"":4}","[0]","../img/tt/189tt.jpg","",""
"null","<div style=""font-size:60px;""> </div>","null","fixation","html-keyboard-response","349","2321475","0.0-6.0-0.49","11110270","co38500","norming","","","","","","",""
"null","../img/tt/456tt.jpg","null","mooney1","image-keyboard-response","350","2324479","0.0-6.0-1.49","11110270","co38500","norming","","","","","","",""
"8697","","","post_mooney1_questions","survey-likert","351","2333180","0.0-6.0-2.49","11110270","co38500","norming","","","{""curiosity"":4,""confidence"":3}","[0,1]","../img/tt/456tt.jpg","",""
"2440","","","recognition","survey-text","352","2335626","0.0-6.0-3.49","11110270","co38500","norming","","","{""guess"":""berg""}","","../img/tt/456tt.jpg","",""
"null","../img/gs/456gs.jpg","null","reveal","image-keyboard-response","353","2337635","0.0-6.0-4.49","11110270","co38500","norming","","","","","","",""
"null","../img/tt/456tt.jpg","null","mooney2","image-keyboard-response","354","2339650","0.0-6.0-5.49","11110270","co38500","norming","","","","","","",""
"13623","","","post_reveal_questions","survey-likert","355","2353277","0.0-6.0-6.49","11110270","co38500","norming","","","{""aha"":4}","[0]","../img/tt/456tt.jpg","",""
"null","<div style=""font-size:60px;""> </div>","null","fixation","html-keyboard-response","356","2353495","0.0-6.0-0.50","11110270","co38500","norming","","","","","","",""
"null","../img/tt/1127tt.jpg","null","mooney1","image-keyboard-response","357","2356504","0.0-6.0-1.50","11110270","co38500","norming","","","","","","",""
"4753","","","post_mooney1_questions","survey-likert","358","2361261","0.0-6.0-2.50","11110270","co38500","norming","","","{""curiosity"":3,""confidence"":3}","[0,1]","../img/tt/1127tt.jpg","",""
"2056","","","recognition","survey-text","359","2363323","0.0-6.0-3.50","11110270","co38500","norming","","","{""guess"":""klas""}","","../img/tt/1127tt.jpg","",""
"null","../img/gs/1127gs.jpg","null","reveal","image-keyboard-response","360","2365326","0.0-6.0-4.50","11110270","co38500","norming","","","","","","",""
"null","../img/tt/1127tt.jpg","null","mooney2","image-keyboard-response","361","2367336","0.0-6.0-5.50","11110270","co38500","norming","","","","","","",""
"4591","","","post_reveal_questions","survey-likert","362","2371930","0.0-6.0-6.50","11110270","co38500","norming","","","{""aha"":4}","[0]","../img/tt/1127tt.jpg","",""
"null","<div style=""font-size:60px;""> </div>","null","fixation","html-keyboard-response","363","2372146","0.0-6.0-0.51","11110270","co38500","norming","","","","","","",""
"null","../img/tt/1080tt.jpg","null","mooney1","image-keyboard-response","364","2375153","0.0-6.0-1.51","11110270","co38500","norming","","","","","","",""
"16470","","","post_mooney1_questions","survey-likert","365","2391628","0.0-6.0-2.51","11110270","co38500","norming","","","{""curiosity"":5,""confidence"":3}","[0,1]","../img/tt/1080tt.jpg","",""
"8650","","","recognition","survey-text","366","2400284","0.0-6.0-3.51","11110270","co38500","norming","","","{""guess"":""boot""}","","../img/tt/1080tt.jpg","",""
"null","../img/gs/1080gs.jpg","null","reveal","image-keyboard-response","367","2402303","0.0-6.0-4.51","11110270","co38500","norming","","","","","","",""
"null","../img/tt/1080tt.jpg","null","mooney2","image-keyboard-response","368","2404308","0.0-6.0-5.51","11110270","co38500","norming","","","","","","",""
"27291","","","post_reveal_questions","survey-likert","369","2431602","0.0-6.0-6.51","11110270","co38500","norming","","","{""aha"":4}","[0]","../img/tt/1080tt.jpg","",""
"null","<div style=""font-size:60px;""> </div>","null","fixation","html-keyboard-response","370","2431817","0.0-6.0-0.52","11110270","co38500","norming","","","","","","",""
"null","../img/tt/105tt.jpg","null","mooney1","image-keyboard-response","371","2434823","0.0-6.0-1.52","11110270","co38500","norming","","","","","","",""
"18782","","","post_mooney1_questions","survey-likert","372","2453610","0.0-6.0-2.52","11110270","co38500","norming","","","{""curiosity"":5,""confidence"":0}","[0,1]","../img/tt/105tt.jpg","",""
"13457","","","recognition","survey-text","373","2467072","0.0-6.0-3.52","11110270","co38500","norming","","","{""guess"":""muur""}","","../img/tt/105tt.jpg","",""
"null","../img/gs/105gs.jpg","null","reveal","image-keyboard-response","374","2469089","0.0-6.0-4.52","11110270","co38500","norming","","","","","","",""
"null","../img/tt/105tt.jpg","null","mooney2","image-keyboard-response","375","2471104","0.0-6.0-5.52","11110270","co38500","norming","","","","","","",""
"5157","","","post_reveal_questions","survey-likert","376","2476264","0.0-6.0-6.52","11110270","co38500","norming","","","{""aha"":4}","[0]","../img/tt/105tt.jpg","",""
"null","<div style=""font-size:60px;""> </div>","null","fixation","html-keyboard-response","377","2476474","0.0-6.0-0.53","11110270","co38500","norming","","","","","","",""
"null","../img/tt/279tt.jpg","null","mooney1","image-keyboard-response","378","2479479","0.0-6.0-1.53","11110270","co38500","norming","","","","","","",""
"7277","","","post_mooney1_questions","survey-likert","379","2486760","0.0-6.0-2.53","11110270","co38500","norming","","","{""curiosity"":5,""confidence"":1}","[0,1]","../img/tt/279tt.jpg","",""
"6348","","","recognition","survey-text","380","2493116","0.0-6.0-3.53","11110270","co38500","norming","","","{""guess"":""bos""}","","../img/tt/279tt.jpg","",""
"null","../img/gs/279gs.jpg","null","reveal","image-keyboard-response","381","2495121","0.0-6.0-4.53","11110270","co38500","norming","","","","","","",""
"null","../img/tt/279tt.jpg","null","mooney2","image-keyboard-response","382","2497132","0.0-6.0-5.53","11110270","co38500","norming","","","","","","",""
"28636","","","post_reveal_questions","survey-likert","383","2525771","0.0-6.0-6.53","11110270","co38500","norming","","","{""aha"":3}","[0]","../img/tt/279tt.jpg","",""
"null","<div style=""font-size:60px;""> </div>","null","fixation","html-keyboard-response","384","2525980","0.0-6.0-0.54","11110270","co38500","norming","","","","","","",""
"null","../img/tt/1006tt.jpg","null","mooney1","image-keyboard-response","385","2528994","0.0-6.0-1.54","11110270","co38500","norming","","","","","","",""
"12238","","","post_mooney1_questions","survey-likert","386","2541234","0.0-6.0-2.54","11110270","co38500","norming","","","{""curiosity"":5,""confidence"":1}","[0,1]","../img/tt/1006tt.jpg","",""
"39963","","","recognition","survey-text","387","2581206","0.0-6.0-3.54","11110270","co38500","norming","","","{""guess"":""kudde schaapen ""}","","../img/tt/1006tt.jpg","",""
"null","../img/gs/1006gs.jpg","null","reveal","image-keyboard-response","388","2583215","0.0-6.0-4.54","11110270","co38500","norming","","","","","","",""
"null","../img/tt/1006tt.jpg","null","mooney2","image-keyboard-response","389","2585221","0.0-6.0-5.54","11110270","co38500","norming","","","","","","",""
"8194","","","post_reveal_questions","survey-likert","390","2593418","0.0-6.0-6.54","11110270","co38500","norming","","","{""aha"":0}","[0]","../img/tt/1006tt.jpg","",""
"null","<div style=""font-size:60px;""> </div>","null","fixation","html-keyboard-response","391","2593626","0.0-6.0-0.55","11110270","co38500","norming","","","","","","",""
"null","../img/tt/094tt.jpg","null","mooney1","image-keyboard-response","392","2596627","0.0-6.0-1.55","11110270","co38500","norming","","","","","","",""
"38359","","","post_mooney1_questions","survey-likert","393","2634991","0.0-6.0-2.55","11110270","co38500","norming","","","{""curiosity"":5,""confidence"":0}","[0,1]","../img/tt/094tt.jpg","",""
"9178","","","recognition","survey-text","394","2644176","0.0-6.0-3.55","11110270","co38500","norming","","","{""guess"":""wild dier ""}","","../img/tt/094tt.jpg","",""
"null","../img/gs/094gs.jpg","null","reveal","image-keyboard-response","395","2646182","0.0-6.0-4.55","11110270","co38500","norming","","","","","","",""
"null","../img/tt/094tt.jpg","null","mooney2","image-keyboard-response","396","2648196","0.0-6.0-5.55","11110270","co38500","norming","","","","","","",""
"4425","","","post_reveal_questions","survey-likert","397","2652626","0.0-6.0-6.55","11110270","co38500","norming","","","{""aha"":2}","[0]","../img/tt/094tt.jpg","",""
"null","<div style=""font-size:60px;""> </div>","null","fixation","html-keyboard-response","398","2652837","0.0-6.0-0.56","11110270","co38500","norming","","","","","","",""
"null","../img/tt/1161tt.jpg","null","mooney1","image-keyboard-response","399","2655854","0.0-6.0-1.56","11110270","co38500","norming","","","","","","",""
"4882","","","post_mooney1_questions","survey-likert","400","2660741","0.0-6.0-2.56","11110270","co38500","norming","","","{""curiosity"":5,""confidence"":4}","[0,1]","../img/tt/1161tt.jpg","",""
"3331","","","recognition","survey-text","401","2664078","0.0-6.0-3.56","11110270","co38500","norming","","","{""guess"":""klimmer ""}","","../img/tt/1161tt.jpg","",""
"null","../img/gs/1161gs.jpg","null","reveal","image-keyboard-response","402","2666089","0.0-6.0-4.56","11110270","co38500","norming","","","","","","",""
"null","../img/tt/1161tt.jpg","null","mooney2","image-keyboard-response","403","2668104","0.0-6.0-5.56","11110270","co38500","norming","","","","","","",""
"4464","","","post_reveal_questions","survey-likert","404","2672572","0.0-6.0-6.56","11110270","co38500","norming","","","{""aha"":0}","[0]","../img/tt/1161tt.jpg","",""
"null","<div style=""font-size:60px;""> </div>","null","fixation","html-keyboard-response","405","2672777","0.0-6.0-0.57","11110270","co38500","norming","","","","","","",""
"null","../img/tt/056tt.jpg","null","mooney1","image-keyboard-response","406","2675793","0.0-6.0-1.57","11110270","co38500","norming","","","","","","",""
"13067","","","post_mooney1_questions","survey-likert","407","2688864","0.0-6.0-2.57","11110270","co38500","norming","","","{""curiosity"":5,""confidence"":1}","[0,1]","../img/tt/056tt.jpg","",""
"11738","","","recognition","survey-text","408","2700610","0.0-6.0-3.57","11110270","co38500","norming","","","{""guess"":""""}","","../img/tt/056tt.jpg","",""
"null","../img/gs/056gs.jpg","null","reveal","image-keyboard-response","409","2702620","0.0-6.0-4.57","11110270","co38500","norming","","","","","","",""
"null","../img/tt/056tt.jpg","null","mooney2","image-keyboard-response","410","2704636","0.0-6.0-5.57","11110270","co38500","norming","","","","","","",""
"7979","","","post_reveal_questions","survey-likert","411","2712620","0.0-6.0-6.57","11110270","co38500","norming","","","{""aha"":3}","[0]","../img/tt/056tt.jpg","",""
"null","<div style=""font-size:60px;""> </div>","null","fixation","html-keyboard-response","412","2712823","0.0-6.0-0.58","11110270","co38500","norming","","","","","","",""
"null","../img/tt/040tt.jpg","null","mooney1","image-keyboard-response","413","2715838","0.0-6.0-1.58","11110270","co38500","norming","","","","","","",""
"11064","","","post_mooney1_questions","survey-likert","414","2726906","0.0-6.0-2.58","11110270","co38500","norming","","","{""curiosity"":5,""confidence"":1}","[0,1]","../img/tt/040tt.jpg","",""
"4975","","","recognition","survey-text","415","2731888","0.0-6.0-3.58","11110270","co38500","norming","","","{""guess"":""vogel ""}","","../img/tt/040tt.jpg","",""
"null","../img/gs/040gs.jpg","null","reveal","image-keyboard-response","416","2733901","0.0-6.0-4.58","11110270","co38500","norming","","","","","","",""
"null","../img/tt/040tt.jpg","null","mooney2","image-keyboard-response","417","2735917","0.0-6.0-5.58","11110270","co38500","norming","","","","","","",""
"25597","","","post_reveal_questions","survey-likert","418","2761517","0.0-6.0-6.58","11110270","co38500","norming","","","{""aha"":4}","[0]","../img/tt/040tt.jpg","",""
"null","<div style=""font-size:60px;""> </div>","null","fixation","html-keyboard-response","419","2761740","0.0-6.0-0.59","11110270","co38500","norming","","","","","","",""
"null","../img/tt/184tt.jpg","null","mooney1","image-keyboard-response","420","2764761","0.0-6.0-1.59","11110270","co38500","norming","","","","","","",""
"5917","","","post_mooney1_questions","survey-likert","421","2770685","0.0-6.0-2.59","11110270","co38500","norming","","","{""curiosity"":5,""confidence"":1}","[0,1]","../img/tt/184tt.jpg","",""
"10855","","","recognition","survey-text","422","2781548","0.0-6.0-3.59","11110270","co38500","norming","","","{""guess"":""hut ""}","","../img/tt/184tt.jpg","",""
"null","../img/gs/184gs.jpg","null","reveal","image-keyboard-response","423","2783559","0.0-6.0-4.59","11110270","co38500","norming","","","","","","",""
"null","../img/tt/184tt.jpg","null","mooney2","image-keyboard-response","424","2785574","0.0-6.0-5.59","11110270","co38500","norming","","","","","","",""
"5881","","","post_reveal_questions","survey-likert","425","2791459","0.0-6.0-6.59","11110270","co38500","norming","","","{""aha"":4}","[0]","../img/tt/184tt.jpg","",""
"null","<div style=""font-size:60px;""> </div>","null","fixation","html-keyboard-response","426","2791677","0.0-6.0-0.60","11110270","co38500","norming","","","","","","",""
"null","../img/tt/111tt.jpg","null","mooney1","image-keyboard-response","427","2794683","0.0-6.0-1.60","11110270","co38500","norming","","","","","","",""
"14518","","","post_mooney1_questions","survey-likert","428","2809207","0.0-6.0-2.60","11110270","co38500","norming","","","{""curiosity"":3,""confidence"":3}","[0,1]","../img/tt/111tt.jpg","",""
"6203","","","recognition","survey-text","429","2815424","0.0-6.0-3.60","11110270","co38500","norming","","","{""guess"":""frisdrank""}","","../img/tt/111tt.jpg","",""
"null","../img/gs/111gs.jpg","null","reveal","image-keyboard-response","430","2817433","0.0-6.0-4.60","11110270","co38500","norming","","","","","","",""
"null","../img/tt/111tt.jpg","null","mooney2","image-keyboard-response","431","2819440","0.0-6.0-5.60","11110270","co38500","norming","","","","","","",""
"6625","","","post_reveal_questions","survey-likert","432","2826070","0.0-6.0-6.60","11110270","co38500","norming","","","{""aha"":4}","[0]","../img/tt/111tt.jpg","",""
"null","<div style=""font-size:60px;""> </div>","null","fixation","html-keyboard-response","433","2826276","0.0-6.0-0.61","11110270","co38500","norming","","","","","","",""
"null","../img/tt/1226tt.jpg","null","mooney1","image-keyboard-response","434","2829283","0.0-6.0-1.61","11110270","co38500","norming","","","","","","",""
"8780","","","post_mooney1_questions","survey-likert","435","2838067","0.0-6.0-2.61","11110270","co38500","norming","","","{""curiosity"":3,""confidence"":3}","[0,1]","../img/tt/1226tt.jpg","",""
"3862","","","recognition","survey-text","436","2841936","0.0-6.0-3.61","11110270","co38500","norming","","","{""guess"":""vogel""}","","../img/tt/1226tt.jpg","",""
"null","../img/gs/1226gs.jpg","null","reveal","image-keyboard-response","437","2843945","0.0-6.0-4.61","11110270","co38500","norming","","","","","","",""
"null","../img/tt/1226tt.jpg","null","mooney2","image-keyboard-response","438","2845964","0.0-6.0-5.61","11110270","co38500","norming","","","","","","",""
"14785","","","post_reveal_questions","survey-likert","439","2860758","0.0-6.0-6.61","11110270","co38500","norming","","","{""aha"":4}","[0]","../img/tt/1226tt.jpg","",""
"null","<div style=""font-size:60px;""> </div>","null","fixation","html-keyboard-response","440","2860980","0.0-6.0-0.62","11110270","co38500","norming","","","","","","",""
"null","../img/tt/055tt.jpg","null","mooney1","image-keyboard-response","441","2863998","0.0-6.0-1.62","11110270","co38500","norming","","","","","","",""
"4567","","","post_mooney1_questions","survey-likert","442","2868571","0.0-6.0-2.62","11110270","co38500","norming","","","{""curiosity"":4,""confidence"":3}","[0,1]","../img/tt/055tt.jpg","",""
"2915","","","recognition","survey-text","443","2871495","0.0-6.0-3.62","11110270","co38500","norming","","","{""guess"":""zadel""}","","../img/tt/055tt.jpg","",""
"null","../img/gs/055gs.jpg","null","reveal","image-keyboard-response","444","2873511","0.0-6.0-4.62","11110270","co38500","norming","","","","","","",""
"null","../img/tt/055tt.jpg","null","mooney2","image-keyboard-response","445","2875526","0.0-6.0-5.62","11110270","co38500","norming","","","","","","",""
"2470","","","post_reveal_questions","survey-likert","446","2878000","0.0-6.0-6.62","11110270","co38500","norming","","","{""aha"":3}","[0]","../img/tt/055tt.jpg","",""
"null","<div style=""font-size:60px;""> </div>","null","fixation","html-keyboard-response","447","2878211","0.0-6.0-0.63","11110270","co38500","norming","","","","","","",""
"null","../img/tt/1151tt.jpg","null","mooney1","image-keyboard-response","448","2881215","0.0-6.0-1.63","11110270","co38500","norming","","","","","","",""
"13915","","","post_mooney1_questions","survey-likert","449","2895138","0.0-6.0-2.63","11110270","co38500","norming","","","{""curiosity"":4,""confidence"":2}","[0,1]","../img/tt/1151tt.jpg","",""
"4128","","","recognition","survey-text","450","2899279","0.0-6.0-3.63","11110270","co38500","norming","","","{""guess"":""lawine""}","","../img/tt/1151tt.jpg","",""
"null","../img/gs/1151gs.jpg","null","reveal","image-keyboard-response","451","2901293","0.0-6.0-4.63","11110270","co38500","norming","","","","","","",""
"null","../img/tt/1151tt.jpg","null","mooney2","image-keyboard-response","452","2903308","0.0-6.0-5.63","11110270","co38500","norming","","","","","","",""
"6114","","","post_reveal_questions","survey-likert","453","2909428","0.0-6.0-6.63","11110270","co38500","norming","","","{""aha"":4}","[0]","../img/tt/1151tt.jpg","",""
"null","<div style=""font-size:60px;""> </div>","null","fixation","html-keyboard-response","454","2909652","0.0-6.0-0.64","11110270","co38500","norming","","","","","","",""
"null","../img/tt/163tt.jpg","null","mooney1","image-keyboard-response","455","2912667","0.0-6.0-1.64","11110270","co38500","norming","","","","","","",""
"23962","","","post_mooney1_questions","survey-likert","456","2936638","0.0-6.0-2.64","11110270","co38500","norming","","","{""curiosity"":4,""confidence"":2}","[0,1]","../img/tt/163tt.jpg","",""
"4483","","","recognition","survey-text","457","2941129","0.0-6.0-3.64","11110270","co38500","norming","","","{""guess"":""paraplu""}","","../img/tt/163tt.jpg","",""
"null","../img/gs/163gs.jpg","null","reveal","image-keyboard-response","458","2943137","0.0-6.0-4.64","11110270","co38500","norming","","","","","","",""
"null","../img/tt/163tt.jpg","null","mooney2","image-keyboard-response","459","2945145","0.0-6.0-5.64","11110270","co38500","norming","","","","","","",""
"6504","","","post_reveal_questions","survey-likert","460","2951654","0.0-6.0-6.64","11110270","co38500","norming","","","{""aha"":4}","[0]","../img/tt/163tt.jpg","",""
"null","<div style=""font-size:60px;""> </div>","null","fixation","html-keyboard-response","461","2951865","0.0-6.0-0.65","11110270","co38500","norming","","","","","","",""
"null","../img/tt/1205tt.jpg","null","mooney1","image-keyboard-response","462","2954868","0.0-6.0-1.65","11110270","co38500","norming","","","","","","",""
"46993","","","post_mooney1_questions","survey-likert","463","3001867","0.0-6.0-2.65","11110270","co38500","norming","","","{""curiosity"":3,""confidence"":1}","[0,1]","../img/tt/1205tt.jpg","",""
"3614","","","recognition","survey-text","464","3005488","0.0-6.0-3.65","11110270","co38500","norming","","","{""guess"":""uier""}","","../img/tt/1205tt.jpg","",""
"null","../img/gs/1205gs.jpg","null","reveal","image-keyboard-response","465","3007494","0.0-6.0-4.65","11110270","co38500","norming","","","","","","",""
"null","../img/tt/1205tt.jpg","null","mooney2","image-keyboard-response","466","3009510","0.0-6.0-5.65","11110270","co38500","norming","","","","","","",""
"16134","","","post_reveal_questions","survey-likert","467","3025647","0.0-6.0-6.65","11110270","co38500","norming","","","{""aha"":6}","[0]","../img/tt/1205tt.jpg","",""
"null","<div style=""font-size:60px;""> </div>","null","fixation","html-keyboard-response","468","3025854","0.0-6.0-0.66","11110270","co38500","norming","","","","","","",""
"null","../img/tt/118tt.jpg","null","mooney1","image-keyboard-response","469","3028871","0.0-6.0-1.66","11110270","co38500","norming","","","","","","",""
"15498","","","post_mooney1_questions","survey-likert","470","3044374","0.0-6.0-2.66","11110270","co38500","norming","","","{""curiosity"":4,""confidence"":1}","[0,1]","../img/tt/118tt.jpg","",""
"9334","","","recognition","survey-text","471","3053715","0.0-6.0-3.66","11110270","co38500","norming","","","{""guess"":""trap""}","","../img/tt/118tt.jpg","",""
"null","../img/gs/118gs.jpg","null","reveal","image-keyboard-response","472","3055730","0.0-6.0-4.66","11110270","co38500","norming","","","","","","",""
"null","../img/tt/118tt.jpg","null","mooney2","image-keyboard-response","473","3057745","0.0-6.0-5.66","11110270","co38500","norming","","","","","","",""
"15563","","","post_reveal_questions","survey-likert","474","3073311","0.0-6.0-6.66","11110270","co38500","norming","","","{""aha"":6}","[0]","../img/tt/118tt.jpg","",""
"null","<div style=""font-size:60px;""> </div>","null","fixation","html-keyboard-response","475","3073525","0.0-6.0-0.67","11110270","co38500","norming","","","","","","",""
"null","../img/tt/1247tt.jpg","null","mooney1","image-keyboard-response","476","3076543","0.0-6.0-1.67","11110270","co38500","norming","","","","","","",""
"10030","","","post_mooney1_questions","survey-likert","477","3086578","0.0-6.0-2.67","11110270","co38500","norming","","","{""curiosity"":6,""confidence"":0}","[0,1]","../img/tt/1247tt.jpg","",""
"2444","","","recognition","survey-text","478","3089028","0.0-6.0-3.67","11110270","co38500","norming","","","{""guess"":""""}","","../img/tt/1247tt.jpg","",""
"null","../img/gs/1247gs.jpg","null","reveal","image-keyboard-response","479","3091034","0.0-6.0-4.67","11110270","co38500","norming","","","","","","",""
"null","../img/tt/1247tt.jpg","null","mooney2","image-keyboard-response","480","3093041","0.0-6.0-5.67","11110270","co38500","norming","","","","","","",""
"5309","","","post_reveal_questions","survey-likert","481","3098353","0.0-6.0-6.67","11110270","co38500","norming","","","{""aha"":5}","[0]","../img/tt/1247tt.jpg","",""
"null","<div style=""font-size:60px;""> </div>","null","fixation","html-keyboard-response","482","3098567","0.0-6.0-0.68","11110270","co38500","norming","","","","","","",""
"null","../img/tt/079tt.jpg","null","mooney1","image-keyboard-response","483","3101586","0.0-6.0-1.68","11110270","co38500","norming","","","","","","",""
"7917","","","post_mooney1_questions","survey-likert","484","3109515","0.0-6.0-2.68","11110270","co38500","norming","","","{""curiosity"":4,""confidence"":4}","[0,1]","../img/tt/079tt.jpg","",""
"3439","","","recognition","survey-text","485","3112966","0.0-6.0-3.68","11110270","co38500","norming","","","{""guess"":""beer""}","","../img/tt/079tt.jpg","",""
"null","../img/gs/079gs.jpg","null","reveal","image-keyboard-response","486","3114979","0.0-6.0-4.68","11110270","co38500","norming","","","","","","",""
"null","../img/tt/079tt.jpg","null","mooney2","image-keyboard-response","487","3116989","0.0-6.0-5.68","11110270","co38500","norming","","","","","","",""
"4029","","","post_reveal_questions","survey-likert","488","3121024","0.0-6.0-6.68","11110270","co38500","norming","","","{""aha"":3}","[0]","../img/tt/079tt.jpg","",""
"null","<div style=""font-size:60px;""> </div>","null","fixation","html-keyboard-response","489","3121231","0.0-6.0-0.69","11110270","co38500","norming","","","","","","",""
"null","../img/tt/598tt.jpg","null","mooney1","image-keyboard-response","490","3124238","0.0-6.0-1.69","11110270","co38500","norming","","","","","","",""
"16141","","","post_mooney1_questions","survey-likert","491","3140384","0.0-6.0-2.69","11110270","co38500","norming","","","{""curiosity"":6,""confidence"":2}","[0,1]","../img/tt/598tt.jpg","",""
"748","","","recognition","survey-text","492","3141138","0.0-6.0-3.69","11110270","co38500","norming","","","{""guess"":""""}","","../img/tt/598tt.jpg","",""
"null","../img/gs/598gs.jpg","null","reveal","image-keyboard-response","493","3143152","0.0-6.0-4.69","11110270","co38500","norming","","","","","","",""
"null","../img/tt/598tt.jpg","null","mooney2","image-keyboard-response","494","3145156","0.0-6.0-5.69","11110270","co38500","norming","","","","","","",""
"4227","","","post_reveal_questions","survey-likert","495","3149388","0.0-6.0-6.69","11110270","co38500","norming","","","{""aha"":6}","[0]","../img/tt/598tt.jpg","",""
"null","<div style=""font-size:60px;""> </div>","null","fixation","html-keyboard-response","496","3149599","0.0-6.0-0.70","11110270","co38500","norming","","","","","","",""
"null","../img/tt/1211tt.jpg","null","mooney1","image-keyboard-response","497","3152605","0.0-6.0-1.70","11110270","co38500","norming","","","","","","",""
"14938","","","post_mooney1_questions","survey-likert","498","3167548","0.0-6.0-2.70","11110270","co38500","norming","","","{""curiosity"":5,""confidence"":1}","[0,1]","../img/tt/1211tt.jpg","",""
"1225","","","recognition","survey-text","499","3168785","0.0-6.0-3.70","11110270","co38500","norming","","","{""guess"":""""}","","../img/tt/1211tt.jpg","",""
"null","../img/gs/1211gs.jpg","null","reveal","image-keyboard-response","500","3170801","0.0-6.0-4.70","11110270","co38500","norming","","","","","","",""
"null","../img/tt/1211tt.jpg","null","mooney2","image-keyboard-response","501","3172807","0.0-6.0-5.70","11110270","co38500","norming","","","","","","",""
"5516","","","post_reveal_questions","survey-likert","502","3178328","0.0-6.0-6.70","11110270","co38500","norming","","","{""aha"":6}","[0]","../img/tt/1211tt.jpg","",""
"null","<div style=""font-size:60px;""> </div>","null","fixation","html-keyboard-response","503","3178537","0.0-6.0-0.71","11110270","co38500","norming","","","","","","",""
"null","../img/tt/436tt.jpg","null","mooney1","image-keyboard-response","504","3181553","0.0-6.0-1.71","11110270","co38500","norming","","","","","","",""
"24913","","","post_mooney1_questions","survey-likert","505","3206472","0.0-6.0-2.71","11110270","co38500","norming","","","{""curiosity"":5,""confidence"":3}","[0,1]","../img/tt/436tt.jpg","",""
"5730","","","recognition","survey-text","506","3212212","0.0-6.0-3.71","11110270","co38500","norming","","","{""guess"":""baby""}","","../img/tt/436tt.jpg","",""
"null","../img/gs/436gs.jpg","null","reveal","image-keyboard-response","507","3214230","0.0-6.0-4.71","11110270","co38500","norming","","","","","","",""
"null","../img/tt/436tt.jpg","null","mooney2","image-keyboard-response","508","3216242","0.0-6.0-5.71","11110270","co38500","norming","","","","","","",""
"5566","","","post_reveal_questions","survey-likert","509","3221813","0.0-6.0-6.71","11110270","co38500","norming","","","{""aha"":6}","[0]","../img/tt/436tt.jpg","",""
"null","<div style=""font-size:60px;""> </div>","null","fixation","html-keyboard-response","510","3222021","0.0-6.0-0.72","11110270","co38500","norming","","","","","","",""
"null","../img/tt/1097tt.jpg","null","mooney1","image-keyboard-response","511","3225027","0.0-6.0-1.72","11110270","co38500","norming","","","","","","",""
"12320","","","post_mooney1_questions","survey-likert","512","3237354","0.0-6.0-2.72","11110270","co38500","norming","","","{""curiosity"":4,""confidence"":3}","[0,1]","../img/tt/1097tt.jpg","",""
"9602","","","recognition","survey-text","513","3246962","0.0-6.0-3.72","11110270","co38500","norming","","","{""guess"":""wandelaar""}","","../img/tt/1097tt.jpg","",""
"null","../img/gs/1097gs.jpg","null","reveal","image-keyboard-response","514","3248976","0.0-6.0-4.72","11110270","co38500","norming","","","","","","",""
"null","../img/tt/1097tt.jpg","null","mooney2","image-keyboard-response","515","3250980","0.0-6.0-5.72","11110270","co38500","norming","","","","","","",""
"5168","","","post_reveal_questions","survey-likert","516","3256150","0.0-6.0-6.72","11110270","co38500","norming","","","{""aha"":5}","[0]","../img/tt/1097tt.jpg","",""
"null","<div style=""font-size:60px;""> </div>","null","fixation","html-keyboard-response","517","3256369","0.0-6.0-0.73","11110270","co38500","norming","","","","","","",""
"null","../img/tt/1241tt.jpg","null","mooney1","image-keyboard-response","518","3259386","0.0-6.0-1.73","11110270","co38500","norming","","","","","","",""
"22972","","","post_mooney1_questions","survey-likert","519","3282365","0.0-6.0-2.73","11110270","co38500","norming","","","{""curiosity"":3,""confidence"":3}","[0,1]","../img/tt/1241tt.jpg","",""
"6651","","","recognition","survey-text","520","3289029","0.0-6.0-3.73","11110270","co38500","norming","","","{""guess"":""wild dier""}","","../img/tt/1241tt.jpg","",""
"null","../img/gs/1241gs.jpg","null","reveal","image-keyboard-response","521","3291042","0.0-6.0-4.73","11110270","co38500","norming","","","","","","",""
"null","../img/tt/1241tt.jpg","null","mooney2","image-keyboard-response","522","3293056","0.0-6.0-5.73","11110270","co38500","norming","","","","","","",""
"2991","","","post_reveal_questions","survey-likert","523","3296051","0.0-6.0-6.73","11110270","co38500","norming","","","{""aha"":3}","[0]","../img/tt/1241tt.jpg","",""
"null","<div style=""font-size:60px;""> </div>","null","fixation","html-keyboard-response","524","3296255","0.0-6.0-0.74","11110270","co38500","norming","","","","","","",""
"null","../img/tt/1217tt.jpg","null","mooney1","image-keyboard-response","525","3299264","0.0-6.0-1.74","11110270","co38500","norming","","","","","","",""
"15545","","","post_mooney1_questions","survey-likert","526","3314813","0.0-6.0-2.74","11110270","co38500","norming","","","{""curiosity"":4,""confidence"":4}","[0,1]","../img/tt/1217tt.jpg","",""
"6061","","","recognition","survey-text","527","3320882","0.0-6.0-3.74","11110270","co38500","norming","","","{""guess"":""voetballers""}","","../img/tt/1217tt.jpg","",""
"null","../img/gs/1217gs.jpg","null","reveal","image-keyboard-response","528","3322902","0.0-6.0-4.74","11110270","co38500","norming","","","","","","",""
"null","../img/tt/1217tt.jpg","null","mooney2","image-keyboard-response","529","3324917","0.0-6.0-5.74","11110270","co38500","norming","","","","","","",""
"5578","","","post_reveal_questions","survey-likert","530","3330504","0.0-6.0-6.74","11110270","co38500","norming","","","{""aha"":4}","[0]","../img/tt/1217tt.jpg","",""
"null","<div style=""font-size:60px;""> </div>","null","fixation","html-keyboard-response","531","3330712","0.0-6.0-0.75","11110270","co38500","norming","","","","","","",""
"null","../img/tt/1125tt.jpg","null","mooney1","image-keyboard-response","532","3333729","0.0-6.0-1.75","11110270","co38500","norming","","","","","","",""
"38639","","","post_mooney1_questions","survey-likert","533","3372373","0.0-6.0-2.75","11110270","co38500","norming","","","{""curiosity"":3,""confidence"":3}","[0,1]","../img/tt/1125tt.jpg","",""
"3072","","","recognition","survey-text","534","3375454","0.0-6.0-3.75","11110270","co38500","norming","","","{""guess"":""jager""}","","../img/tt/1125tt.jpg","",""
"null","../img/gs/1125gs.jpg","null","reveal","image-keyboard-response","535","3377460","0.0-6.0-4.75","11110270","co38500","norming","","","","","","",""
"null","../img/tt/1125tt.jpg","null","mooney2","image-keyboard-response","536","3379478","0.0-6.0-5.75","11110270","co38500","norming","","","","","","",""
"2926","","","post_reveal_questions","survey-likert","537","3382409","0.0-6.0-6.75","11110270","co38500","norming","","","{""aha"":4}","[0]","../img/tt/1125tt.jpg","",""
"null","<div style=""font-size:60px;""> </div>","null","fixation","html-keyboard-response","538","3382620","0.0-6.0-0.76","11110270","co38500","norming","","","","","","",""
"null","../img/tt/1283tt.jpg","null","mooney1","image-keyboard-response","539","3385636","0.0-6.0-1.76","11110270","co38500","norming","","","","","","",""
"90768","","","post_mooney1_questions","survey-likert","540","3476412","0.0-6.0-2.76","11110270","co38500","norming","","","{""curiosity"":4,""confidence"":1}","[0,1]","../img/tt/1283tt.jpg","",""
"4353","","","recognition","survey-text","541","3480775","0.0-6.0-3.76","11110270","co38500","norming","","","{""guess"":""vos""}","","../img/tt/1283tt.jpg","",""
"null","../img/gs/1283gs.jpg","null","reveal","image-keyboard-response","542","3482793","0.0-6.0-4.76","11110270","co38500","norming","","","","","","",""
"null","../img/tt/1283tt.jpg","null","mooney2","image-keyboard-response","543","3484807","0.0-6.0-5.76","11110270","co38500","norming","","","","","","",""
"6499","","","post_reveal_questions","survey-likert","544","3491310","0.0-6.0-6.76","11110270","co38500","norming","","","{""aha"":4}","[0]","../img/tt/1283tt.jpg","",""
"null","<div style=""font-size:60px;""> </div>","null","fixation","html-keyboard-response","545","3491522","0.0-6.0-0.77","11110270","co38500","norming","","","","","","",""
"null","../img/tt/091tt.jpg","null","mooney1","image-keyboard-response","546","3494525","0.0-6.0-1.77","11110270","co38500","norming","","","","","","",""
"13424","","","post_mooney1_questions","survey-likert","547","3507953","0.0-6.0-2.77","11110270","co38500","norming","","","{""curiosity"":4,""confidence"":3}","[0,1]","../img/tt/091tt.jpg","",""
"20898","","","recognition","survey-text","548","3528859","0.0-6.0-3.77","11110270","co38500","norming","","","{""guess"":""hagedis""}","","../img/tt/091tt.jpg","",""
"null","../img/gs/091gs.jpg","null","reveal","image-keyboard-response","549","3530871","0.0-6.0-4.77","11110270","co38500","norming","","","","","","",""
"null","../img/tt/091tt.jpg","null","mooney2","image-keyboard-response","550","3532891","0.0-6.0-5.77","11110270","co38500","norming","","","","","","",""
"7694","","","post_reveal_questions","survey-likert","551","3540592","0.0-6.0-6.77","11110270","co38500","norming","","","{""aha"":4}","[0]","../img/tt/091tt.jpg","",""
"null","<div style=""font-size:60px;""> </div>","null","fixation","html-keyboard-response","552","3540807","0.0-6.0-0.78","11110270","co38500","norming","","","","","","",""
"null","../img/tt/603tt.jpg","null","mooney1","image-keyboard-response","553","3543823","0.0-6.0-1.78","11110270","co38500","norming","","","","","","",""
"29768","","","post_mooney1_questions","survey-likert","554","3573596","0.0-6.0-2.78","11110270","co38500","norming","","","{""curiosity"":6,""confidence"":1}","[0,1]","../img/tt/603tt.jpg","",""
"3562","","","recognition","survey-text","555","3577167","0.0-6.0-3.78","11110270","co38500","norming","","","{""guess"":""""}","","../img/tt/603tt.jpg","",""
"null","../img/gs/603gs.jpg","null","reveal","image-keyboard-response","556","3579181","0.0-6.0-4.78","11110270","co38500","norming","","","","","","",""
"null","../img/tt/603tt.jpg","null","mooney2","image-keyboard-response","557","3581193","0.0-6.0-5.78","11110270","co38500","norming","","","","","","",""
"10789","","","post_reveal_questions","survey-likert","558","3591991","0.0-6.0-6.78","11110270","co38500","norming","","","{""aha"":3}","[0]","../img/tt/603tt.jpg","",""
"null","<div style=""font-size:60px;""> </div>","null","fixation","html-keyboard-response","559","3592210","0.0-6.0-0.79","11110270","co38500","norming","","","","","","",""
"null","../img/tt/522tt.jpg","null","mooney1","image-keyboard-response","560","3595232","0.0-6.0-1.79","11110270","co38500","norming","","","","","","",""
"14234","","","post_mooney1_questions","survey-likert","561","3609475","0.0-6.0-2.79","11110270","co38500","norming","","","{""curiosity"":6,""confidence"":0}","[0,1]","../img/tt/522tt.jpg","",""
"74045","","","recognition","survey-text","562","3683527","0.0-6.0-3.79","11110270","co38500","norming","","","{""guess"":""dier""}","","../img/tt/522tt.jpg","",""
"null","../img/gs/522gs.jpg","null","reveal","image-keyboard-response","563","3685543","0.0-6.0-4.79","11110270","co38500","norming","","","","","","",""
"null","../img/tt/522tt.jpg","null","mooney2","image-keyboard-response","564","3687558","0.0-6.0-5.79","11110270","co38500","norming","","","","","","",""
"2847","","","post_reveal_questions","survey-likert","565","3690408","0.0-6.0-6.79","11110270","co38500","norming","","","{""aha"":3}","[0]","../img/tt/522tt.jpg","",""
