"rt","stimulus","key_press","test_part","trial_type","trial_index","time_elapsed","internal_node_id","totalTime","subject","experiment_name","button_pressed","success","responses","question_order","currentStim","old","correct"
"4445.199999987381","Welcome to the experiment. This is an online experiment so please don't close the tab/window until we say goodbye.  Press any key to begin.","32","instructions","html-keyboard-response","0","4460","0.0-0.0","2567649","co38677","norming","","","","","","",""
"57994.565000000875","<div style='word-wrap: break-word; width: 900px'><h3>Please consider this information carefully before deciding whether to participate in this research</h3><ul style='text-align: left; font-size: .8em;'><li><b>Purpose of the research</b>: To examine how people process images.</li><li><b>What you will do in this research</b>:  Stimuli (images) will be presented on the computer and you will be asked different questions about them.</li><li><b>Time required</b>: Participation will take between 45 and 60 minutes to complete.</li><li><b>Risks</b>:  There are no anticipated risks associated with participating in this study. The effects of participating should be comparable to those you would experience from viewing a computer monitor for 30 minutes and using a mouse or keyboard.</li><li><b>Benefits</b>:  This study provides no benefits to you individually except for the credit. The study provides important information about the nature of perception and learning.</li><li><b>Confidentiality</b>:  Your participation in this study will remain confidential. No personally identifiable information will be associated with your data. Your de-identified data may be shared with other researchers and used in future projects.</li><li><b>Participation and withdrawal</b>:  Your participation in this study is completely voluntary and you may refuse to participate or you may choose to withdraw at any time without penalty.</li><li><b>How to contact the researchers</b>: If you have questions or concerns about your participation or payment, or want to request a summary of research findings, please contact Sander Van de Cruys (KU Leuven), at sander.vandecruys@kuleuven.be.</li></ul><p>The nature and purpose of this research have been sufficiently explained and I agree to participate in this study.  I understand that I am free to withdraw at any time without incurring any penalty.</p><p>Please consent by clicking the button below to continue. Otherwise, please exit the study at this time.</p></div>","","instructions","html-button-response","1","62460","0.0-1.0","2567649","co38677","norming","0","","","","","",""
"","","","instructions","fullscreen","2","67608","0.0-2.0","2567649","co38677","norming","","true","","","","",""
"18472.16999999364","","","sona","survey-html-form","3","86086","0.0-3.0","2567649","co38677","norming","","","[{""name"":""sonaid"",""value"":""38677""},{""name"":""debrief"",""value"":""yes""},{""name"":""datajoin"",""value"":""yes""}]","","","",""
"66247.22999997903","<div style='word-wrap: break-word; width: 900px'><h3>Instructions</h3><p>This experiment will have 3 parts. In the first part you will see a series of distorted images like the one below on the left. As you can see in the righthand image, the distorted images are derived from actual photographs. In what follows, you will <strong>briefly</strong> be presented with <strong>only</strong> the distorted image.</p> <div style='float: left; margin-right: 20px;'><img src='../img/018tt.jpg' height='250' width='250'></img></div><div style='float: right; margin-left: 20px;'><img src='../img/018gs.jpg' height='250' width='250'></img></div><p>Subsequently you will be asked a few questions about the image: One question on how <strong>curious</strong> you are about the solution and one on how <strong>confident</strong> you are that you know the solution.</p>Next, we ask you to make a guess on what is in the image. Note that it is OK to name just the <strong>basic level category</strong>. For example when you see a parrot in the image, 'parrot' will obviously be a correct answer but also correct is 'bird'. However, 'animal' will <strong>not</strong> be counted as a correct response. For the example above, 'rose' would be correct or 'flower', but not 'plant'. When soccer players are depicted, 'soccer', 'football', 'soccer players' will be correct, but not 'humans', 'outdoors', or 'sports'. You do not need to describe the image in full, just name the main object in it <strong>in one or two words</strong>. All images depict objects from one of the following broad level categories: animals, inanimate objects, plants, sports, vehicles, and food. Recognizing means knowing <strong>more</strong> than these broad labels for a given image. But we always encourage you to <strong>make a guess</strong> if you can. Note that you are allowed to use <strong>Dutch and English</strong> in your answers, whatever comes easiest for you.</p><p>Press any key to continue.</p></div>","32","instructions","html-keyboard-response","4","152337","0.0-4.0","2567649","co38677","norming","","","","","","",""
"15129.545000003418","<div style='word-wrap: break-word; width: 900px'><h3>Instructions</h3> <p>Next, the solution image will be revealed to you and you'll be asked to indicate how strong your <strong>aha-experience</strong> was after seeing the solution. This describes the positive feeling of the 'click' you sometimes experience, when the pieces of the 'puzzle' fall together and you suddenly have 'insight' in the image.</p><img src='aha.jpg' height='188' width='250'></img><p>Note that there are no right or wrong answers. We are interested in what <strong>you</strong> see in the image and how <strong>you</strong> feel about it.</p><p>Press any key to start the experiment.</p></div>","32","instructions","html-keyboard-response","5","167467","0.0-5.0","2567649","co38677","norming","","","","","","",""
"null","<div style=""font-size:60px;""> </div>","null","fixation","html-keyboard-response","6","167669","0.0-6.0-0.0","2567649","co38677","norming","","","","","","",""
"null","../img/tt/108tt.jpg","null","mooney1","image-keyboard-response","7","170672","0.0-6.0-1.0","2567649","co38677","norming","","","","","","",""
"10145.714999991469","","","post_mooney1_questions","survey-likert","8","180820","0.0-6.0-2.0","2567649","co38677","norming","","","{""curiosity"":3,""confidence"":0}","[0,1]","../img/tt/108tt.jpg","",""
"5636.884999985341","","","recognition","survey-text","9","186462","0.0-6.0-3.0","2567649","co38677","norming","","","{""guess"":""""}","","../img/tt/108tt.jpg","",""
"null","../img/gs/108gs.jpg","null","reveal","image-keyboard-response","10","188465","0.0-6.0-4.0","2567649","co38677","norming","","","","","","",""
"null","../img/tt/108tt.jpg","null","mooney2","image-keyboard-response","11","190466","0.0-6.0-5.0","2567649","co38677","norming","","","","","","",""
"4739.689999987604","","","post_reveal_questions","survey-likert","12","195207","0.0-6.0-6.0","2567649","co38677","norming","","","{""aha"":4}","[0]","../img/tt/108tt.jpg","",""
"null","<div style=""font-size:60px;""> </div>","null","fixation","html-keyboard-response","13","195410","0.0-6.0-0.1","2567649","co38677","norming","","","","","","",""
"null","../img/tt/1262tt.jpg","null","mooney1","image-keyboard-response","14","198412","0.0-6.0-1.1","2567649","co38677","norming","","","","","","",""
"7166.259999998147","","","post_mooney1_questions","survey-likert","15","205581","0.0-6.0-2.1","2567649","co38677","norming","","","{""curiosity"":4,""confidence"":0}","[0,1]","../img/tt/1262tt.jpg","",""
"2842.9250000044703","","","recognition","survey-text","16","208427","0.0-6.0-3.1","2567649","co38677","norming","","","{""guess"":""""}","","../img/tt/1262tt.jpg","",""
"null","../img/gs/1262gs.jpg","null","reveal","image-keyboard-response","17","210430","0.0-6.0-4.1","2567649","co38677","norming","","","","","","",""
"null","../img/tt/1262tt.jpg","null","mooney2","image-keyboard-response","18","212431","0.0-6.0-5.1","2567649","co38677","norming","","","","","","",""
"4774.3049999990035","","","post_reveal_questions","survey-likert","19","217207","0.0-6.0-6.1","2567649","co38677","norming","","","{""aha"":1}","[0]","../img/tt/1262tt.jpg","",""
"null","<div style=""font-size:60px;""> </div>","null","fixation","html-keyboard-response","20","217409","0.0-6.0-0.2","2567649","co38677","norming","","","","","","",""
"null","../img/tt/1066tt.jpg","null","mooney1","image-keyboard-response","21","220411","0.0-6.0-1.2","2567649","co38677","norming","","","","","","",""
"6368.39499999769","","","post_mooney1_questions","survey-likert","22","226782","0.0-6.0-2.2","2567649","co38677","norming","","","{""curiosity"":2,""confidence"":4}","[0,1]","../img/tt/1066tt.jpg","",""
"2867.1050000120886","","","recognition","survey-text","23","229653","0.0-6.0-3.2","2567649","co38677","norming","","","{""guess"":""bus""}","","../img/tt/1066tt.jpg","",""
"null","../img/gs/1066gs.jpg","null","reveal","image-keyboard-response","24","231654","0.0-6.0-4.2","2567649","co38677","norming","","","","","","",""
"null","../img/tt/1066tt.jpg","null","mooney2","image-keyboard-response","25","233656","0.0-6.0-5.2","2567649","co38677","norming","","","","","","",""
"4556.465000001481","","","post_reveal_questions","survey-likert","26","238214","0.0-6.0-6.2","2567649","co38677","norming","","","{""aha"":0}","[0]","../img/tt/1066tt.jpg","",""
"null","<div style=""font-size:60px;""> </div>","null","fixation","html-keyboard-response","27","238417","0.0-6.0-0.3","2567649","co38677","norming","","","","","","",""
"null","../img/tt/123tt.jpg","null","mooney1","image-keyboard-response","28","241419","0.0-6.0-1.3","2567649","co38677","norming","","","","","","",""
"6533.129999996163","","","post_mooney1_questions","survey-likert","29","247954","0.0-6.0-2.3","2567649","co38677","norming","","","{""curiosity"":5,""confidence"":3}","[0,1]","../img/tt/123tt.jpg","",""
"3937.3149999883026","","","recognition","survey-text","30","251895","0.0-6.0-3.3","2567649","co38677","norming","","","{""guess"":""printer""}","","../img/tt/123tt.jpg","",""
"null","../img/gs/123gs.jpg","null","reveal","image-keyboard-response","31","253897","0.0-6.0-4.3","2567649","co38677","norming","","","","","","",""
"null","../img/tt/123tt.jpg","null","mooney2","image-keyboard-response","32","255898","0.0-6.0-5.3","2567649","co38677","norming","","","","","","",""
"2774.265000014566","","","post_reveal_questions","survey-likert","33","258674","0.0-6.0-6.3","2567649","co38677","norming","","","{""aha"":4}","[0]","../img/tt/123tt.jpg","",""
"null","<div style=""font-size:60px;""> </div>","null","fixation","html-keyboard-response","34","258876","0.0-6.0-0.4","2567649","co38677","norming","","","","","","",""
"null","../img/tt/1200tt.jpg","null","mooney1","image-keyboard-response","35","261878","0.0-6.0-1.4","2567649","co38677","norming","","","","","","",""
"6262.324999988778","","","post_mooney1_questions","survey-likert","36","268142","0.0-6.0-2.4","2567649","co38677","norming","","","{""curiosity"":3,""confidence"":2}","[0,1]","../img/tt/1200tt.jpg","",""
"4869.61500000325","","","recognition","survey-text","37","273016","0.0-6.0-3.4","2567649","co38677","norming","","","{""guess"":""eenden""}","","../img/tt/1200tt.jpg","",""
"null","../img/gs/1200gs.jpg","null","reveal","image-keyboard-response","38","275018","0.0-6.0-4.4","2567649","co38677","norming","","","","","","",""
"null","../img/tt/1200tt.jpg","null","mooney2","image-keyboard-response","39","277020","0.0-6.0-5.4","2567649","co38677","norming","","","","","","",""
"4920.799999992596","","","post_reveal_questions","survey-likert","40","281942","0.0-6.0-6.4","2567649","co38677","norming","","","{""aha"":2}","[0]","../img/tt/1200tt.jpg","",""
"null","<div style=""font-size:60px;""> </div>","null","fixation","html-keyboard-response","41","282144","0.0-6.0-0.5","2567649","co38677","norming","","","","","","",""
"null","../img/tt/105tt.jpg","null","mooney1","image-keyboard-response","42","285146","0.0-6.0-1.5","2567649","co38677","norming","","","","","","",""
"7332.969999988563","","","post_mooney1_questions","survey-likert","43","292481","0.0-6.0-2.5","2567649","co38677","norming","","","{""curiosity"":1,""confidence"":0}","[0,1]","../img/tt/105tt.jpg","",""
"2828.160000004573","","","recognition","survey-text","44","295313","0.0-6.0-3.5","2567649","co38677","norming","","","{""guess"":""""}","","../img/tt/105tt.jpg","",""
"null","../img/gs/105gs.jpg","null","reveal","image-keyboard-response","45","297316","0.0-6.0-4.5","2567649","co38677","norming","","","","","","",""
"null","../img/tt/105tt.jpg","null","mooney2","image-keyboard-response","46","299317","0.0-6.0-5.5","2567649","co38677","norming","","","","","","",""
"4955.799999996088","","","post_reveal_questions","survey-likert","47","304274","0.0-6.0-6.5","2567649","co38677","norming","","","{""aha"":4}","[0]","../img/tt/105tt.jpg","",""
"null","<div style=""font-size:60px;""> </div>","null","fixation","html-keyboard-response","48","304476","0.0-6.0-0.6","2567649","co38677","norming","","","","","","",""
"null","../img/tt/1278tt.jpg","null","mooney1","image-keyboard-response","49","307478","0.0-6.0-1.6","2567649","co38677","norming","","","","","","",""
"6587.505000003148","","","post_mooney1_questions","survey-likert","50","314067","0.0-6.0-2.6","2567649","co38677","norming","","","{""curiosity"":2,""confidence"":0}","[0,1]","../img/tt/1278tt.jpg","",""
"1309.5200000097975","","","recognition","survey-text","51","315380","0.0-6.0-3.6","2567649","co38677","norming","","","{""guess"":""""}","","../img/tt/1278tt.jpg","",""
"null","../img/gs/1278gs.jpg","null","reveal","image-keyboard-response","52","317382","0.0-6.0-4.6","2567649","co38677","norming","","","","","","",""
"null","../img/tt/1278tt.jpg","null","mooney2","image-keyboard-response","53","319384","0.0-6.0-5.6","2567649","co38677","norming","","","","","","",""
"4335.029999987455","","","post_reveal_questions","survey-likert","54","323721","0.0-6.0-6.6","2567649","co38677","norming","","","{""aha"":3}","[0]","../img/tt/1278tt.jpg","",""
"null","<div style=""font-size:60px;""> </div>","null","fixation","html-keyboard-response","55","323923","0.0-6.0-0.7","2567649","co38677","norming","","","","","","",""
"null","../img/tt/440tt.jpg","null","mooney1","image-keyboard-response","56","326925","0.0-6.0-1.7","2567649","co38677","norming","","","","","","",""
"7004.730000015115","","","post_mooney1_questions","survey-likert","57","333931","0.0-6.0-2.7","2567649","co38677","norming","","","{""curiosity"":2,""confidence"":0}","[0,1]","../img/tt/440tt.jpg","",""
"1853.689999989001","","","recognition","survey-text","58","335788","0.0-6.0-3.7","2567649","co38677","norming","","","{""guess"":""""}","","../img/tt/440tt.jpg","",""
"null","../img/gs/440gs.jpg","null","reveal","image-keyboard-response","59","337790","0.0-6.0-4.7","2567649","co38677","norming","","","","","","",""
"null","../img/tt/440tt.jpg","null","mooney2","image-keyboard-response","60","339791","0.0-6.0-5.7","2567649","co38677","norming","","","","","","",""
"3789.4800000067335","","","post_reveal_questions","survey-likert","61","343582","0.0-6.0-6.7","2567649","co38677","norming","","","{""aha"":2}","[0]","../img/tt/440tt.jpg","",""
"null","<div style=""font-size:60px;""> </div>","null","fixation","html-keyboard-response","62","343784","0.0-6.0-0.8","2567649","co38677","norming","","","","","","",""
"null","../img/tt/1363tt.jpg","null","mooney1","image-keyboard-response","63","346786","0.0-6.0-1.8","2567649","co38677","norming","","","","","","",""
"7844.589999993332","","","post_mooney1_questions","survey-likert","64","354633","0.0-6.0-2.8","2567649","co38677","norming","","","{""curiosity"":0,""confidence"":0}","[0,1]","../img/tt/1363tt.jpg","",""
"1516.8400000256952","","","recognition","survey-text","65","356153","0.0-6.0-3.8","2567649","co38677","norming","","","{""guess"":""""}","","../img/tt/1363tt.jpg","",""
"null","../img/gs/1363gs.jpg","null","reveal","image-keyboard-response","66","358156","0.0-6.0-4.8","2567649","co38677","norming","","","","","","",""
"null","../img/tt/1363tt.jpg","null","mooney2","image-keyboard-response","67","360159","0.0-6.0-5.8","2567649","co38677","norming","","","","","","",""
"3438.129999994999","","","post_reveal_questions","survey-likert","68","363599","0.0-6.0-6.8","2567649","co38677","norming","","","{""aha"":3}","[0]","../img/tt/1363tt.jpg","",""
"null","<div style=""font-size:60px;""> </div>","null","fixation","html-keyboard-response","69","363800","0.0-6.0-0.9","2567649","co38677","norming","","","","","","",""
"null","../img/tt/064tt.jpg","null","mooney1","image-keyboard-response","70","366802","0.0-6.0-1.9","2567649","co38677","norming","","","","","","",""
"7976.935000013327","","","post_mooney1_questions","survey-likert","71","374781","0.0-6.0-2.9","2567649","co38677","norming","","","{""curiosity"":4,""confidence"":2}","[0,1]","../img/tt/064tt.jpg","",""
"3279.4900000153575","","","recognition","survey-text","72","378064","0.0-6.0-3.9","2567649","co38677","norming","","","{""guess"":""slak""}","","../img/tt/064tt.jpg","",""
"null","../img/gs/064gs.jpg","null","reveal","image-keyboard-response","73","380066","0.0-6.0-4.9","2567649","co38677","norming","","","","","","",""
"null","../img/tt/064tt.jpg","null","mooney2","image-keyboard-response","74","382067","0.0-6.0-5.9","2567649","co38677","norming","","","","","","",""
"3248.8350000057835","","","post_reveal_questions","survey-likert","75","385317","0.0-6.0-6.9","2567649","co38677","norming","","","{""aha"":4}","[0]","../img/tt/064tt.jpg","",""
"null","<div style=""font-size:60px;""> </div>","null","fixation","html-keyboard-response","76","385519","0.0-6.0-0.10","2567649","co38677","norming","","","","","","",""
"null","../img/tt/060tt.jpg","null","mooney1","image-keyboard-response","77","388521","0.0-6.0-1.10","2567649","co38677","norming","","","","","","",""
"4643.210000009276","","","post_mooney1_questions","survey-likert","78","393166","0.0-6.0-2.10","2567649","co38677","norming","","","{""curiosity"":4,""confidence"":1}","[0,1]","../img/tt/060tt.jpg","",""
"3869.745000003604","","","recognition","survey-text","79","397041","0.0-6.0-3.10","2567649","co38677","norming","","","{""guess"":""hotdog""}","","../img/tt/060tt.jpg","",""
"null","../img/gs/060gs.jpg","null","reveal","image-keyboard-response","80","399043","0.0-6.0-4.10","2567649","co38677","norming","","","","","","",""
"null","../img/tt/060tt.jpg","null","mooney2","image-keyboard-response","81","401044","0.0-6.0-5.10","2567649","co38677","norming","","","","","","",""
"3548.580000002403","","","post_reveal_questions","survey-likert","82","404594","0.0-6.0-6.10","2567649","co38677","norming","","","{""aha"":4}","[0]","../img/tt/060tt.jpg","",""
"null","<div style=""font-size:60px;""> </div>","null","fixation","html-keyboard-response","83","404797","0.0-6.0-0.11","2567649","co38677","norming","","","","","","",""
"null","../img/tt/082tt.jpg","null","mooney1","image-keyboard-response","84","407799","0.0-6.0-1.11","2567649","co38677","norming","","","","","","",""
"6200.58499998413","","","post_mooney1_questions","survey-likert","85","414002","0.0-6.0-2.11","2567649","co38677","norming","","","{""curiosity"":3,""confidence"":5}","[0,1]","../img/tt/082tt.jpg","",""
"3749.7049999947194","","","recognition","survey-text","86","417755","0.0-6.0-3.11","2567649","co38677","norming","","","{""guess"":""vogel""}","","../img/tt/082tt.jpg","",""
"null","../img/gs/082gs.jpg","null","reveal","image-keyboard-response","87","419758","0.0-6.0-4.11","2567649","co38677","norming","","","","","","",""
"null","../img/tt/082tt.jpg","null","mooney2","image-keyboard-response","88","421759","0.0-6.0-5.11","2567649","co38677","norming","","","","","","",""
"3355.985000001965","","","post_reveal_questions","survey-likert","89","425117","0.0-6.0-6.11","2567649","co38677","norming","","","{""aha"":4}","[0]","../img/tt/082tt.jpg","",""
"null","<div style=""font-size:60px;""> </div>","null","fixation","html-keyboard-response","90","425319","0.0-6.0-0.12","2567649","co38677","norming","","","","","","",""
"null","../img/tt/300tt.jpg","null","mooney1","image-keyboard-response","91","428321","0.0-6.0-1.12","2567649","co38677","norming","","","","","","",""
"4867.44999999064","","","post_mooney1_questions","survey-likert","92","433190","0.0-6.0-2.12","2567649","co38677","norming","","","{""curiosity"":4,""confidence"":2}","[0,1]","../img/tt/300tt.jpg","",""
"3001.3400000170805","","","recognition","survey-text","93","436195","0.0-6.0-3.12","2567649","co38677","norming","","","{""guess"":""aap""}","","../img/tt/300tt.jpg","",""
"null","../img/gs/300gs.jpg","null","reveal","image-keyboard-response","94","438197","0.0-6.0-4.12","2567649","co38677","norming","","","","","","",""
"null","../img/tt/300tt.jpg","null","mooney2","image-keyboard-response","95","440200","0.0-6.0-5.12","2567649","co38677","norming","","","","","","",""
"3563.0050000036135","","","post_reveal_questions","survey-likert","96","443765","0.0-6.0-6.12","2567649","co38677","norming","","","{""aha"":2}","[0]","../img/tt/300tt.jpg","",""
"null","<div style=""font-size:60px;""> </div>","null","fixation","html-keyboard-response","97","443967","0.0-6.0-0.13","2567649","co38677","norming","","","","","","",""
"null","../img/tt/008tt.jpg","null","mooney1","image-keyboard-response","98","446969","0.0-6.0-1.13","2567649","co38677","norming","","","","","","",""
"4950.839999975869","","","post_mooney1_questions","survey-likert","99","451922","0.0-6.0-2.13","2567649","co38677","norming","","","{""curiosity"":1,""confidence"":0}","[0,1]","../img/tt/008tt.jpg","",""
"1449.5999999926426","","","recognition","survey-text","100","453375","0.0-6.0-3.13","2567649","co38677","norming","","","{""guess"":""""}","","../img/tt/008tt.jpg","",""
"null","../img/gs/008gs.jpg","null","reveal","image-keyboard-response","101","455377","0.0-6.0-4.13","2567649","co38677","norming","","","","","","",""
"null","../img/tt/008tt.jpg","null","mooney2","image-keyboard-response","102","457379","0.0-6.0-5.13","2567649","co38677","norming","","","","","","",""
"3851.1299999954645","","","post_reveal_questions","survey-likert","103","461232","0.0-6.0-6.13","2567649","co38677","norming","","","{""aha"":2}","[0]","../img/tt/008tt.jpg","",""
"null","<div style=""font-size:60px;""> </div>","null","fixation","html-keyboard-response","104","461434","0.0-6.0-0.14","2567649","co38677","norming","","","","","","",""
"null","../img/tt/405tt.jpg","null","mooney1","image-keyboard-response","105","464436","0.0-6.0-1.14","2567649","co38677","norming","","","","","","",""
"6224.510000000009","","","post_mooney1_questions","survey-likert","106","470662","0.0-6.0-2.14","2567649","co38677","norming","","","{""curiosity"":3,""confidence"":5}","[0,1]","../img/tt/405tt.jpg","",""
"2970.1700000150595","","","recognition","survey-text","107","473635","0.0-6.0-3.14","2567649","co38677","norming","","","{""guess"":""koala""}","","../img/tt/405tt.jpg","",""
"null","../img/gs/405gs.jpg","null","reveal","image-keyboard-response","108","475638","0.0-6.0-4.14","2567649","co38677","norming","","","","","","",""
"null","../img/tt/405tt.jpg","null","mooney2","image-keyboard-response","109","477639","0.0-6.0-5.14","2567649","co38677","norming","","","","","","",""
"4366.310000012163","","","post_reveal_questions","survey-likert","110","482007","0.0-6.0-6.14","2567649","co38677","norming","","","{""aha"":0}","[0]","../img/tt/405tt.jpg","",""
"null","<div style=""font-size:60px;""> </div>","null","fixation","html-keyboard-response","111","482209","0.0-6.0-0.15","2567649","co38677","norming","","","","","","",""
"null","../img/tt/184tt.jpg","null","mooney1","image-keyboard-response","112","485211","0.0-6.0-1.15","2567649","co38677","norming","","","","","","",""
"5435.635000001639","","","post_mooney1_questions","survey-likert","113","490648","0.0-6.0-2.15","2567649","co38677","norming","","","{""curiosity"":4,""confidence"":4}","[0,1]","../img/tt/184tt.jpg","",""
"3158.0449999892153","","","recognition","survey-text","114","493810","0.0-6.0-3.15","2567649","co38677","norming","","","{""guess"":""taart""}","","../img/tt/184tt.jpg","",""
"null","../img/gs/184gs.jpg","null","reveal","image-keyboard-response","115","495812","0.0-6.0-4.15","2567649","co38677","norming","","","","","","",""
"null","../img/tt/184tt.jpg","null","mooney2","image-keyboard-response","116","497813","0.0-6.0-5.15","2567649","co38677","norming","","","","","","",""
"3208.5300000035204","","","post_reveal_questions","survey-likert","117","501024","0.0-6.0-6.15","2567649","co38677","norming","","","{""aha"":4}","[0]","../img/tt/184tt.jpg","",""
"null","<div style=""font-size:60px;""> </div>","null","fixation","html-keyboard-response","118","501227","0.0-6.0-0.16","2567649","co38677","norming","","","","","","",""
"null","../img/tt/1224tt.jpg","null","mooney1","image-keyboard-response","119","504228","0.0-6.0-1.16","2567649","co38677","norming","","","","","","",""
"7811.37999999919","","","post_mooney1_questions","survey-likert","120","512041","0.0-6.0-2.16","2567649","co38677","norming","","","{""curiosity"":4,""confidence"":2}","[0,1]","../img/tt/1224tt.jpg","",""
"2460.735000000568","","","recognition","survey-text","121","514506","0.0-6.0-3.16","2567649","co38677","norming","","","{""guess"":""man""}","","../img/tt/1224tt.jpg","",""
"null","../img/gs/1224gs.jpg","null","reveal","image-keyboard-response","122","516507","0.0-6.0-4.16","2567649","co38677","norming","","","","","","",""
"null","../img/tt/1224tt.jpg","null","mooney2","image-keyboard-response","123","518509","0.0-6.0-5.16","2567649","co38677","norming","","","","","","",""
"3176.760000002105","","","post_reveal_questions","survey-likert","124","521688","0.0-6.0-6.16","2567649","co38677","norming","","","{""aha"":5}","[0]","../img/tt/1224tt.jpg","",""
"null","<div style=""font-size:60px;""> </div>","null","fixation","html-keyboard-response","125","521890","0.0-6.0-0.17","2567649","co38677","norming","","","","","","",""
"null","../img/tt/084tt.jpg","null","mooney1","image-keyboard-response","126","524891","0.0-6.0-1.17","2567649","co38677","norming","","","","","","",""
"5210.680000018328","","","post_mooney1_questions","survey-likert","127","530104","0.0-6.0-2.17","2567649","co38677","norming","","","{""curiosity"":4,""confidence"":4}","[0,1]","../img/tt/084tt.jpg","",""
"2766.639999987092","","","recognition","survey-text","128","532874","0.0-6.0-3.17","2567649","co38677","norming","","","{""guess"":""eend""}","","../img/tt/084tt.jpg","",""
"null","../img/gs/084gs.jpg","null","reveal","image-keyboard-response","129","534877","0.0-6.0-4.17","2567649","co38677","norming","","","","","","",""
"null","../img/tt/084tt.jpg","null","mooney2","image-keyboard-response","130","536879","0.0-6.0-5.17","2567649","co38677","norming","","","","","","",""
"2182.074999989709","","","post_reveal_questions","survey-likert","131","539062","0.0-6.0-6.17","2567649","co38677","norming","","","{""aha"":4}","[0]","../img/tt/084tt.jpg","",""
"null","<div style=""font-size:60px;""> </div>","null","fixation","html-keyboard-response","132","539264","0.0-6.0-0.18","2567649","co38677","norming","","","","","","",""
"null","../img/tt/1048tt.jpg","null","mooney1","image-keyboard-response","133","542267","0.0-6.0-1.18","2567649","co38677","norming","","","","","","",""
"4614.784999983385","","","post_mooney1_questions","survey-likert","134","546883","0.0-6.0-2.18","2567649","co38677","norming","","","{""curiosity"":4,""confidence"":0}","[0,1]","../img/tt/1048tt.jpg","",""
"1679.8200000193901","","","recognition","survey-text","135","548566","0.0-6.0-3.18","2567649","co38677","norming","","","{""guess"":""""}","","../img/tt/1048tt.jpg","",""
"null","../img/gs/1048gs.jpg","null","reveal","image-keyboard-response","136","550569","0.0-6.0-4.18","2567649","co38677","norming","","","","","","",""
"null","../img/tt/1048tt.jpg","null","mooney2","image-keyboard-response","137","552570","0.0-6.0-5.18","2567649","co38677","norming","","","","","","",""
"3408.4900000016205","","","post_reveal_questions","survey-likert","138","555981","0.0-6.0-6.18","2567649","co38677","norming","","","{""aha"":1}","[0]","../img/tt/1048tt.jpg","",""
"null","<div style=""font-size:60px;""> </div>","null","fixation","html-keyboard-response","139","556183","0.0-6.0-0.19","2567649","co38677","norming","","","","","","",""
"null","../img/tt/1040tt.jpg","null","mooney1","image-keyboard-response","140","559185","0.0-6.0-1.19","2567649","co38677","norming","","","","","","",""
"4645.619999995688","","","post_mooney1_questions","survey-likert","141","563832","0.0-6.0-2.19","2567649","co38677","norming","","","{""curiosity"":4,""confidence"":0}","[0,1]","../img/tt/1040tt.jpg","",""
"1366.165000014007","","","recognition","survey-text","142","565202","0.0-6.0-3.19","2567649","co38677","norming","","","{""guess"":""""}","","../img/tt/1040tt.jpg","",""
"null","../img/gs/1040gs.jpg","null","reveal","image-keyboard-response","143","567204","0.0-6.0-4.19","2567649","co38677","norming","","","","","","",""
"null","../img/tt/1040tt.jpg","null","mooney2","image-keyboard-response","144","569206","0.0-6.0-5.19","2567649","co38677","norming","","","","","","",""
"3001.1349999986123","","","post_reveal_questions","survey-likert","145","572209","0.0-6.0-6.19","2567649","co38677","norming","","","{""aha"":1}","[0]","../img/tt/1040tt.jpg","",""
"null","<div style=""font-size:60px;""> </div>","null","fixation","html-keyboard-response","146","572410","0.0-6.0-0.20","2567649","co38677","norming","","","","","","",""
"null","../img/tt/032tt.jpg","null","mooney1","image-keyboard-response","147","575413","0.0-6.0-1.20","2567649","co38677","norming","","","","","","",""
"5427.624999982072","","","post_mooney1_questions","survey-likert","148","580842","0.0-6.0-2.20","2567649","co38677","norming","","","{""curiosity"":2,""confidence"":0}","[0,1]","../img/tt/032tt.jpg","",""
"1676.630000001751","","","recognition","survey-text","149","582522","0.0-6.0-3.20","2567649","co38677","norming","","","{""guess"":""""}","","../img/tt/032tt.jpg","",""
"null","../img/gs/032gs.jpg","null","reveal","image-keyboard-response","150","584524","0.0-6.0-4.20","2567649","co38677","norming","","","","","","",""
"null","../img/tt/032tt.jpg","null","mooney2","image-keyboard-response","151","586526","0.0-6.0-5.20","2567649","co38677","norming","","","","","","",""
"3075.680000009015","","","post_reveal_questions","survey-likert","152","589604","0.0-6.0-6.20","2567649","co38677","norming","","","{""aha"":5}","[0]","../img/tt/032tt.jpg","",""
"null","<div style=""font-size:60px;""> </div>","null","fixation","html-keyboard-response","153","589805","0.0-6.0-0.21","2567649","co38677","norming","","","","","","",""
"null","../img/tt/001tt.jpg","null","mooney1","image-keyboard-response","154","592807","0.0-6.0-1.21","2567649","co38677","norming","","","","","","",""
"4692.305000004126","","","post_mooney1_questions","survey-likert","155","597501","0.0-6.0-2.21","2567649","co38677","norming","","","{""curiosity"":2,""confidence"":0}","[0,1]","../img/tt/001tt.jpg","",""
"1801.2049999961164","","","recognition","survey-text","156","599306","0.0-6.0-3.21","2567649","co38677","norming","","","{""guess"":""""}","","../img/tt/001tt.jpg","",""
"null","../img/gs/001gs.jpg","null","reveal","image-keyboard-response","157","601307","0.0-6.0-4.21","2567649","co38677","norming","","","","","","",""
"null","../img/tt/001tt.jpg","null","mooney2","image-keyboard-response","158","603309","0.0-6.0-5.21","2567649","co38677","norming","","","","","","",""
"2716.4749999938067","","","post_reveal_questions","survey-likert","159","606027","0.0-6.0-6.21","2567649","co38677","norming","","","{""aha"":5}","[0]","../img/tt/001tt.jpg","",""
"null","<div style=""font-size:60px;""> </div>","null","fixation","html-keyboard-response","160","606229","0.0-6.0-0.22","2567649","co38677","norming","","","","","","",""
"null","../img/tt/094tt.jpg","null","mooney1","image-keyboard-response","161","609231","0.0-6.0-1.22","2567649","co38677","norming","","","","","","",""
"5468.730000022333","","","post_mooney1_questions","survey-likert","162","614702","0.0-6.0-2.22","2567649","co38677","norming","","","{""curiosity"":4,""confidence"":0}","[0,1]","../img/tt/094tt.jpg","",""
"1530.5550000048243","","","recognition","survey-text","163","616236","0.0-6.0-3.22","2567649","co38677","norming","","","{""guess"":""""}","","../img/tt/094tt.jpg","",""
"null","../img/gs/094gs.jpg","null","reveal","image-keyboard-response","164","618237","0.0-6.0-4.22","2567649","co38677","norming","","","","","","",""
"null","../img/tt/094tt.jpg","null","mooney2","image-keyboard-response","165","620239","0.0-6.0-5.22","2567649","co38677","norming","","","","","","",""
"2406.474999996135","","","post_reveal_questions","survey-likert","166","622647","0.0-6.0-6.22","2567649","co38677","norming","","","{""aha"":5}","[0]","../img/tt/094tt.jpg","",""
"null","<div style=""font-size:60px;""> </div>","null","fixation","html-keyboard-response","167","622849","0.0-6.0-0.23","2567649","co38677","norming","","","","","","",""
"null","../img/tt/052tt.jpg","null","mooney1","image-keyboard-response","168","625851","0.0-6.0-1.23","2567649","co38677","norming","","","","","","",""
"4598.935000016354","","","post_mooney1_questions","survey-likert","169","630452","0.0-6.0-2.23","2567649","co38677","norming","","","{""curiosity"":2,""confidence"":0}","[0,1]","../img/tt/052tt.jpg","",""
"1834.4749999814667","","","recognition","survey-text","170","632290","0.0-6.0-3.23","2567649","co38677","norming","","","{""guess"":""""}","","../img/tt/052tt.jpg","",""
"null","../img/gs/052gs.jpg","null","reveal","image-keyboard-response","171","634291","0.0-6.0-4.23","2567649","co38677","norming","","","","","","",""
"null","../img/tt/052tt.jpg","null","mooney2","image-keyboard-response","172","636293","0.0-6.0-5.23","2567649","co38677","norming","","","","","","",""
"3216.53000000515","","","post_reveal_questions","survey-likert","173","639512","0.0-6.0-6.23","2567649","co38677","norming","","","{""aha"":5}","[0]","../img/tt/052tt.jpg","",""
"null","<div style=""font-size:60px;""> </div>","null","fixation","html-keyboard-response","174","639714","0.0-6.0-0.24","2567649","co38677","norming","","","","","","",""
"null","../img/tt/307tt.jpg","null","mooney1","image-keyboard-response","175","642717","0.0-6.0-1.24","2567649","co38677","norming","","","","","","",""
"5192.860000010114","","","post_mooney1_questions","survey-likert","176","647912","0.0-6.0-2.24","2567649","co38677","norming","","","{""curiosity"":1,""confidence"":0}","[0,1]","../img/tt/307tt.jpg","",""
"1501.8849999760278","","","recognition","survey-text","177","649417","0.0-6.0-3.24","2567649","co38677","norming","","","{""guess"":""""}","","../img/tt/307tt.jpg","",""
"null","../img/gs/307gs.jpg","null","reveal","image-keyboard-response","178","651419","0.0-6.0-4.24","2567649","co38677","norming","","","","","","",""
"null","../img/tt/307tt.jpg","null","mooney2","image-keyboard-response","179","653420","0.0-6.0-5.24","2567649","co38677","norming","","","","","","",""
"3478.9449999807402","","","post_reveal_questions","survey-likert","180","656901","0.0-6.0-6.24","2567649","co38677","norming","","","{""aha"":1}","[0]","../img/tt/307tt.jpg","",""
"null","<div style=""font-size:60px;""> </div>","null","fixation","html-keyboard-response","181","657102","0.0-6.0-0.25","2567649","co38677","norming","","","","","","",""
"null","../img/tt/1283tt.jpg","null","mooney1","image-keyboard-response","182","660104","0.0-6.0-1.25","2567649","co38677","norming","","","","","","",""
"5371.694999979809","","","post_mooney1_questions","survey-likert","183","665478","0.0-6.0-2.25","2567649","co38677","norming","","","{""curiosity"":1,""confidence"":0}","[0,1]","../img/tt/1283tt.jpg","",""
"1516.2649999838322","","","recognition","survey-text","184","666997","0.0-6.0-3.25","2567649","co38677","norming","","","{""guess"":""""}","","../img/tt/1283tt.jpg","",""
"null","../img/gs/1283gs.jpg","null","reveal","image-keyboard-response","185","669000","0.0-6.0-4.25","2567649","co38677","norming","","","","","","",""
"null","../img/tt/1283tt.jpg","null","mooney2","image-keyboard-response","186","671001","0.0-6.0-5.25","2567649","co38677","norming","","","","","","",""
"2838.91500000027","","","post_reveal_questions","survey-likert","187","673842","0.0-6.0-6.25","2567649","co38677","norming","","","{""aha"":1}","[0]","../img/tt/1283tt.jpg","",""
"null","<div style=""font-size:60px;""> </div>","null","fixation","html-keyboard-response","188","674044","0.0-6.0-0.26","2567649","co38677","norming","","","","","","",""
"null","../img/tt/1102tt.jpg","null","mooney1","image-keyboard-response","189","677046","0.0-6.0-1.26","2567649","co38677","norming","","","","","","",""
"5341.890000010608","","","post_mooney1_questions","survey-likert","190","682390","0.0-6.0-2.26","2567649","co38677","norming","","","{""curiosity"":4,""confidence"":1}","[0,1]","../img/tt/1102tt.jpg","",""
"3529.5399999886286","","","recognition","survey-text","191","685923","0.0-6.0-3.26","2567649","co38677","norming","","","{""guess"":""sprinkhaan""}","","../img/tt/1102tt.jpg","",""
"null","../img/gs/1102gs.jpg","null","reveal","image-keyboard-response","192","687925","0.0-6.0-4.26","2567649","co38677","norming","","","","","","",""
"null","../img/tt/1102tt.jpg","null","mooney2","image-keyboard-response","193","689927","0.0-6.0-5.26","2567649","co38677","norming","","","","","","",""
"2906.0649999883026","","","post_reveal_questions","survey-likert","194","692834","0.0-6.0-6.26","2567649","co38677","norming","","","{""aha"":2}","[0]","../img/tt/1102tt.jpg","",""
"null","<div style=""font-size:60px;""> </div>","null","fixation","html-keyboard-response","195","693036","0.0-6.0-0.27","2567649","co38677","norming","","","","","","",""
"null","../img/tt/1151tt.jpg","null","mooney1","image-keyboard-response","196","696038","0.0-6.0-1.27","2567649","co38677","norming","","","","","","",""
"6124.790000001667","","","post_mooney1_questions","survey-likert","197","702165","0.0-6.0-2.27","2567649","co38677","norming","","","{""curiosity"":1,""confidence"":0}","[0,1]","../img/tt/1151tt.jpg","",""
"3338.434999983292","","","recognition","survey-text","198","705506","0.0-6.0-3.27","2567649","co38677","norming","","","{""guess"":""giraf""}","","../img/tt/1151tt.jpg","",""
"null","../img/gs/1151gs.jpg","null","reveal","image-keyboard-response","199","707508","0.0-6.0-4.27","2567649","co38677","norming","","","","","","",""
"null","../img/tt/1151tt.jpg","null","mooney2","image-keyboard-response","200","709509","0.0-6.0-5.27","2567649","co38677","norming","","","","","","",""
"3466.2550000066403","","","post_reveal_questions","survey-likert","201","712977","0.0-6.0-6.27","2567649","co38677","norming","","","{""aha"":1}","[0]","../img/tt/1151tt.jpg","",""
"null","<div style=""font-size:60px;""> </div>","null","fixation","html-keyboard-response","202","713179","0.0-6.0-0.28","2567649","co38677","norming","","","","","","",""
"null","../img/tt/456tt.jpg","null","mooney1","image-keyboard-response","203","716181","0.0-6.0-1.28","2567649","co38677","norming","","","","","","",""
"4516.159999999218","","","post_mooney1_questions","survey-likert","204","720699","0.0-6.0-2.28","2567649","co38677","norming","","","{""curiosity"":4,""confidence"":1}","[0,1]","../img/tt/456tt.jpg","",""
"2303.5950000048615","","","recognition","survey-text","205","723006","0.0-6.0-3.28","2567649","co38677","norming","","","{""guess"":""kat""}","","../img/tt/456tt.jpg","",""
"null","../img/gs/456gs.jpg","null","reveal","image-keyboard-response","206","725008","0.0-6.0-4.28","2567649","co38677","norming","","","","","","",""
"null","../img/tt/456tt.jpg","null","mooney2","image-keyboard-response","207","727010","0.0-6.0-5.28","2567649","co38677","norming","","","","","","",""
"3610.5749999987893","","","post_reveal_questions","survey-likert","208","730622","0.0-6.0-6.28","2567649","co38677","norming","","","{""aha"":4}","[0]","../img/tt/456tt.jpg","",""
"null","<div style=""font-size:60px;""> </div>","null","fixation","html-keyboard-response","209","730825","0.0-6.0-0.29","2567649","co38677","norming","","","","","","",""
"null","../img/tt/1196tt.jpg","null","mooney1","image-keyboard-response","210","733826","0.0-6.0-1.29","2567649","co38677","norming","","","","","","",""
"4140.639999997802","","","post_mooney1_questions","survey-likert","211","737969","0.0-6.0-2.29","2567649","co38677","norming","","","{""curiosity"":1,""confidence"":0}","[0,1]","../img/tt/1196tt.jpg","",""
"1161.6499999945518","","","recognition","survey-text","212","739134","0.0-6.0-3.29","2567649","co38677","norming","","","{""guess"":""""}","","../img/tt/1196tt.jpg","",""
"null","../img/gs/1196gs.jpg","null","reveal","image-keyboard-response","213","741136","0.0-6.0-4.29","2567649","co38677","norming","","","","","","",""
"null","../img/tt/1196tt.jpg","null","mooney2","image-keyboard-response","214","743137","0.0-6.0-5.29","2567649","co38677","norming","","","","","","",""
"4002.474999986589","","","post_reveal_questions","survey-likert","215","747142","0.0-6.0-6.29","2567649","co38677","norming","","","{""aha"":1}","[0]","../img/tt/1196tt.jpg","",""
"null","<div style=""font-size:60px;""> </div>","null","fixation","html-keyboard-response","216","747344","0.0-6.0-0.30","2567649","co38677","norming","","","","","","",""
"null","../img/tt/1004tt.jpg","null","mooney1","image-keyboard-response","217","750346","0.0-6.0-1.30","2567649","co38677","norming","","","","","","",""
"5551.199999987148","","","post_mooney1_questions","survey-likert","218","755900","0.0-6.0-2.30","2567649","co38677","norming","","","{""curiosity"":4,""confidence"":1}","[0,1]","../img/tt/1004tt.jpg","",""
"2698.035000008531","","","recognition","survey-text","219","758601","0.0-6.0-3.30","2567649","co38677","norming","","","{""guess"":""leeuw""}","","../img/tt/1004tt.jpg","",""
"null","../img/gs/1004gs.jpg","null","reveal","image-keyboard-response","220","760603","0.0-6.0-4.30","2567649","co38677","norming","","","","","","",""
"null","../img/tt/1004tt.jpg","null","mooney2","image-keyboard-response","221","762605","0.0-6.0-5.30","2567649","co38677","norming","","","","","","",""
"4061.539999995148","","","post_reveal_questions","survey-likert","222","766669","0.0-6.0-6.30","2567649","co38677","norming","","","{""aha"":4}","[0]","../img/tt/1004tt.jpg","",""
"null","<div style=""font-size:60px;""> </div>","null","fixation","html-keyboard-response","223","766870","0.0-6.0-0.31","2567649","co38677","norming","","","","","","",""
"null","../img/tt/1012tt.jpg","null","mooney1","image-keyboard-response","224","769872","0.0-6.0-1.31","2567649","co38677","norming","","","","","","",""
"4327.539999998407","","","post_mooney1_questions","survey-likert","225","774202","0.0-6.0-2.31","2567649","co38677","norming","","","{""curiosity"":4,""confidence"":1}","[0,1]","../img/tt/1012tt.jpg","",""
"2733.9149999897927","","","recognition","survey-text","226","776939","0.0-6.0-3.31","2567649","co38677","norming","","","{""guess"":""zebra""}","","../img/tt/1012tt.jpg","",""
"null","../img/gs/1012gs.jpg","null","reveal","image-keyboard-response","227","778941","0.0-6.0-4.31","2567649","co38677","norming","","","","","","",""
"null","../img/tt/1012tt.jpg","null","mooney2","image-keyboard-response","228","780943","0.0-6.0-5.31","2567649","co38677","norming","","","","","","",""
"3066.46499998169","","","post_reveal_questions","survey-likert","229","784011","0.0-6.0-6.31","2567649","co38677","norming","","","{""aha"":3}","[0]","../img/tt/1012tt.jpg","",""
"null","<div style=""font-size:60px;""> </div>","null","fixation","html-keyboard-response","230","784213","0.0-6.0-0.32","2567649","co38677","norming","","","","","","",""
"null","../img/tt/318tt.jpg","null","mooney1","image-keyboard-response","231","787215","0.0-6.0-1.32","2567649","co38677","norming","","","","","","",""
"4669.300000008661","","","post_mooney1_questions","survey-likert","232","791887","0.0-6.0-2.32","2567649","co38677","norming","","","{""curiosity"":4,""confidence"":1}","[0,1]","../img/tt/318tt.jpg","",""
"2612.405000021681","","","recognition","survey-text","233","794502","0.0-6.0-3.32","2567649","co38677","norming","","","{""guess"":""hond""}","","../img/tt/318tt.jpg","",""
"null","../img/gs/318gs.jpg","null","reveal","image-keyboard-response","234","796505","0.0-6.0-4.32","2567649","co38677","norming","","","","","","",""
"null","../img/tt/318tt.jpg","null","mooney2","image-keyboard-response","235","798506","0.0-6.0-5.32","2567649","co38677","norming","","","","","","",""
"3638.570000010077","","","post_reveal_questions","survey-likert","236","802147","0.0-6.0-6.32","2567649","co38677","norming","","","{""aha"":2}","[0]","../img/tt/318tt.jpg","",""
"null","<div style=""font-size:60px;""> </div>","null","fixation","html-keyboard-response","237","802349","0.0-6.0-0.33","2567649","co38677","norming","","","","","","",""
"null","../img/tt/1242tt.jpg","null","mooney1","image-keyboard-response","238","805351","0.0-6.0-1.33","2567649","co38677","norming","","","","","","",""
"4316.670000000158","","","post_mooney1_questions","survey-likert","239","809670","0.0-6.0-2.33","2567649","co38677","norming","","","{""curiosity"":1,""confidence"":0}","[0,1]","../img/tt/1242tt.jpg","",""
"1209.2199999897275","","","recognition","survey-text","240","810882","0.0-6.0-3.33","2567649","co38677","norming","","","{""guess"":""""}","","../img/tt/1242tt.jpg","",""
"null","../img/gs/1242gs.jpg","null","reveal","image-keyboard-response","241","812884","0.0-6.0-4.33","2567649","co38677","norming","","","","","","",""
"null","../img/tt/1242tt.jpg","null","mooney2","image-keyboard-response","242","814886","0.0-6.0-5.33","2567649","co38677","norming","","","","","","",""
"3523.060000006808","","","post_reveal_questions","survey-likert","243","818411","0.0-6.0-6.33","2567649","co38677","norming","","","{""aha"":4}","[0]","../img/tt/1242tt.jpg","",""
"null","<div style=""font-size:60px;""> </div>","null","fixation","html-keyboard-response","244","818613","0.0-6.0-0.34","2567649","co38677","norming","","","","","","",""
"null","../img/tt/418tt.jpg","null","mooney1","image-keyboard-response","245","821614","0.0-6.0-1.34","2567649","co38677","norming","","","","","","",""
"5426.940000004834","","","post_mooney1_questions","survey-likert","246","827043","0.0-6.0-2.34","2567649","co38677","norming","","","{""curiosity"":1,""confidence"":0}","[0,1]","../img/tt/418tt.jpg","",""
"1472.3049999738578","","","recognition","survey-text","247","828518","0.0-6.0-3.34","2567649","co38677","norming","","","{""guess"":""""}","","../img/tt/418tt.jpg","",""
"null","../img/gs/418gs.jpg","null","reveal","image-keyboard-response","248","830520","0.0-6.0-4.34","2567649","co38677","norming","","","","","","",""
"null","../img/tt/418tt.jpg","null","mooney2","image-keyboard-response","249","832522","0.0-6.0-5.34","2567649","co38677","norming","","","","","","",""
"2260.519999981625","","","post_reveal_questions","survey-likert","250","834784","0.0-6.0-6.34","2567649","co38677","norming","","","{""aha"":5}","[0]","../img/tt/418tt.jpg","",""
"null","<div style=""font-size:60px;""> </div>","null","fixation","html-keyboard-response","251","834987","0.0-6.0-0.35","2567649","co38677","norming","","","","","","",""
"null","../img/tt/378tt.jpg","null","mooney1","image-keyboard-response","252","837989","0.0-6.0-1.35","2567649","co38677","norming","","","","","","",""
"4879.785000026459","","","post_mooney1_questions","survey-likert","253","842870","0.0-6.0-2.35","2567649","co38677","norming","","","{""curiosity"":4,""confidence"":0}","[0,1]","../img/tt/378tt.jpg","",""
"1777.8650000109337","","","recognition","survey-text","254","844651","0.0-6.0-3.35","2567649","co38677","norming","","","{""guess"":""""}","","../img/tt/378tt.jpg","",""
"null","../img/gs/378gs.jpg","null","reveal","image-keyboard-response","255","846654","0.0-6.0-4.35","2567649","co38677","norming","","","","","","",""
"null","../img/tt/378tt.jpg","null","mooney2","image-keyboard-response","256","848655","0.0-6.0-5.35","2567649","co38677","norming","","","","","","",""
"3160.5299999937415","","","post_reveal_questions","survey-likert","257","851817","0.0-6.0-6.35","2567649","co38677","norming","","","{""aha"":2}","[0]","../img/tt/378tt.jpg","",""
"null","<div style=""font-size:60px;""> </div>","null","fixation","html-keyboard-response","258","852020","0.0-6.0-0.36","2567649","co38677","norming","","","","","","",""
"null","../img/tt/1309tt.jpg","null","mooney1","image-keyboard-response","259","855021","0.0-6.0-1.36","2567649","co38677","norming","","","","","","",""
"4980.534999980591","","","post_mooney1_questions","survey-likert","260","860004","0.0-6.0-2.36","2567649","co38677","norming","","","{""curiosity"":3,""confidence"":2}","[0,1]","../img/tt/1309tt.jpg","",""
"4089.1450000053737","","","recognition","survey-text","261","864096","0.0-6.0-3.36","2567649","co38677","norming","","","{""guess"":""auto""}","","../img/tt/1309tt.jpg","",""
"null","../img/gs/1309gs.jpg","null","reveal","image-keyboard-response","262","866099","0.0-6.0-4.36","2567649","co38677","norming","","","","","","",""
"null","../img/tt/1309tt.jpg","null","mooney2","image-keyboard-response","263","868100","0.0-6.0-5.36","2567649","co38677","norming","","","","","","",""
"3316.659999982221","","","post_reveal_questions","survey-likert","264","871418","0.0-6.0-6.36","2567649","co38677","norming","","","{""aha"":2}","[0]","../img/tt/1309tt.jpg","",""
"null","<div style=""font-size:60px;""> </div>","null","fixation","html-keyboard-response","265","871621","0.0-6.0-0.37","2567649","co38677","norming","","","","","","",""
"null","../img/tt/1255tt.jpg","null","mooney1","image-keyboard-response","266","874623","0.0-6.0-1.37","2567649","co38677","norming","","","","","","",""
"5776.374999986729","","","post_mooney1_questions","survey-likert","267","880402","0.0-6.0-2.37","2567649","co38677","norming","","","{""curiosity"":4,""confidence"":0}","[0,1]","../img/tt/1255tt.jpg","",""
"2278.710000013234","","","recognition","survey-text","268","882684","0.0-6.0-3.37","2567649","co38677","norming","","","{""guess"":""""}","","../img/tt/1255tt.jpg","",""
"null","../img/gs/1255gs.jpg","null","reveal","image-keyboard-response","269","884685","0.0-6.0-4.37","2567649","co38677","norming","","","","","","",""
"null","../img/tt/1255tt.jpg","null","mooney2","image-keyboard-response","270","886687","0.0-6.0-5.37","2567649","co38677","norming","","","","","","",""
"3139.5550000015646","","","post_reveal_questions","survey-likert","271","889829","0.0-6.0-6.37","2567649","co38677","norming","","","{""aha"":4}","[0]","../img/tt/1255tt.jpg","",""
"null","<div style=""font-size:60px;""> </div>","null","fixation","html-keyboard-response","272","890031","0.0-6.0-0.38","2567649","co38677","norming","","","","","","",""
"null","../img/tt/1186tt.jpg","null","mooney1","image-keyboard-response","273","893033","0.0-6.0-1.38","2567649","co38677","norming","","","","","","",""
"4506.480000010924","","","post_mooney1_questions","survey-likert","274","897541","0.0-6.0-2.38","2567649","co38677","norming","","","{""curiosity"":2,""confidence"":2}","[0,1]","../img/tt/1186tt.jpg","",""
"3379.5650000101887","","","recognition","survey-text","275","900924","0.0-6.0-3.38","2567649","co38677","norming","","","{""guess"":""skir""}","","../img/tt/1186tt.jpg","",""
"null","../img/gs/1186gs.jpg","null","reveal","image-keyboard-response","276","902926","0.0-6.0-4.38","2567649","co38677","norming","","","","","","",""
"null","../img/tt/1186tt.jpg","null","mooney2","image-keyboard-response","277","904928","0.0-6.0-5.38","2567649","co38677","norming","","","","","","",""
"3474.3349999771453","","","post_reveal_questions","survey-likert","278","908404","0.0-6.0-6.38","2567649","co38677","norming","","","{""aha"":2}","[0]","../img/tt/1186tt.jpg","",""
"null","<div style=""font-size:60px;""> </div>","null","fixation","html-keyboard-response","279","908607","0.0-6.0-0.39","2567649","co38677","norming","","","","","","",""
"null","../img/tt/112tt.jpg","null","mooney1","image-keyboard-response","280","911609","0.0-6.0-1.39","2567649","co38677","norming","","","","","","",""
"5211.819999996806","","","post_mooney1_questions","survey-likert","281","916823","0.0-6.0-2.39","2567649","co38677","norming","","","{""curiosity"":2,""confidence"":5}","[0,1]","../img/tt/112tt.jpg","",""
"2397.1700000111014","","","recognition","survey-text","282","919223","0.0-6.0-3.39","2567649","co38677","norming","","","{""guess"":""fluitje""}","","../img/tt/112tt.jpg","",""
"null","../img/gs/112gs.jpg","null","reveal","image-keyboard-response","283","921225","0.0-6.0-4.39","2567649","co38677","norming","","","","","","",""
"null","../img/tt/112tt.jpg","null","mooney2","image-keyboard-response","284","923227","0.0-6.0-5.39","2567649","co38677","norming","","","","","","",""
"4269.530000019586","","","post_reveal_questions","survey-likert","285","927498","0.0-6.0-6.39","2567649","co38677","norming","","","{""aha"":1}","[0]","../img/tt/112tt.jpg","",""
"null","<div style=""font-size:60px;""> </div>","null","fixation","html-keyboard-response","286","927700","0.0-6.0-0.40","2567649","co38677","norming","","","","","","",""
"null","../img/tt/1118tt.jpg","null","mooney1","image-keyboard-response","287","930702","0.0-6.0-1.40","2567649","co38677","norming","","","","","","",""
"4066.309999994701","","","post_mooney1_questions","survey-likert","288","934770","0.0-6.0-2.40","2567649","co38677","norming","","","{""curiosity"":4,""confidence"":1}","[0,1]","../img/tt/1118tt.jpg","",""
"3441.854999982752","","","recognition","survey-text","289","938215","0.0-6.0-3.40","2567649","co38677","norming","","","{""guess"":""grasmaaier""}","","../img/tt/1118tt.jpg","",""
"null","../img/gs/1118gs.jpg","null","reveal","image-keyboard-response","290","940218","0.0-6.0-4.40","2567649","co38677","norming","","","","","","",""
"null","../img/tt/1118tt.jpg","null","mooney2","image-keyboard-response","291","942220","0.0-6.0-5.40","2567649","co38677","norming","","","","","","",""
"4063.4399999980815","","","post_reveal_questions","survey-likert","292","946285","0.0-6.0-6.40","2567649","co38677","norming","","","{""aha"":2}","[0]","../img/tt/1118tt.jpg","",""
"null","<div style=""font-size:60px;""> </div>","null","fixation","html-keyboard-response","293","946487","0.0-6.0-0.41","2567649","co38677","norming","","","","","","",""
"null","../img/tt/1228tt.jpg","null","mooney1","image-keyboard-response","294","949489","0.0-6.0-1.41","2567649","co38677","norming","","","","","","",""
"3879.8750000132713","","","post_mooney1_questions","survey-likert","295","953370","0.0-6.0-2.41","2567649","co38677","norming","","","{""curiosity"":4,""confidence"":2}","[0,1]","../img/tt/1228tt.jpg","",""
"2989.675000018906","","","recognition","survey-text","296","956363","0.0-6.0-3.41","2567649","co38677","norming","","","{""guess"":""vogel""}","","../img/tt/1228tt.jpg","",""
"null","../img/gs/1228gs.jpg","null","reveal","image-keyboard-response","297","958366","0.0-6.0-4.41","2567649","co38677","norming","","","","","","",""
"null","../img/tt/1228tt.jpg","null","mooney2","image-keyboard-response","298","960368","0.0-6.0-5.41","2567649","co38677","norming","","","","","","",""
"2838.6699999973644","","","post_reveal_questions","survey-likert","299","963208","0.0-6.0-6.41","2567649","co38677","norming","","","{""aha"":3}","[0]","../img/tt/1228tt.jpg","",""
"null","<div style=""font-size:60px;""> </div>","null","fixation","html-keyboard-response","300","963411","0.0-6.0-0.42","2567649","co38677","norming","","","","","","",""
"null","../img/tt/1217tt.jpg","null","mooney1","image-keyboard-response","301","966413","0.0-6.0-1.42","2567649","co38677","norming","","","","","","",""
"5971.51999999187","","","post_mooney1_questions","survey-likert","302","972386","0.0-6.0-2.42","2567649","co38677","norming","","","{""curiosity"":5,""confidence"":0}","[0,1]","../img/tt/1217tt.jpg","",""
"1378.5299999872223","","","recognition","survey-text","303","973768","0.0-6.0-3.42","2567649","co38677","norming","","","{""guess"":""""}","","../img/tt/1217tt.jpg","",""
"null","../img/gs/1217gs.jpg","null","reveal","image-keyboard-response","304","975771","0.0-6.0-4.42","2567649","co38677","norming","","","","","","",""
"null","../img/tt/1217tt.jpg","null","mooney2","image-keyboard-response","305","977772","0.0-6.0-5.42","2567649","co38677","norming","","","","","","",""
"3376.3250000192784","","","post_reveal_questions","survey-likert","306","981150","0.0-6.0-6.42","2567649","co38677","norming","","","{""aha"":1}","[0]","../img/tt/1217tt.jpg","",""
"null","<div style=""font-size:60px;""> </div>","null","fixation","html-keyboard-response","307","981353","0.0-6.0-0.43","2567649","co38677","norming","","","","","","",""
"null","../img/tt/1236tt.jpg","null","mooney1","image-keyboard-response","308","984356","0.0-6.0-1.43","2567649","co38677","norming","","","","","","",""
"5566.735000000335","","","post_mooney1_questions","survey-likert","309","989926","0.0-6.0-2.43","2567649","co38677","norming","","","{""curiosity"":5,""confidence"":5}","[0,1]","../img/tt/1236tt.jpg","",""
"2382.290000008652","","","recognition","survey-text","310","992311","0.0-6.0-3.43","2567649","co38677","norming","","","{""guess"":""eend""}","","../img/tt/1236tt.jpg","",""
"null","../img/gs/1236gs.jpg","null","reveal","image-keyboard-response","311","994314","0.0-6.0-4.43","2567649","co38677","norming","","","","","","",""
"null","../img/tt/1236tt.jpg","null","mooney2","image-keyboard-response","312","996316","0.0-6.0-5.43","2567649","co38677","norming","","","","","","",""
"2562.739999993937","","","post_reveal_questions","survey-likert","313","998880","0.0-6.0-6.43","2567649","co38677","norming","","","{""aha"":4}","[0]","../img/tt/1236tt.jpg","",""
"null","<div style=""font-size:60px;""> </div>","null","fixation","html-keyboard-response","314","999082","0.0-6.0-0.44","2567649","co38677","norming","","","","","","",""
"null","../img/tt/1191tt.jpg","null","mooney1","image-keyboard-response","315","1002083","0.0-6.0-1.44","2567649","co38677","norming","","","","","","",""
"4738.249999994878","","","post_mooney1_questions","survey-likert","316","1006824","0.0-6.0-2.44","2567649","co38677","norming","","","{""curiosity"":4,""confidence"":4}","[0,1]","../img/tt/1191tt.jpg","",""
"3632.290000008652","","","recognition","survey-text","317","1010459","0.0-6.0-3.44","2567649","co38677","norming","","","{""guess"":""herten""}","","../img/tt/1191tt.jpg","",""
"null","../img/gs/1191gs.jpg","null","reveal","image-keyboard-response","318","1012462","0.0-6.0-4.44","2567649","co38677","norming","","","","","","",""
"null","../img/tt/1191tt.jpg","null","mooney2","image-keyboard-response","319","1014463","0.0-6.0-5.44","2567649","co38677","norming","","","","","","",""
"3198.2349999889266","","","post_reveal_questions","survey-likert","320","1017663","0.0-6.0-6.44","2567649","co38677","norming","","","{""aha"":2}","[0]","../img/tt/1191tt.jpg","",""
"null","<div style=""font-size:60px;""> </div>","null","fixation","html-keyboard-response","321","1017865","0.0-6.0-0.45","2567649","co38677","norming","","","","","","",""
"null","../img/tt/1290tt.jpg","null","mooney1","image-keyboard-response","322","1020867","0.0-6.0-1.45","2567649","co38677","norming","","","","","","",""
"5714.524999988498","","","post_mooney1_questions","survey-likert","323","1026584","0.0-6.0-2.45","2567649","co38677","norming","","","{""curiosity"":3,""confidence"":0}","[0,1]","../img/tt/1290tt.jpg","",""
"1151.2050000019372","","","recognition","survey-text","324","1027738","0.0-6.0-3.45","2567649","co38677","norming","","","{""guess"":""""}","","../img/tt/1290tt.jpg","",""
"null","../img/gs/1290gs.jpg","null","reveal","image-keyboard-response","325","1029740","0.0-6.0-4.45","2567649","co38677","norming","","","","","","",""
"null","../img/tt/1290tt.jpg","null","mooney2","image-keyboard-response","326","1031742","0.0-6.0-5.45","2567649","co38677","norming","","","","","","",""
"3343.2949999987613","","","post_reveal_questions","survey-likert","327","1035087","0.0-6.0-6.45","2567649","co38677","norming","","","{""aha"":1}","[0]","../img/tt/1290tt.jpg","",""
"null","<div style=""font-size:60px;""> </div>","null","fixation","html-keyboard-response","328","1035289","0.0-6.0-0.46","2567649","co38677","norming","","","","","","",""
"null","../img/tt/273tt.jpg","null","mooney1","image-keyboard-response","329","1038291","0.0-6.0-1.46","2567649","co38677","norming","","","","","","",""
"5746.775000006892","","","post_mooney1_questions","survey-likert","330","1044040","0.0-6.0-2.46","2567649","co38677","norming","","","{""curiosity"":2,""confidence"":5}","[0,1]","../img/tt/273tt.jpg","",""
"2257.0700000214856","","","recognition","survey-text","331","1046300","0.0-6.0-3.46","2567649","co38677","norming","","","{""guess"":""beugel""}","","../img/tt/273tt.jpg","",""
"null","../img/gs/273gs.jpg","null","reveal","image-keyboard-response","332","1048303","0.0-6.0-4.46","2567649","co38677","norming","","","","","","",""
"null","../img/tt/273tt.jpg","null","mooney2","image-keyboard-response","333","1050305","0.0-6.0-5.46","2567649","co38677","norming","","","","","","",""
"3259.74499998847","","","post_reveal_questions","survey-likert","334","1053567","0.0-6.0-6.46","2567649","co38677","norming","","","{""aha"":1}","[0]","../img/tt/273tt.jpg","",""
"null","<div style=""font-size:60px;""> </div>","null","fixation","html-keyboard-response","335","1053770","0.0-6.0-0.47","2567649","co38677","norming","","","","","","",""
"null","../img/tt/598tt.jpg","null","mooney1","image-keyboard-response","336","1056772","0.0-6.0-1.47","2567649","co38677","norming","","","","","","",""
"4269.754999986617","","","post_mooney1_questions","survey-likert","337","1061044","0.0-6.0-2.47","2567649","co38677","norming","","","{""curiosity"":4,""confidence"":0}","[0,1]","../img/tt/598tt.jpg","",""
"1186.3299999968149","","","recognition","survey-text","338","1062233","0.0-6.0-3.47","2567649","co38677","norming","","","{""guess"":""""}","","../img/tt/598tt.jpg","",""
"null","../img/gs/598gs.jpg","null","reveal","image-keyboard-response","339","1064236","0.0-6.0-4.47","2567649","co38677","norming","","","","","","",""
"null","../img/tt/598tt.jpg","null","mooney2","image-keyboard-response","340","1066237","0.0-6.0-5.47","2567649","co38677","norming","","","","","","",""
"3526.400000002468","","","post_reveal_questions","survey-likert","341","1069766","0.0-6.0-6.47","2567649","co38677","norming","","","{""aha"":4}","[0]","../img/tt/598tt.jpg","",""
"null","<div style=""font-size:60px;""> </div>","null","fixation","html-keyboard-response","342","1069968","0.0-6.0-0.48","2567649","co38677","norming","","","","","","",""
"null","../img/tt/1254tt.jpg","null","mooney1","image-keyboard-response","343","1072970","0.0-6.0-1.48","2567649","co38677","norming","","","","","","",""
"4348.649999999907","","","post_mooney1_questions","survey-likert","344","1077320","0.0-6.0-2.48","2567649","co38677","norming","","","{""curiosity"":4,""confidence"":2}","[0,1]","../img/tt/1254tt.jpg","",""
"2385.4100000171456","","","recognition","survey-text","345","1079709","0.0-6.0-3.48","2567649","co38677","norming","","","{""guess"":""ezel""}","","../img/tt/1254tt.jpg","",""
"null","../img/gs/1254gs.jpg","null","reveal","image-keyboard-response","346","1081712","0.0-6.0-4.48","2567649","co38677","norming","","","","","","",""
"null","../img/tt/1254tt.jpg","null","mooney2","image-keyboard-response","347","1083714","0.0-6.0-5.48","2567649","co38677","norming","","","","","","",""
"3204.0949999936856","","","post_reveal_questions","survey-likert","348","1086920","0.0-6.0-6.48","2567649","co38677","norming","","","{""aha"":4}","[0]","../img/tt/1254tt.jpg","",""
"null","<div style=""font-size:60px;""> </div>","null","fixation","html-keyboard-response","349","1087121","0.0-6.0-0.49","2567649","co38677","norming","","","","","","",""
"null","../img/tt/1024tt.jpg","null","mooney1","image-keyboard-response","350","1090124","0.0-6.0-1.49","2567649","co38677","norming","","","","","","",""
"5747.889999998733","","","post_mooney1_questions","survey-likert","351","1095873","0.0-6.0-2.49","2567649","co38677","norming","","","{""curiosity"":4,""confidence"":1}","[0,1]","../img/tt/1024tt.jpg","",""
"2564.220000000205","","","recognition","survey-text","352","1098441","0.0-6.0-3.49","2567649","co38677","norming","","","{""guess"":""tennis""}","","../img/tt/1024tt.jpg","",""
"null","../img/gs/1024gs.jpg","null","reveal","image-keyboard-response","353","1100443","0.0-6.0-4.49","2567649","co38677","norming","","","","","","",""
"null","../img/tt/1024tt.jpg","null","mooney2","image-keyboard-response","354","1102445","0.0-6.0-5.49","2567649","co38677","norming","","","","","","",""
"2356.8799999775365","","","post_reveal_questions","survey-likert","355","1104803","0.0-6.0-6.49","2567649","co38677","norming","","","{""aha"":4}","[0]","../img/tt/1024tt.jpg","",""
"null","<div style=""font-size:60px;""> </div>","null","fixation","html-keyboard-response","356","1105005","0.0-6.0-0.50","2567649","co38677","norming","","","","","","",""
"null","../img/tt/121tt.jpg","null","mooney1","image-keyboard-response","357","1108007","0.0-6.0-1.50","2567649","co38677","norming","","","","","","",""
"4113.004999991972","","","post_mooney1_questions","survey-likert","358","1112122","0.0-6.0-2.50","2567649","co38677","norming","","","{""curiosity"":1,""confidence"":5}","[0,1]","../img/tt/121tt.jpg","",""
"3790.584999980638","","","recognition","survey-text","359","1115916","0.0-6.0-3.50","2567649","co38677","norming","","","{""guess"":""kangoeroe""}","","../img/tt/121tt.jpg","",""
"null","../img/gs/121gs.jpg","null","reveal","image-keyboard-response","360","1117919","0.0-6.0-4.50","2567649","co38677","norming","","","","","","",""
"null","../img/tt/121tt.jpg","null","mooney2","image-keyboard-response","361","1119921","0.0-6.0-5.50","2567649","co38677","norming","","","","","","",""
"5722.110000002431","","","post_reveal_questions","survey-likert","362","1125645","0.0-6.0-6.50","2567649","co38677","norming","","","{""aha"":2}","[0]","../img/tt/121tt.jpg","",""
"null","<div style=""font-size:60px;""> </div>","null","fixation","html-keyboard-response","363","1125847","0.0-6.0-0.51","2567649","co38677","norming","","","","","","",""
"null","../img/tt/329tt.jpg","null","mooney1","image-keyboard-response","364","1128849","0.0-6.0-1.51","2567649","co38677","norming","","","","","","",""
"4649.0150000026915","","","post_mooney1_questions","survey-likert","365","1133500","0.0-6.0-2.51","2567649","co38677","norming","","","{""curiosity"":4,""confidence"":0}","[0,1]","../img/tt/329tt.jpg","",""
"1159.8250000097323","","","recognition","survey-text","366","1134663","0.0-6.0-3.51","2567649","co38677","norming","","","{""guess"":""""}","","../img/tt/329tt.jpg","",""
"null","../img/gs/329gs.jpg","null","reveal","image-keyboard-response","367","1136666","0.0-6.0-4.51","2567649","co38677","norming","","","","","","",""
"null","../img/tt/329tt.jpg","null","mooney2","image-keyboard-response","368","1138669","0.0-6.0-5.51","2567649","co38677","norming","","","","","","",""
"2363.645000004908","","","post_reveal_questions","survey-likert","369","1141034","0.0-6.0-6.51","2567649","co38677","norming","","","{""aha"":5}","[0]","../img/tt/329tt.jpg","",""
"null","<div style=""font-size:60px;""> </div>","null","fixation","html-keyboard-response","370","1141237","0.0-6.0-0.52","2567649","co38677","norming","","","","","","",""
"null","../img/tt/1087tt.jpg","null","mooney1","image-keyboard-response","371","1144239","0.0-6.0-1.52","2567649","co38677","norming","","","","","","",""
"5092.745000001742","","","post_mooney1_questions","survey-likert","372","1149334","0.0-6.0-2.52","2567649","co38677","norming","","","{""curiosity"":4,""confidence"":1}","[0,1]","../img/tt/1087tt.jpg","",""
"3941.309999994701","","","recognition","survey-text","373","1153279","0.0-6.0-3.52","2567649","co38677","norming","","","{""guess"":""buffels""}","","../img/tt/1087tt.jpg","",""
"null","../img/gs/1087gs.jpg","null","reveal","image-keyboard-response","374","1155281","0.0-6.0-4.52","2567649","co38677","norming","","","","","","",""
"null","../img/tt/1087tt.jpg","null","mooney2","image-keyboard-response","375","1157283","0.0-6.0-5.52","2567649","co38677","norming","","","","","","",""
"3945.514999999432","","","post_reveal_questions","survey-likert","376","1161230","0.0-6.0-6.52","2567649","co38677","norming","","","{""aha"":2}","[0]","../img/tt/1087tt.jpg","",""
"null","<div style=""font-size:60px;""> </div>","null","fixation","html-keyboard-response","377","1161432","0.0-6.0-0.53","2567649","co38677","norming","","","","","","",""
"null","../img/tt/1261tt.jpg","null","mooney1","image-keyboard-response","378","1164434","0.0-6.0-1.53","2567649","co38677","norming","","","","","","",""
"4960.190000012517","","","post_mooney1_questions","survey-likert","379","1169397","0.0-6.0-2.53","2567649","co38677","norming","","","{""curiosity"":3,""confidence"":0}","[0,1]","../img/tt/1261tt.jpg","",""
"1003.6550000077114","","","recognition","survey-text","380","1170404","0.0-6.0-3.53","2567649","co38677","norming","","","{""guess"":""""}","","../img/tt/1261tt.jpg","",""
"null","../img/gs/1261gs.jpg","null","reveal","image-keyboard-response","381","1172406","0.0-6.0-4.53","2567649","co38677","norming","","","","","","",""
"null","../img/tt/1261tt.jpg","null","mooney2","image-keyboard-response","382","1174408","0.0-6.0-5.53","2567649","co38677","norming","","","","","","",""
"3299.479999986943","","","post_reveal_questions","survey-likert","383","1177709","0.0-6.0-6.53","2567649","co38677","norming","","","{""aha"":2}","[0]","../img/tt/1261tt.jpg","",""
"null","<div style=""font-size:60px;""> </div>","null","fixation","html-keyboard-response","384","1177911","0.0-6.0-0.54","2567649","co38677","norming","","","","","","",""
"null","../img/tt/013tt.jpg","null","mooney1","image-keyboard-response","385","1180913","0.0-6.0-1.54","2567649","co38677","norming","","","","","","",""
"6710.449999984121","","","post_mooney1_questions","survey-likert","386","1187625","0.0-6.0-2.54","2567649","co38677","norming","","","{""curiosity"":2,""confidence"":0}","[0,1]","../img/tt/013tt.jpg","",""
"1618.0800000147428","","","recognition","survey-text","387","1189247","0.0-6.0-3.54","2567649","co38677","norming","","","{""guess"":""""}","","../img/tt/013tt.jpg","",""
"null","../img/gs/013gs.jpg","null","reveal","image-keyboard-response","388","1191249","0.0-6.0-4.54","2567649","co38677","norming","","","","","","",""
"null","../img/tt/013tt.jpg","null","mooney2","image-keyboard-response","389","1193251","0.0-6.0-5.54","2567649","co38677","norming","","","","","","",""
"4150.754999980563","","","post_reveal_questions","survey-likert","390","1197403","0.0-6.0-6.54","2567649","co38677","norming","","","{""aha"":2}","[0]","../img/tt/013tt.jpg","",""
"null","<div style=""font-size:60px;""> </div>","null","fixation","html-keyboard-response","391","1197605","0.0-6.0-0.55","2567649","co38677","norming","","","","","","",""
"null","../img/tt/1171tt.jpg","null","mooney1","image-keyboard-response","392","1200607","0.0-6.0-1.55","2567649","co38677","norming","","","","","","",""
"5052.089999982854","","","post_mooney1_questions","survey-likert","393","1205661","0.0-6.0-2.55","2567649","co38677","norming","","","{""curiosity"":3,""confidence"":0}","[0,1]","../img/tt/1171tt.jpg","",""
"1154.0399999939837","","","recognition","survey-text","394","1206819","0.0-6.0-3.55","2567649","co38677","norming","","","{""guess"":""""}","","../img/tt/1171tt.jpg","",""
"null","../img/gs/1171gs.jpg","null","reveal","image-keyboard-response","395","1208821","0.0-6.0-4.55","2567649","co38677","norming","","","","","","",""
"null","../img/tt/1171tt.jpg","null","mooney2","image-keyboard-response","396","1210822","0.0-6.0-5.55","2567649","co38677","norming","","","","","","",""
"2401.4200000092387","","","post_reveal_questions","survey-likert","397","1213225","0.0-6.0-6.55","2567649","co38677","norming","","","{""aha"":1}","[0]","../img/tt/1171tt.jpg","",""
"null","<div style=""font-size:60px;""> </div>","null","fixation","html-keyboard-response","398","1213428","0.0-6.0-0.56","2567649","co38677","norming","","","","","","",""
"null","../img/tt/1053tt.jpg","null","mooney1","image-keyboard-response","399","1216429","0.0-6.0-1.56","2567649","co38677","norming","","","","","","",""
"4509.075000009034","","","post_mooney1_questions","survey-likert","400","1220941","0.0-6.0-2.56","2567649","co38677","norming","","","{""curiosity"":3,""confidence"":2}","[0,1]","../img/tt/1053tt.jpg","",""
"2258.190000022296","","","recognition","survey-text","401","1223202","0.0-6.0-3.56","2567649","co38677","norming","","","{""guess"":""koeien""}","","../img/tt/1053tt.jpg","",""
"null","../img/gs/1053gs.jpg","null","reveal","image-keyboard-response","402","1225204","0.0-6.0-4.56","2567649","co38677","norming","","","","","","",""
"null","../img/tt/1053tt.jpg","null","mooney2","image-keyboard-response","403","1227205","0.0-6.0-5.56","2567649","co38677","norming","","","","","","",""
"2471.205000008922","","","post_reveal_questions","survey-likert","404","1229678","0.0-6.0-6.56","2567649","co38677","norming","","","{""aha"":0}","[0]","../img/tt/1053tt.jpg","",""
"null","<div style=""font-size:60px;""> </div>","null","fixation","html-keyboard-response","405","1229881","0.0-6.0-0.57","2567649","co38677","norming","","","","","","",""
"null","../img/tt/315tt.jpg","null","mooney1","image-keyboard-response","406","1232883","0.0-6.0-1.57","2567649","co38677","norming","","","","","","",""
"4495.4300000099465","","","post_mooney1_questions","survey-likert","407","1237380","0.0-6.0-2.57","2567649","co38677","norming","","","{""curiosity"":4,""confidence"":0}","[0,1]","../img/tt/315tt.jpg","",""
"1353.3649999881163","","","recognition","survey-text","408","1238737","0.0-6.0-3.57","2567649","co38677","norming","","","{""guess"":""""}","","../img/tt/315tt.jpg","",""
"null","../img/gs/315gs.jpg","null","reveal","image-keyboard-response","409","1240740","0.0-6.0-4.57","2567649","co38677","norming","","","","","","",""
"null","../img/tt/315tt.jpg","null","mooney2","image-keyboard-response","410","1242741","0.0-6.0-5.57","2567649","co38677","norming","","","","","","",""
"2516.360000008717","","","post_reveal_questions","survey-likert","411","1245259","0.0-6.0-6.57","2567649","co38677","norming","","","{""aha"":3}","[0]","../img/tt/315tt.jpg","",""
"null","<div style=""font-size:60px;""> </div>","null","fixation","html-keyboard-response","412","1245462","0.0-6.0-0.58","2567649","co38677","norming","","","","","","",""
"null","../img/tt/1046tt.jpg","null","mooney1","image-keyboard-response","413","1248464","0.0-6.0-1.58","2567649","co38677","norming","","","","","","",""
"4845.200000010664","","","post_mooney1_questions","survey-likert","414","1253311","0.0-6.0-2.58","2567649","co38677","norming","","","{""curiosity"":4,""confidence"":1}","[0,1]","../img/tt/1046tt.jpg","",""
"2344.470000010915","","","recognition","survey-text","415","1255659","0.0-6.0-3.58","2567649","co38677","norming","","","{""guess"":""vis""}","","../img/tt/1046tt.jpg","",""
"null","../img/gs/1046gs.jpg","null","reveal","image-keyboard-response","416","1257662","0.0-6.0-4.58","2567649","co38677","norming","","","","","","",""
"null","../img/tt/1046tt.jpg","null","mooney2","image-keyboard-response","417","1259664","0.0-6.0-5.58","2567649","co38677","norming","","","","","","",""
"3629.639999999199","","","post_reveal_questions","survey-likert","418","1263296","0.0-6.0-6.58","2567649","co38677","norming","","","{""aha"":2}","[0]","../img/tt/1046tt.jpg","",""
"null","<div style=""font-size:60px;""> </div>","null","fixation","html-keyboard-response","419","1263497","0.0-6.0-0.59","2567649","co38677","norming","","","","","","",""
"null","../img/tt/1086tt.jpg","null","mooney1","image-keyboard-response","420","1266500","0.0-6.0-1.59","2567649","co38677","norming","","","","","","",""
"4132.994999992661","","","post_mooney1_questions","survey-likert","421","1270635","0.0-6.0-2.59","2567649","co38677","norming","","","{""curiosity"":4,""confidence"":2}","[0,1]","../img/tt/1086tt.jpg","",""
"2912.6450000039767","","","recognition","survey-text","422","1273551","0.0-6.0-3.59","2567649","co38677","norming","","","{""guess"":""hond""}","","../img/tt/1086tt.jpg","",""
"null","../img/gs/1086gs.jpg","null","reveal","image-keyboard-response","423","1275553","0.0-6.0-4.59","2567649","co38677","norming","","","","","","",""
"null","../img/tt/1086tt.jpg","null","mooney2","image-keyboard-response","424","1277554","0.0-6.0-5.59","2567649","co38677","norming","","","","","","",""
"2982.270000007702","","","post_reveal_questions","survey-likert","425","1280538","0.0-6.0-6.59","2567649","co38677","norming","","","{""aha"":2}","[0]","../img/tt/1086tt.jpg","",""
"null","<div style=""font-size:60px;""> </div>","null","fixation","html-keyboard-response","426","1280741","0.0-6.0-0.60","2567649","co38677","norming","","","","","","",""
"null","../img/tt/1125tt.jpg","null","mooney1","image-keyboard-response","427","1283743","0.0-6.0-1.60","2567649","co38677","norming","","","","","","",""
"7146.570000011707","","","post_mooney1_questions","survey-likert","428","1290891","0.0-6.0-2.60","2567649","co38677","norming","","","{""curiosity"":4,""confidence"":0}","[0,1]","../img/tt/1125tt.jpg","",""
"1023.3350000053179","","","recognition","survey-text","429","1291918","0.0-6.0-3.60","2567649","co38677","norming","","","{""guess"":""""}","","../img/tt/1125tt.jpg","",""
"null","../img/gs/1125gs.jpg","null","reveal","image-keyboard-response","430","1293920","0.0-6.0-4.60","2567649","co38677","norming","","","","","","",""
"null","../img/tt/1125tt.jpg","null","mooney2","image-keyboard-response","431","1295921","0.0-6.0-5.60","2567649","co38677","norming","","","","","","",""
"2870.8800000022165","","","post_reveal_questions","survey-likert","432","1298794","0.0-6.0-6.60","2567649","co38677","norming","","","{""aha"":2}","[0]","../img/tt/1125tt.jpg","",""
"null","<div style=""font-size:60px;""> </div>","null","fixation","html-keyboard-response","433","1298995","0.0-6.0-0.61","2567649","co38677","norming","","","","","","",""
"null","../img/tt/1078tt.jpg","null","mooney1","image-keyboard-response","434","1301998","0.0-6.0-1.61","2567649","co38677","norming","","","","","","",""
"4217.9550000000745","","","post_mooney1_questions","survey-likert","435","1306218","0.0-6.0-2.61","2567649","co38677","norming","","","{""curiosity"":2,""confidence"":5}","[0,1]","../img/tt/1078tt.jpg","",""
"3026.6300000075717","","","recognition","survey-text","436","1309247","0.0-6.0-3.61","2567649","co38677","norming","","","{""guess"":""skaten""}","","../img/tt/1078tt.jpg","",""
"null","../img/gs/1078gs.jpg","null","reveal","image-keyboard-response","437","1311250","0.0-6.0-4.61","2567649","co38677","norming","","","","","","",""
"null","../img/tt/1078tt.jpg","null","mooney2","image-keyboard-response","438","1313251","0.0-6.0-5.61","2567649","co38677","norming","","","","","","",""
"3186.3350000057835","","","post_reveal_questions","survey-likert","439","1316439","0.0-6.0-6.61","2567649","co38677","norming","","","{""aha"":1}","[0]","../img/tt/1078tt.jpg","",""
"null","<div style=""font-size:60px;""> </div>","null","fixation","html-keyboard-response","440","1316641","0.0-6.0-0.62","2567649","co38677","norming","","","","","","",""
"null","../img/tt/436tt.jpg","null","mooney1","image-keyboard-response","441","1319643","0.0-6.0-1.62","2567649","co38677","norming","","","","","","",""
"4259.66999999946","","","post_mooney1_questions","survey-likert","442","1323905","0.0-6.0-2.62","2567649","co38677","norming","","","{""curiosity"":3,""confidence"":2}","[0,1]","../img/tt/436tt.jpg","",""
"2727.0100000023376","","","recognition","survey-text","443","1326635","0.0-6.0-3.62","2567649","co38677","norming","","","{""guess"":""leguaan""}","","../img/tt/436tt.jpg","",""
"null","../img/gs/436gs.jpg","null","reveal","image-keyboard-response","444","1328637","0.0-6.0-4.62","2567649","co38677","norming","","","","","","",""
"null","../img/tt/436tt.jpg","null","mooney2","image-keyboard-response","445","1330639","0.0-6.0-5.62","2567649","co38677","norming","","","","","","",""
"3465.825000021141","","","post_reveal_questions","survey-likert","446","1334106","0.0-6.0-6.62","2567649","co38677","norming","","","{""aha"":1}","[0]","../img/tt/436tt.jpg","",""
"null","<div style=""font-size:60px;""> </div>","null","fixation","html-keyboard-response","447","1334309","0.0-6.0-0.63","2567649","co38677","norming","","","","","","",""
"null","../img/tt/055tt.jpg","null","mooney1","image-keyboard-response","448","1337311","0.0-6.0-1.63","2567649","co38677","norming","","","","","","",""
"4923.69000002509","","","post_mooney1_questions","survey-likert","449","1342237","0.0-6.0-2.63","2567649","co38677","norming","","","{""curiosity"":4,""confidence"":1}","[0,1]","../img/tt/055tt.jpg","",""
"2497.525000013411","","","recognition","survey-text","450","1344737","0.0-6.0-3.63","2567649","co38677","norming","","","{""guess"":""golfer""}","","../img/tt/055tt.jpg","",""
"null","../img/gs/055gs.jpg","null","reveal","image-keyboard-response","451","1346740","0.0-6.0-4.63","2567649","co38677","norming","","","","","","",""
"null","../img/tt/055tt.jpg","null","mooney2","image-keyboard-response","452","1348742","0.0-6.0-5.63","2567649","co38677","norming","","","","","","",""
"3103.0350000073668","","","post_reveal_questions","survey-likert","453","1351847","0.0-6.0-6.63","2567649","co38677","norming","","","{""aha"":2}","[0]","../img/tt/055tt.jpg","",""
"null","<div style=""font-size:60px;""> </div>","null","fixation","html-keyboard-response","454","1352049","0.0-6.0-0.64","2567649","co38677","norming","","","","","","",""
"null","../img/tt/1199tt.jpg","null","mooney1","image-keyboard-response","455","1355051","0.0-6.0-1.64","2567649","co38677","norming","","","","","","",""
"7499.324999982491","","","post_mooney1_questions","survey-likert","456","1362552","0.0-6.0-2.64","2567649","co38677","norming","","","{""curiosity"":4,""confidence"":1}","[0,1]","../img/tt/1199tt.jpg","",""
"3721.724999981234","","","recognition","survey-text","457","1366277","0.0-6.0-3.64","2567649","co38677","norming","","","{""guess"":""balletdanser""}","","../img/tt/1199tt.jpg","",""
"null","../img/gs/1199gs.jpg","null","reveal","image-keyboard-response","458","1368280","0.0-6.0-4.64","2567649","co38677","norming","","","","","","",""
"null","../img/tt/1199tt.jpg","null","mooney2","image-keyboard-response","459","1370281","0.0-6.0-5.64","2567649","co38677","norming","","","","","","",""
"2804.660000023432","","","post_reveal_questions","survey-likert","460","1373087","0.0-6.0-6.64","2567649","co38677","norming","","","{""aha"":2}","[0]","../img/tt/1199tt.jpg","",""
"null","<div style=""font-size:60px;""> </div>","null","fixation","html-keyboard-response","461","1373290","0.0-6.0-0.65","2567649","co38677","norming","","","","","","",""
"null","../img/tt/1362tt.jpg","null","mooney1","image-keyboard-response","462","1376292","0.0-6.0-1.65","2567649","co38677","norming","","","","","","",""
"4547.509999974864","","","post_mooney1_questions","survey-likert","463","1380841","0.0-6.0-2.65","2567649","co38677","norming","","","{""curiosity"":4,""confidence"":2}","[0,1]","../img/tt/1362tt.jpg","",""
"4569.419999985257","","","recognition","survey-text","464","1385413","0.0-6.0-3.65","2567649","co38677","norming","","","{""guess"":""fornuis""}","","../img/tt/1362tt.jpg","",""
"null","../img/gs/1362gs.jpg","null","reveal","image-keyboard-response","465","1387416","0.0-6.0-4.65","2567649","co38677","norming","","","","","","",""
"null","../img/tt/1362tt.jpg","null","mooney2","image-keyboard-response","466","1389417","0.0-6.0-5.65","2567649","co38677","norming","","","","","","",""
"2405.2599999995437","","","post_reveal_questions","survey-likert","467","1391824","0.0-6.0-6.65","2567649","co38677","norming","","","{""aha"":1}","[0]","../img/tt/1362tt.jpg","",""
"null","<div style=""font-size:60px;""> </div>","null","fixation","html-keyboard-response","468","1392027","0.0-6.0-0.66","2567649","co38677","norming","","","","","","",""
"null","../img/tt/524tt.jpg","null","mooney1","image-keyboard-response","469","1395029","0.0-6.0-1.66","2567649","co38677","norming","","","","","","",""
"4619.514999998501","","","post_mooney1_questions","survey-likert","470","1399651","0.0-6.0-2.66","2567649","co38677","norming","","","{""curiosity"":2,""confidence"":0}","[0,1]","../img/tt/524tt.jpg","",""
"1487.1400000120047","","","recognition","survey-text","471","1401141","0.0-6.0-3.66","2567649","co38677","norming","","","{""guess"":""""}","","../img/tt/524tt.jpg","",""
"null","../img/gs/524gs.jpg","null","reveal","image-keyboard-response","472","1403143","0.0-6.0-4.66","2567649","co38677","norming","","","","","","",""
"null","../img/tt/524tt.jpg","null","mooney2","image-keyboard-response","473","1405144","0.0-6.0-5.66","2567649","co38677","norming","","","","","","",""
"2715.9650000103284","","","post_reveal_questions","survey-likert","474","1407862","0.0-6.0-6.66","2567649","co38677","norming","","","{""aha"":1}","[0]","../img/tt/524tt.jpg","",""
"null","<div style=""font-size:60px;""> </div>","null","fixation","html-keyboard-response","475","1408064","0.0-6.0-0.67","2567649","co38677","norming","","","","","","",""
"null","../img/tt/081tt.jpg","null","mooney1","image-keyboard-response","476","1411067","0.0-6.0-1.67","2567649","co38677","norming","","","","","","",""
"4034.249999996973","","","post_mooney1_questions","survey-likert","477","1415103","0.0-6.0-2.67","2567649","co38677","norming","","","{""curiosity"":3,""confidence"":3}","[0,1]","../img/tt/081tt.jpg","",""
"2787.3250000120606","","","recognition","survey-text","478","1417893","0.0-6.0-3.67","2567649","co38677","norming","","","{""guess"":""kikker""}","","../img/tt/081tt.jpg","",""
"null","../img/gs/081gs.jpg","null","reveal","image-keyboard-response","479","1419896","0.0-6.0-4.67","2567649","co38677","norming","","","","","","",""
"null","../img/tt/081tt.jpg","null","mooney2","image-keyboard-response","480","1421898","0.0-6.0-5.67","2567649","co38677","norming","","","","","","",""
"4537.174999975832","","","post_reveal_questions","survey-likert","481","1426437","0.0-6.0-6.67","2567649","co38677","norming","","","{""aha"":1}","[0]","../img/tt/081tt.jpg","",""
"null","<div style=""font-size:60px;""> </div>","null","fixation","html-keyboard-response","482","1426640","0.0-6.0-0.68","2567649","co38677","norming","","","","","","",""
"null","../img/tt/1154tt.jpg","null","mooney1","image-keyboard-response","483","1429642","0.0-6.0-1.68","2567649","co38677","norming","","","","","","",""
"4124.119999993127","","","post_mooney1_questions","survey-likert","484","1433768","0.0-6.0-2.68","2567649","co38677","norming","","","{""curiosity"":4,""confidence"":0}","[0,1]","../img/tt/1154tt.jpg","",""
"1276.1950000131037","","","recognition","survey-text","485","1435048","0.0-6.0-3.68","2567649","co38677","norming","","","{""guess"":""""}","","../img/tt/1154tt.jpg","",""
"null","../img/gs/1154gs.jpg","null","reveal","image-keyboard-response","486","1437049","0.0-6.0-4.68","2567649","co38677","norming","","","","","","",""
"null","../img/tt/1154tt.jpg","null","mooney2","image-keyboard-response","487","1439051","0.0-6.0-5.68","2567649","co38677","norming","","","","","","",""
"2246.704999997746","","","post_reveal_questions","survey-likert","488","1441299","0.0-6.0-6.68","2567649","co38677","norming","","","{""aha"":0}","[0]","../img/tt/1154tt.jpg","",""
"null","<div style=""font-size:60px;""> </div>","null","fixation","html-keyboard-response","489","1441501","0.0-6.0-0.69","2567649","co38677","norming","","","","","","",""
"null","../img/tt/603tt.jpg","null","mooney1","image-keyboard-response","490","1444504","0.0-6.0-1.69","2567649","co38677","norming","","","","","","",""
"4732.690000004368","","","post_mooney1_questions","survey-likert","491","1449239","0.0-6.0-2.69","2567649","co38677","norming","","","{""curiosity"":4,""confidence"":2}","[0,1]","../img/tt/603tt.jpg","",""
"1880.4149999923538","","","recognition","survey-text","492","1451123","0.0-6.0-3.69","2567649","co38677","norming","","","{""guess"":""kat""}","","../img/tt/603tt.jpg","",""
"null","../img/gs/603gs.jpg","null","reveal","image-keyboard-response","493","1453125","0.0-6.0-4.69","2567649","co38677","norming","","","","","","",""
"null","../img/tt/603tt.jpg","null","mooney2","image-keyboard-response","494","1455128","0.0-6.0-5.69","2567649","co38677","norming","","","","","","",""
"2300.454999989597","","","post_reveal_questions","survey-likert","495","1457430","0.0-6.0-6.69","2567649","co38677","norming","","","{""aha"":1}","[0]","../img/tt/603tt.jpg","",""
"null","<div style=""font-size:60px;""> </div>","null","fixation","html-keyboard-response","496","1457633","0.0-6.0-0.70","2567649","co38677","norming","","","","","","",""
"null","../img/tt/353tt.jpg","null","mooney1","image-keyboard-response","497","1460635","0.0-6.0-1.70","2567649","co38677","norming","","","","","","",""
"5468.465000012657","","","post_mooney1_questions","survey-likert","498","1466106","0.0-6.0-2.70","2567649","co38677","norming","","","{""curiosity"":4,""confidence"":4}","[0,1]","../img/tt/353tt.jpg","",""
"4120.824999990873","","","recognition","survey-text","499","1470230","0.0-6.0-3.70","2567649","co38677","norming","","","{""guess"":""pinguin""}","","../img/tt/353tt.jpg","",""
"null","../img/gs/353gs.jpg","null","reveal","image-keyboard-response","500","1472232","0.0-6.0-4.70","2567649","co38677","norming","","","","","","",""
"null","../img/tt/353tt.jpg","null","mooney2","image-keyboard-response","501","1474234","0.0-6.0-5.70","2567649","co38677","norming","","","","","","",""
"3391.849999985425","","","post_reveal_questions","survey-likert","502","1477628","0.0-6.0-6.70","2567649","co38677","norming","","","{""aha"":1}","[0]","../img/tt/353tt.jpg","",""
"null","<div style=""font-size:60px;""> </div>","null","fixation","html-keyboard-response","503","1477830","0.0-6.0-0.71","2567649","co38677","norming","","","","","","",""
"null","../img/tt/1268tt.jpg","null","mooney1","image-keyboard-response","504","1480832","0.0-6.0-1.71","2567649","co38677","norming","","","","","","",""
"5808.144999988144","","","post_mooney1_questions","survey-likert","505","1486642","0.0-6.0-2.71","2567649","co38677","norming","","","{""curiosity"":4,""confidence"":3}","[0,1]","../img/tt/1268tt.jpg","",""
"3103.3950000128243","","","recognition","survey-text","506","1489749","0.0-6.0-3.71","2567649","co38677","norming","","","{""guess"":""eekhoorn""}","","../img/tt/1268tt.jpg","",""
"null","../img/gs/1268gs.jpg","null","reveal","image-keyboard-response","507","1491751","0.0-6.0-4.71","2567649","co38677","norming","","","","","","",""
"null","../img/tt/1268tt.jpg","null","mooney2","image-keyboard-response","508","1493753","0.0-6.0-5.71","2567649","co38677","norming","","","","","","",""
"3333.554999990156","","","post_reveal_questions","survey-likert","509","1497088","0.0-6.0-6.71","2567649","co38677","norming","","","{""aha"":1}","[0]","../img/tt/1268tt.jpg","",""
"null","<div style=""font-size:60px;""> </div>","null","fixation","html-keyboard-response","510","1497291","0.0-6.0-0.72","2567649","co38677","norming","","","","","","",""
"null","../img/tt/1116tt.jpg","null","mooney1","image-keyboard-response","511","1500292","0.0-6.0-1.72","2567649","co38677","norming","","","","","","",""
"4060.719999979483","","","post_mooney1_questions","survey-likert","512","1504355","0.0-6.0-2.72","2567649","co38677","norming","","","{""curiosity"":4,""confidence"":1}","[0,1]","../img/tt/1116tt.jpg","",""
"2909.014999982901","","","recognition","survey-text","513","1507267","0.0-6.0-3.72","2567649","co38677","norming","","","{""guess"":""roeiboten""}","","../img/tt/1116tt.jpg","",""
"null","../img/gs/1116gs.jpg","null","reveal","image-keyboard-response","514","1509269","0.0-6.0-4.72","2567649","co38677","norming","","","","","","",""
"null","../img/tt/1116tt.jpg","null","mooney2","image-keyboard-response","515","1511270","0.0-6.0-5.72","2567649","co38677","norming","","","","","","",""
"2839.959999982966","","","post_reveal_questions","survey-likert","516","1514112","0.0-6.0-6.72","2567649","co38677","norming","","","{""aha"":2}","[0]","../img/tt/1116tt.jpg","",""
"null","<div style=""font-size:60px;""> </div>","null","fixation","html-keyboard-response","517","1514314","0.0-6.0-0.73","2567649","co38677","norming","","","","","","",""
"null","../img/tt/1096tt.jpg","null","mooney1","image-keyboard-response","518","1517317","0.0-6.0-1.73","2567649","co38677","norming","","","","","","",""
"4847.925000009127","","","post_mooney1_questions","survey-likert","519","1522167","0.0-6.0-2.73","2567649","co38677","norming","","","{""curiosity"":3,""confidence"":2}","[0,1]","../img/tt/1096tt.jpg","",""
"4181.845000013709","","","recognition","survey-text","520","1526352","0.0-6.0-3.73","2567649","co38677","norming","","","{""guess"":""paardenstal""}","","../img/tt/1096tt.jpg","",""
"null","../img/gs/1096gs.jpg","null","reveal","image-keyboard-response","521","1528355","0.0-6.0-4.73","2567649","co38677","norming","","","","","","",""
"null","../img/tt/1096tt.jpg","null","mooney2","image-keyboard-response","522","1530356","0.0-6.0-5.73","2567649","co38677","norming","","","","","","",""
"4268.175000004703","","","post_reveal_questions","survey-likert","523","1534626","0.0-6.0-6.73","2567649","co38677","norming","","","{""aha"":2}","[0]","../img/tt/1096tt.jpg","",""
"null","<div style=""font-size:60px;""> </div>","null","fixation","html-keyboard-response","524","1534828","0.0-6.0-0.74","2567649","co38677","norming","","","","","","",""
"null","../img/tt/1275tt.jpg","null","mooney1","image-keyboard-response","525","1537830","0.0-6.0-1.74","2567649","co38677","norming","","","","","","",""
"4180.660000012722","","","post_mooney1_questions","survey-likert","526","1542013","0.0-6.0-2.74","2567649","co38677","norming","","","{""curiosity"":4,""confidence"":3}","[0,1]","../img/tt/1275tt.jpg","",""
"3587.8349999838974","","","recognition","survey-text","527","1545604","0.0-6.0-3.74","2567649","co38677","norming","","","{""guess"":""everzwijn""}","","../img/tt/1275tt.jpg","",""
"null","../img/gs/1275gs.jpg","null","reveal","image-keyboard-response","528","1547607","0.0-6.0-4.74","2567649","co38677","norming","","","","","","",""
"null","../img/tt/1275tt.jpg","null","mooney2","image-keyboard-response","529","1549608","0.0-6.0-5.74","2567649","co38677","norming","","","","","","",""
"2483.590000018012","","","post_reveal_questions","survey-likert","530","1552094","0.0-6.0-6.74","2567649","co38677","norming","","","{""aha"":1}","[0]","../img/tt/1275tt.jpg","",""
"null","<div style=""font-size:60px;""> </div>","null","fixation","html-keyboard-response","531","1552296","0.0-6.0-0.75","2567649","co38677","norming","","","","","","",""
"null","../img/tt/194tt.jpg","null","mooney1","image-keyboard-response","532","1555297","0.0-6.0-1.75","2567649","co38677","norming","","","","","","",""
"5212.469999998575","","","post_mooney1_questions","survey-likert","533","1560512","0.0-6.0-2.75","2567649","co38677","norming","","","{""curiosity"":3,""confidence"":5}","[0,1]","../img/tt/194tt.jpg","",""
"4067.7100000029895","","","recognition","survey-text","534","1564584","0.0-6.0-3.75","2567649","co38677","norming","","","{""guess"":""harpspeelster""}","","../img/tt/194tt.jpg","",""
"null","../img/gs/194gs.jpg","null","reveal","image-keyboard-response","535","1566586","0.0-6.0-4.75","2567649","co38677","norming","","","","","","",""
"null","../img/tt/194tt.jpg","null","mooney2","image-keyboard-response","536","1568588","0.0-6.0-5.75","2567649","co38677","norming","","","","","","",""
"2722.4399999831803","","","post_reveal_questions","survey-likert","537","1571312","0.0-6.0-6.75","2567649","co38677","norming","","","{""aha"":1}","[0]","../img/tt/194tt.jpg","",""
"null","<div style=""font-size:60px;""> </div>","null","fixation","html-keyboard-response","538","1571514","0.0-6.0-0.76","2567649","co38677","norming","","","","","","",""
"null","../img/tt/1084tt.jpg","null","mooney1","image-keyboard-response","539","1574516","0.0-6.0-1.76","2567649","co38677","norming","","","","","","",""
"4832.154999981867","","","post_mooney1_questions","survey-likert","540","1579351","0.0-6.0-2.76","2567649","co38677","norming","","","{""curiosity"":4,""confidence"":0}","[0,1]","../img/tt/1084tt.jpg","",""
"1050.0649999885354","","","recognition","survey-text","541","1580404","0.0-6.0-3.76","2567649","co38677","norming","","","{""guess"":""""}","","../img/tt/1084tt.jpg","",""
"null","../img/gs/1084gs.jpg","null","reveal","image-keyboard-response","542","1582406","0.0-6.0-4.76","2567649","co38677","norming","","","","","","",""
"null","../img/tt/1084tt.jpg","null","mooney2","image-keyboard-response","543","1584407","0.0-6.0-5.76","2567649","co38677","norming","","","","","","",""
"3125.3100000030827","","","post_reveal_questions","survey-likert","544","1587534","0.0-6.0-6.76","2567649","co38677","norming","","","{""aha"":2}","[0]","../img/tt/1084tt.jpg","",""
"null","<div style=""font-size:60px;""> </div>","null","fixation","html-keyboard-response","545","1587737","0.0-6.0-0.77","2567649","co38677","norming","","","","","","",""
"null","../img/tt/163tt.jpg","null","mooney1","image-keyboard-response","546","1590738","0.0-6.0-1.77","2567649","co38677","norming","","","","","","",""
"4199.9549999891315","","","post_mooney1_questions","survey-likert","547","1594940","0.0-6.0-2.77","2567649","co38677","norming","","","{""curiosity"":2,""confidence"":5}","[0,1]","../img/tt/163tt.jpg","",""
"3297.7050000044983","","","recognition","survey-text","548","1598241","0.0-6.0-3.77","2567649","co38677","norming","","","{""guess"":""kikker""}","","../img/tt/163tt.jpg","",""
"null","../img/gs/163gs.jpg","null","reveal","image-keyboard-response","549","1600243","0.0-6.0-4.77","2567649","co38677","norming","","","","","","",""
"null","../img/tt/163tt.jpg","null","mooney2","image-keyboard-response","550","1602244","0.0-6.0-5.77","2567649","co38677","norming","","","","","","",""
"3097.7549999952316","","","post_reveal_questions","survey-likert","551","1605344","0.0-6.0-6.77","2567649","co38677","norming","","","{""aha"":1}","[0]","../img/tt/163tt.jpg","",""
"null","<div style=""font-size:60px;""> </div>","null","fixation","html-keyboard-response","552","1605546","0.0-6.0-0.78","2567649","co38677","norming","","","","","","",""
