"rt","stimulus","key_press","test_part","trial_type","trial_index","time_elapsed","internal_node_id","totalTime","subject","experiment_name","button_pressed","success","responses","question_order","currentStim","old","correct"
"5516","Welcome to the experiment. This is an online experiment so please don't close the tab/window until we say goodbye.  Press any key to begin.","32","instructions","html-keyboard-response","0","5536","0.0-0.0","3048237","co38704","norming","","","","","","",""
"26074","<div style='word-wrap: break-word; width: 900px'><h3>Please consider this information carefully before deciding whether to participate in this research</h3><ul style='text-align: left; font-size: .8em;'><li><b>Purpose of the research</b>: To examine how people process images.</li><li><b>What you will do in this research</b>:  Stimuli (images) will be presented on the computer and you will be asked different questions about them.</li><li><b>Time required</b>: Participation will take between 45 and 60 minutes to complete.</li><li><b>Risks</b>:  There are no anticipated risks associated with participating in this study. The effects of participating should be comparable to those you would experience from viewing a computer monitor for 30 minutes and using a mouse or keyboard.</li><li><b>Benefits</b>:  This study provides no benefits to you individually except for the credit. The study provides important information about the nature of perception and learning.</li><li><b>Confidentiality</b>:  Your participation in this study will remain confidential. No personally identifiable information will be associated with your data. Your de-identified data may be shared with other researchers and used in future projects.</li><li><b>Participation and withdrawal</b>:  Your participation in this study is completely voluntary and you may refuse to participate or you may choose to withdraw at any time without penalty.</li><li><b>How to contact the researchers</b>: If you have questions or concerns about your participation or payment, or want to request a summary of research findings, please contact Sander Van de Cruys (KU Leuven), at sander.vandecruys@kuleuven.be.</li></ul><p>The nature and purpose of this research have been sufficiently explained and I agree to participate in this study.  I understand that I am free to withdraw at any time without incurring any penalty.</p><p>Please consent by clicking the button below to continue. Otherwise, please exit the study at this time.</p></div>","","instructions","html-button-response","1","31612","0.0-1.0","3048237","co38704","norming","0","","","","","",""
"","","","instructions","fullscreen","2","35953","0.0-2.0","3048237","co38704","norming","","true","","","","",""
"64117.99999999999","","","sona","survey-html-form","3","100074","0.0-3.0","3048237","co38704","norming","","","[{""name"":""sonaid"",""value"":""38704""},{""name"":""debrief"",""value"":""no""},{""name"":""datajoin"",""value"":""yes""}]","","","",""
"193236","<div style='word-wrap: break-word; width: 900px'><h3>Instructions</h3><p>This experiment will have 3 parts. In the first part you will see a series of distorted images like the one below on the left. As you can see in the righthand image, the distorted images are derived from actual photographs. In what follows, you will <strong>briefly</strong> be presented with <strong>only</strong> the distorted image.</p> <div style='float: left; margin-right: 20px;'><img src='../img/018tt.jpg' height='250' width='250'></img></div><div style='float: right; margin-left: 20px;'><img src='../img/018gs.jpg' height='250' width='250'></img></div><p>Subsequently you will be asked a few questions about the image: One question on how <strong>curious</strong> you are about the solution and one on how <strong>confident</strong> you are that you know the solution.</p>Next, we ask you to make a guess on what is in the image. Note that it is OK to name just the <strong>basic level category</strong>. For example when you see a parrot in the image, 'parrot' will obviously be a correct answer but also correct is 'bird'. However, 'animal' will <strong>not</strong> be counted as a correct response. For the example above, 'rose' would be correct or 'flower', but not 'plant'. When soccer players are depicted, 'soccer', 'football', 'soccer players' will be correct, but not 'humans', 'outdoors', or 'sports'. You do not need to describe the image in full, just name the main object in it <strong>in one or two words</strong>. All images depict objects from one of the following broad level categories: animals, inanimate objects, plants, sports, vehicles, and food. Recognizing means knowing <strong>more</strong> than these broad labels for a given image. But we always encourage you to <strong>make a guess</strong> if you can. Note that you are allowed to use <strong>Dutch and English</strong> in your answers, whatever comes easiest for you.</p><p>Press any key to continue.</p></div>","32","instructions","html-keyboard-response","4","293316","0.0-4.0","3048237","co38704","norming","","","","","","",""
"24441","<div style='word-wrap: break-word; width: 900px'><h3>Instructions</h3> <p>Next, the solution image will be revealed to you and you'll be asked to indicate how strong your <strong>aha-experience</strong> was after seeing the solution. This describes the positive feeling of the 'click' you sometimes experience, when the pieces of the 'puzzle' fall together and you suddenly have 'insight' in the image.</p><img src='aha.jpg' height='188' width='250'></img><p>Note that there are no right or wrong answers. We are interested in what <strong>you</strong> see in the image and how <strong>you</strong> feel about it.</p><p>Press any key to start the experiment.</p></div>","32","instructions","html-keyboard-response","5","317759","0.0-5.0","3048237","co38704","norming","","","","","","",""
"null","<div style=""font-size:60px;""> </div>","null","fixation","html-keyboard-response","6","317961","0.0-6.0-0.0","3048237","co38704","norming","","","","","","",""
"null","../img/tt/194tt.jpg","null","mooney1","image-keyboard-response","7","320964","0.0-6.0-1.0","3048237","co38704","norming","","","","","","",""
"6732","","","post_mooney1_questions","survey-likert","8","327697","0.0-6.0-2.0","3048237","co38704","norming","","","{""curiosity"":4,""confidence"":2}","[0,1]","../img/tt/194tt.jpg","",""
"5932","","","recognition","survey-text","9","333635","0.0-6.0-3.0","3048237","co38704","norming","","","{""guess"":""bench""}","","../img/tt/194tt.jpg","",""
"null","../img/gs/194gs.jpg","null","reveal","image-keyboard-response","10","335637","0.0-6.0-4.0","3048237","co38704","norming","","","","","","",""
"null","../img/tt/194tt.jpg","null","mooney2","image-keyboard-response","11","337640","0.0-6.0-5.0","3048237","co38704","norming","","","","","","",""
"3880.999999999942","","","post_reveal_questions","survey-likert","12","341522","0.0-6.0-6.0","3048237","co38704","norming","","","{""aha"":4}","[0]","../img/tt/194tt.jpg","",""
"null","<div style=""font-size:60px;""> </div>","null","fixation","html-keyboard-response","13","341725","0.0-6.0-0.1","3048237","co38704","norming","","","","","","",""
"null","../img/tt/1102tt.jpg","null","mooney1","image-keyboard-response","14","344727","0.0-6.0-1.1","3048237","co38704","norming","","","","","","",""
"7840","","","post_mooney1_questions","survey-likert","15","352569","0.0-6.0-2.1","3048237","co38704","norming","","","{""curiosity"":6,""confidence"":4}","[0,1]","../img/tt/1102tt.jpg","",""
"4404","","","recognition","survey-text","16","356978","0.0-6.0-3.1","3048237","co38704","norming","","","{""guess"":""boat""}","","../img/tt/1102tt.jpg","",""
"null","../img/gs/1102gs.jpg","null","reveal","image-keyboard-response","17","358981","0.0-6.0-4.1","3048237","co38704","norming","","","","","","",""
"null","../img/tt/1102tt.jpg","null","mooney2","image-keyboard-response","18","360983","0.0-6.0-5.1","3048237","co38704","norming","","","","","","",""
"3026","","","post_reveal_questions","survey-likert","19","364010","0.0-6.0-6.1","3048237","co38704","norming","","","{""aha"":1}","[0]","../img/tt/1102tt.jpg","",""
"null","<div style=""font-size:60px;""> </div>","null","fixation","html-keyboard-response","20","364213","0.0-6.0-0.2","3048237","co38704","norming","","","","","","",""
"null","../img/tt/1217tt.jpg","null","mooney1","image-keyboard-response","21","367216","0.0-6.0-1.2","3048237","co38704","norming","","","","","","",""
"10345","","","post_mooney1_questions","survey-likert","22","377563","0.0-6.0-2.2","3048237","co38704","norming","","","{""curiosity"":6,""confidence"":0}","[0,1]","../img/tt/1217tt.jpg","",""
"2709","","","recognition","survey-text","23","380278","0.0-6.0-3.2","3048237","co38704","norming","","","{""guess"":""cow""}","","../img/tt/1217tt.jpg","",""
"null","../img/gs/1217gs.jpg","null","reveal","image-keyboard-response","24","382280","0.0-6.0-4.2","3048237","co38704","norming","","","","","","",""
"null","../img/tt/1217tt.jpg","null","mooney2","image-keyboard-response","25","384283","0.0-6.0-5.2","3048237","co38704","norming","","","","","","",""
"3520","","","post_reveal_questions","survey-likert","26","387804","0.0-6.0-6.2","3048237","co38704","norming","","","{""aha"":4}","[0]","../img/tt/1217tt.jpg","",""
"null","<div style=""font-size:60px;""> </div>","null","fixation","html-keyboard-response","27","388007","0.0-6.0-0.3","3048237","co38704","norming","","","","","","",""
"null","../img/tt/084tt.jpg","null","mooney1","image-keyboard-response","28","391010","0.0-6.0-1.3","3048237","co38704","norming","","","","","","",""
"6617","","","post_mooney1_questions","survey-likert","29","397628","0.0-6.0-2.3","3048237","co38704","norming","","","{""curiosity"":3,""confidence"":5}","[0,1]","../img/tt/084tt.jpg","",""
"2082.000000000058","","","recognition","survey-text","30","399714","0.0-6.0-3.3","3048237","co38704","norming","","","{""guess"":""duif""}","","../img/tt/084tt.jpg","",""
"null","../img/gs/084gs.jpg","null","reveal","image-keyboard-response","31","401716","0.0-6.0-4.3","3048237","co38704","norming","","","","","","",""
"null","../img/tt/084tt.jpg","null","mooney2","image-keyboard-response","32","403718","0.0-6.0-5.3","3048237","co38704","norming","","","","","","",""
"7493","","","post_reveal_questions","survey-likert","33","411212","0.0-6.0-6.3","3048237","co38704","norming","","","{""aha"":2}","[0]","../img/tt/084tt.jpg","",""
"null","<div style=""font-size:60px;""> </div>","null","fixation","html-keyboard-response","34","411414","0.0-6.0-0.4","3048237","co38704","norming","","","","","","",""
"null","../img/tt/1069tt.jpg","null","mooney1","image-keyboard-response","35","414417","0.0-6.0-1.4","3048237","co38704","norming","","","","","","",""
"5166.000000000058","","","post_mooney1_questions","survey-likert","36","419585","0.0-6.0-2.4","3048237","co38704","norming","","","{""curiosity"":4,""confidence"":1}","[0,1]","../img/tt/1069tt.jpg","",""
"3441","","","recognition","survey-text","37","423032","0.0-6.0-3.4","3048237","co38704","norming","","","{""guess"":""mountains""}","","../img/tt/1069tt.jpg","",""
"null","../img/gs/1069gs.jpg","null","reveal","image-keyboard-response","38","425034","0.0-6.0-4.4","3048237","co38704","norming","","","","","","",""
"null","../img/tt/1069tt.jpg","null","mooney2","image-keyboard-response","39","427037","0.0-6.0-5.4","3048237","co38704","norming","","","","","","",""
"2206","","","post_reveal_questions","survey-likert","40","429244","0.0-6.0-6.4","3048237","co38704","norming","","","{""aha"":6}","[0]","../img/tt/1069tt.jpg","",""
"null","<div style=""font-size:60px;""> </div>","null","fixation","html-keyboard-response","41","429446","0.0-6.0-0.5","3048237","co38704","norming","","","","","","",""
"null","../img/tt/094tt.jpg","null","mooney1","image-keyboard-response","42","432448","0.0-6.0-1.5","3048237","co38704","norming","","","","","","",""
"7839","","","post_mooney1_questions","survey-likert","43","440289","0.0-6.0-2.5","3048237","co38704","norming","","","{""curiosity"":5,""confidence"":1}","[0,1]","../img/tt/094tt.jpg","",""
"1580","","","recognition","survey-text","44","441874","0.0-6.0-3.5","3048237","co38704","norming","","","{""guess"":""dog""}","","../img/tt/094tt.jpg","",""
"null","../img/gs/094gs.jpg","null","reveal","image-keyboard-response","45","443876","0.0-6.0-4.5","3048237","co38704","norming","","","","","","",""
"null","../img/tt/094tt.jpg","null","mooney2","image-keyboard-response","46","445878","0.0-6.0-5.5","3048237","co38704","norming","","","","","","",""
"4304","","","post_reveal_questions","survey-likert","47","450183","0.0-6.0-6.5","3048237","co38704","norming","","","{""aha"":5}","[0]","../img/tt/094tt.jpg","",""
"null","<div style=""font-size:60px;""> </div>","null","fixation","html-keyboard-response","48","450386","0.0-6.0-0.6","3048237","co38704","norming","","","","","","",""
"null","../img/tt/085tt.jpg","null","mooney1","image-keyboard-response","49","453388","0.0-6.0-1.6","3048237","co38704","norming","","","","","","",""
"11043","","","post_mooney1_questions","survey-likert","50","464432","0.0-6.0-2.6","3048237","co38704","norming","","","{""curiosity"":4,""confidence"":0}","[0,1]","../img/tt/085tt.jpg","",""
"14000","","","recognition","survey-text","51","478437","0.0-6.0-3.6","3048237","co38704","norming","","","{""guess"":""hockeyplager""}","","../img/tt/085tt.jpg","",""
"null","../img/gs/085gs.jpg","null","reveal","image-keyboard-response","52","480440","0.0-6.0-4.6","3048237","co38704","norming","","","","","","",""
"null","../img/tt/085tt.jpg","null","mooney2","image-keyboard-response","53","482442","0.0-6.0-5.6","3048237","co38704","norming","","","","","","",""
"2083.000000000058","","","post_reveal_questions","survey-likert","54","484526","0.0-6.0-6.6","3048237","co38704","norming","","","{""aha"":6}","[0]","../img/tt/085tt.jpg","",""
"null","<div style=""font-size:60px;""> </div>","null","fixation","html-keyboard-response","55","484729","0.0-6.0-0.7","3048237","co38704","norming","","","","","","",""
"null","../img/tt/477tt.jpg","null","mooney1","image-keyboard-response","56","487732","0.0-6.0-1.7","3048237","co38704","norming","","","","","","",""
"3307","","","post_mooney1_questions","survey-likert","57","491040","0.0-6.0-2.7","3048237","co38704","norming","","","{""curiosity"":5,""confidence"":1}","[0,1]","../img/tt/477tt.jpg","",""
"3661","","","recognition","survey-text","58","494706","0.0-6.0-3.7","3048237","co38704","norming","","","{""guess"":""bear""}","","../img/tt/477tt.jpg","",""
"null","../img/gs/477gs.jpg","null","reveal","image-keyboard-response","59","496708","0.0-6.0-4.7","3048237","co38704","norming","","","","","","",""
"null","../img/tt/477tt.jpg","null","mooney2","image-keyboard-response","60","498711","0.0-6.0-5.7","3048237","co38704","norming","","","","","","",""
"1766.0000000000582","","","post_reveal_questions","survey-likert","61","500478","0.0-6.0-6.7","3048237","co38704","norming","","","{""aha"":1}","[0]","../img/tt/477tt.jpg","",""
"null","<div style=""font-size:60px;""> </div>","null","fixation","html-keyboard-response","62","500680","0.0-6.0-0.8","3048237","co38704","norming","","","","","","",""
"null","../img/tt/1084tt.jpg","null","mooney1","image-keyboard-response","63","503682","0.0-6.0-1.8","3048237","co38704","norming","","","","","","",""
"4277","","","post_mooney1_questions","survey-likert","64","507960","0.0-6.0-2.8","3048237","co38704","norming","","","{""curiosity"":1,""confidence"":0}","[0,1]","../img/tt/1084tt.jpg","",""
"7658","","","recognition","survey-text","65","515624","0.0-6.0-3.8","3048237","co38704","norming","","","{""guess"":""tree""}","","../img/tt/1084tt.jpg","",""
"null","../img/gs/1084gs.jpg","null","reveal","image-keyboard-response","66","517627","0.0-6.0-4.8","3048237","co38704","norming","","","","","","",""
"null","../img/tt/1084tt.jpg","null","mooney2","image-keyboard-response","67","519629","0.0-6.0-5.8","3048237","co38704","norming","","","","","","",""
"2138","","","post_reveal_questions","survey-likert","68","521768","0.0-6.0-6.8","3048237","co38704","norming","","","{""aha"":5}","[0]","../img/tt/1084tt.jpg","",""
"null","<div style=""font-size:60px;""> </div>","null","fixation","html-keyboard-response","69","521971","0.0-6.0-0.9","3048237","co38704","norming","","","","","","",""
"null","../img/tt/1242tt.jpg","null","mooney1","image-keyboard-response","70","524973","0.0-6.0-1.9","3048237","co38704","norming","","","","","","",""
"3741","","","post_mooney1_questions","survey-likert","71","528716","0.0-6.0-2.9","3048237","co38704","norming","","","{""curiosity"":1,""confidence"":5}","[0,1]","../img/tt/1242tt.jpg","",""
"2309","","","recognition","survey-text","72","531031","0.0-6.0-3.9","3048237","co38704","norming","","","{""guess"":""fox""}","","../img/tt/1242tt.jpg","",""
"null","../img/gs/1242gs.jpg","null","reveal","image-keyboard-response","73","533033","0.0-6.0-4.9","3048237","co38704","norming","","","","","","",""
"null","../img/tt/1242tt.jpg","null","mooney2","image-keyboard-response","74","535035","0.0-6.0-5.9","3048237","co38704","norming","","","","","","",""
"3047","","","post_reveal_questions","survey-likert","75","538084","0.0-6.0-6.9","3048237","co38704","norming","","","{""aha"":0}","[0]","../img/tt/1242tt.jpg","",""
"null","<div style=""font-size:60px;""> </div>","null","fixation","html-keyboard-response","76","538286","0.0-6.0-0.10","3048237","co38704","norming","","","","","","",""
"null","../img/tt/1154tt.jpg","null","mooney1","image-keyboard-response","77","541288","0.0-6.0-1.10","3048237","co38704","norming","","","","","","",""
"9673.999999999884","","","post_mooney1_questions","survey-likert","78","550964","0.0-6.0-2.10","3048237","co38704","norming","","","{""curiosity"":4,""confidence"":1}","[0,1]","../img/tt/1154tt.jpg","",""
"2391","","","recognition","survey-text","79","553360","0.0-6.0-3.10","3048237","co38704","norming","","","{""guess"":""beach""}","","../img/tt/1154tt.jpg","",""
"null","../img/gs/1154gs.jpg","null","reveal","image-keyboard-response","80","555362","0.0-6.0-4.10","3048237","co38704","norming","","","","","","",""
"null","../img/tt/1154tt.jpg","null","mooney2","image-keyboard-response","81","557365","0.0-6.0-5.10","3048237","co38704","norming","","","","","","",""
"2194","","","post_reveal_questions","survey-likert","82","559561","0.0-6.0-6.10","3048237","co38704","norming","","","{""aha"":5}","[0]","../img/tt/1154tt.jpg","",""
"null","<div style=""font-size:60px;""> </div>","null","fixation","html-keyboard-response","83","559763","0.0-6.0-0.11","3048237","co38704","norming","","","","","","",""
"null","../img/tt/1040tt.jpg","null","mooney1","image-keyboard-response","84","562765","0.0-6.0-1.11","3048237","co38704","norming","","","","","","",""
"8913.999999999884","","","post_mooney1_questions","survey-likert","85","571680","0.0-6.0-2.11","3048237","co38704","norming","","","{""curiosity"":3,""confidence"":5}","[0,1]","../img/tt/1040tt.jpg","",""
"9180","","","recognition","survey-text","86","580866","0.0-6.0-3.11","3048237","co38704","norming","","","{""guess"":""skiing man""}","","../img/tt/1040tt.jpg","",""
"null","../img/gs/1040gs.jpg","null","reveal","image-keyboard-response","87","582869","0.0-6.0-4.11","3048237","co38704","norming","","","","","","",""
"null","../img/tt/1040tt.jpg","null","mooney2","image-keyboard-response","88","584870","0.0-6.0-5.11","3048237","co38704","norming","","","","","","",""
"1991","","","post_reveal_questions","survey-likert","89","586862","0.0-6.0-6.11","3048237","co38704","norming","","","{""aha"":4}","[0]","../img/tt/1040tt.jpg","",""
"null","<div style=""font-size:60px;""> </div>","null","fixation","html-keyboard-response","90","587064","0.0-6.0-0.12","3048237","co38704","norming","","","","","","",""
"null","../img/tt/497tt.jpg","null","mooney1","image-keyboard-response","91","590067","0.0-6.0-1.12","3048237","co38704","norming","","","","","","",""
"8688","","","post_mooney1_questions","survey-likert","92","598756","0.0-6.0-2.12","3048237","co38704","norming","","","{""curiosity"":4,""confidence"":1}","[0,1]","../img/tt/497tt.jpg","",""
"10524","","","recognition","survey-text","93","609286","0.0-6.0-3.12","3048237","co38704","norming","","","{""guess"":""theatre ""}","","../img/tt/497tt.jpg","",""
"null","../img/gs/497gs.jpg","null","reveal","image-keyboard-response","94","611289","0.0-6.0-4.12","3048237","co38704","norming","","","","","","",""
"null","../img/tt/497tt.jpg","null","mooney2","image-keyboard-response","95","613291","0.0-6.0-5.12","3048237","co38704","norming","","","","","","",""
"3180","","","post_reveal_questions","survey-likert","96","616472","0.0-6.0-6.12","3048237","co38704","norming","","","{""aha"":4}","[0]","../img/tt/497tt.jpg","",""
"null","<div style=""font-size:60px;""> </div>","null","fixation","html-keyboard-response","97","616674","0.0-6.0-0.13","3048237","co38704","norming","","","","","","",""
"null","../img/tt/135tt.jpg","null","mooney1","image-keyboard-response","98","619676","0.0-6.0-1.13","3048237","co38704","norming","","","","","","",""
"9245","","","post_mooney1_questions","survey-likert","99","628923","0.0-6.0-2.13","3048237","co38704","norming","","","{""curiosity"":1,""confidence"":6}","[0,1]","../img/tt/135tt.jpg","",""
"2913","","","recognition","survey-text","100","631841","0.0-6.0-3.13","3048237","co38704","norming","","","{""guess"":""toilet""}","","../img/tt/135tt.jpg","",""
"null","../img/gs/135gs.jpg","null","reveal","image-keyboard-response","101","633843","0.0-6.0-4.13","3048237","co38704","norming","","","","","","",""
"null","../img/tt/135tt.jpg","null","mooney2","image-keyboard-response","102","635846","0.0-6.0-5.13","3048237","co38704","norming","","","","","","",""
"4197","","","post_reveal_questions","survey-likert","103","640044","0.0-6.0-6.13","3048237","co38704","norming","","","{""aha"":0}","[0]","../img/tt/135tt.jpg","",""
"null","<div style=""font-size:60px;""> </div>","null","fixation","html-keyboard-response","104","640246","0.0-6.0-0.14","3048237","co38704","norming","","","","","","",""
"null","../img/tt/1224tt.jpg","null","mooney1","image-keyboard-response","105","643249","0.0-6.0-1.14","3048237","co38704","norming","","","","","","",""
"9962","","","post_mooney1_questions","survey-likert","106","653212","0.0-6.0-2.14","3048237","co38704","norming","","","{""curiosity"":4,""confidence"":1}","[0,1]","../img/tt/1224tt.jpg","",""
"4949","","","recognition","survey-text","107","658166","0.0-6.0-3.14","3048237","co38704","norming","","","{""guess"":""classroom""}","","../img/tt/1224tt.jpg","",""
"null","../img/gs/1224gs.jpg","null","reveal","image-keyboard-response","108","660169","0.0-6.0-4.14","3048237","co38704","norming","","","","","","",""
"null","../img/tt/1224tt.jpg","null","mooney2","image-keyboard-response","109","662171","0.0-6.0-5.14","3048237","co38704","norming","","","","","","",""
"2019.9999999998836","","","post_reveal_questions","survey-likert","110","664192","0.0-6.0-6.14","3048237","co38704","norming","","","{""aha"":1}","[0]","../img/tt/1224tt.jpg","",""
"null","<div style=""font-size:60px;""> </div>","null","fixation","html-keyboard-response","111","664394","0.0-6.0-0.15","3048237","co38704","norming","","","","","","",""
"null","../img/tt/496tt.jpg","null","mooney1","image-keyboard-response","112","667397","0.0-6.0-1.15","3048237","co38704","norming","","","","","","",""
"4546.999999999884","","","post_mooney1_questions","survey-likert","113","671945","0.0-6.0-2.15","3048237","co38704","norming","","","{""curiosity"":2,""confidence"":0}","[0,1]","../img/tt/496tt.jpg","",""
"2446","","","recognition","survey-text","114","674396","0.0-6.0-3.15","3048237","co38704","norming","","","{""guess"":""""}","","../img/tt/496tt.jpg","",""
"null","../img/gs/496gs.jpg","null","reveal","image-keyboard-response","115","676399","0.0-6.0-4.15","3048237","co38704","norming","","","","","","",""
"null","../img/tt/496tt.jpg","null","mooney2","image-keyboard-response","116","678400","0.0-6.0-5.15","3048237","co38704","norming","","","","","","",""
"2332","","","post_reveal_questions","survey-likert","117","680732","0.0-6.0-6.15","3048237","co38704","norming","","","{""aha"":6}","[0]","../img/tt/496tt.jpg","",""
"null","<div style=""font-size:60px;""> </div>","null","fixation","html-keyboard-response","118","680935","0.0-6.0-0.16","3048237","co38704","norming","","","","","","",""
"null","../img/tt/1097tt.jpg","null","mooney1","image-keyboard-response","119","683938","0.0-6.0-1.16","3048237","co38704","norming","","","","","","",""
"5533","","","post_mooney1_questions","survey-likert","120","689472","0.0-6.0-2.16","3048237","co38704","norming","","","{""curiosity"":1,""confidence"":6}","[0,1]","../img/tt/1097tt.jpg","",""
"2546.0000000001164","","","recognition","survey-text","121","692024","0.0-6.0-3.16","3048237","co38704","norming","","","{""guess"":""surfer""}","","../img/tt/1097tt.jpg","",""
"null","../img/gs/1097gs.jpg","null","reveal","image-keyboard-response","122","694026","0.0-6.0-4.16","3048237","co38704","norming","","","","","","",""
"null","../img/tt/1097tt.jpg","null","mooney2","image-keyboard-response","123","696029","0.0-6.0-5.16","3048237","co38704","norming","","","","","","",""
"2637","","","post_reveal_questions","survey-likert","124","698666","0.0-6.0-6.16","3048237","co38704","norming","","","{""aha"":4}","[0]","../img/tt/1097tt.jpg","",""
"null","<div style=""font-size:60px;""> </div>","null","fixation","html-keyboard-response","125","698869","0.0-6.0-0.17","3048237","co38704","norming","","","","","","",""
"null","../img/tt/380tt.jpg","null","mooney1","image-keyboard-response","126","701871","0.0-6.0-1.17","3048237","co38704","norming","","","","","","",""
"3043","","","post_mooney1_questions","survey-likert","127","704917","0.0-6.0-2.17","3048237","co38704","norming","","","{""curiosity"":5,""confidence"":1}","[0,1]","../img/tt/380tt.jpg","",""
"1479","","","recognition","survey-text","128","706401","0.0-6.0-3.17","3048237","co38704","norming","","","{""guess"":""""}","","../img/tt/380tt.jpg","",""
"null","../img/gs/380gs.jpg","null","reveal","image-keyboard-response","129","708402","0.0-6.0-4.17","3048237","co38704","norming","","","","","","",""
"null","../img/tt/380tt.jpg","null","mooney2","image-keyboard-response","130","710404","0.0-6.0-5.17","3048237","co38704","norming","","","","","","",""
"2052","","","post_reveal_questions","survey-likert","131","712457","0.0-6.0-6.17","3048237","co38704","norming","","","{""aha"":2}","[0]","../img/tt/380tt.jpg","",""
"null","<div style=""font-size:60px;""> </div>","null","fixation","html-keyboard-response","132","712660","0.0-6.0-0.18","3048237","co38704","norming","","","","","","",""
"null","../img/tt/1255tt.jpg","null","mooney1","image-keyboard-response","133","715662","0.0-6.0-1.18","3048237","co38704","norming","","","","","","",""
"7732","","","post_mooney1_questions","survey-likert","134","723396","0.0-6.0-2.18","3048237","co38704","norming","","","{""curiosity"":4,""confidence"":0}","[0,1]","../img/tt/1255tt.jpg","",""
"7460","","","recognition","survey-text","135","730861","0.0-6.0-3.18","3048237","co38704","norming","","","{""guess"":""tree""}","","../img/tt/1255tt.jpg","",""
"null","../img/gs/1255gs.jpg","null","reveal","image-keyboard-response","136","732863","0.0-6.0-4.18","3048237","co38704","norming","","","","","","",""
"null","../img/tt/1255tt.jpg","null","mooney2","image-keyboard-response","137","734866","0.0-6.0-5.18","3048237","co38704","norming","","","","","","",""
"2190","","","post_reveal_questions","survey-likert","138","737058","0.0-6.0-6.18","3048237","co38704","norming","","","{""aha"":0}","[0]","../img/tt/1255tt.jpg","",""
"null","<div style=""font-size:60px;""> </div>","null","fixation","html-keyboard-response","139","737260","0.0-6.0-0.19","3048237","co38704","norming","","","","","","",""
"null","../img/tt/001tt.jpg","null","mooney1","image-keyboard-response","140","740263","0.0-6.0-1.19","3048237","co38704","norming","","","","","","",""
"5039.999999999884","","","post_mooney1_questions","survey-likert","141","745305","0.0-6.0-2.19","3048237","co38704","norming","","","{""curiosity"":3,""confidence"":2}","[0,1]","../img/tt/001tt.jpg","",""
"2182","","","recognition","survey-text","142","747491","0.0-6.0-3.19","3048237","co38704","norming","","","{""guess"":""dog""}","","../img/tt/001tt.jpg","",""
"null","../img/gs/001gs.jpg","null","reveal","image-keyboard-response","143","749494","0.0-6.0-4.19","3048237","co38704","norming","","","","","","",""
"null","../img/tt/001tt.jpg","null","mooney2","image-keyboard-response","144","751496","0.0-6.0-5.19","3048237","co38704","norming","","","","","","",""
"3342","","","post_reveal_questions","survey-likert","145","754838","0.0-6.0-6.19","3048237","co38704","norming","","","{""aha"":6}","[0]","../img/tt/001tt.jpg","",""
"null","<div style=""font-size:60px;""> </div>","null","fixation","html-keyboard-response","146","755041","0.0-6.0-0.20","3048237","co38704","norming","","","","","","",""
"null","../img/tt/1027tt.jpg","null","mooney1","image-keyboard-response","147","758043","0.0-6.0-1.20","3048237","co38704","norming","","","","","","",""
"4132","","","post_mooney1_questions","survey-likert","148","762176","0.0-6.0-2.20","3048237","co38704","norming","","","{""curiosity"":3,""confidence"":2}","[0,1]","../img/tt/1027tt.jpg","",""
"1559.0000000001164","","","recognition","survey-text","149","763741","0.0-6.0-3.20","3048237","co38704","norming","","","{""guess"":""cow""}","","../img/tt/1027tt.jpg","",""
"null","../img/gs/1027gs.jpg","null","reveal","image-keyboard-response","150","765743","0.0-6.0-4.20","3048237","co38704","norming","","","","","","",""
"null","../img/tt/1027tt.jpg","null","mooney2","image-keyboard-response","151","767746","0.0-6.0-5.20","3048237","co38704","norming","","","","","","",""
"2385","","","post_reveal_questions","survey-likert","152","770131","0.0-6.0-6.20","3048237","co38704","norming","","","{""aha"":4}","[0]","../img/tt/1027tt.jpg","",""
"null","<div style=""font-size:60px;""> </div>","null","fixation","html-keyboard-response","153","770334","0.0-6.0-0.21","3048237","co38704","norming","","","","","","",""
"null","../img/tt/1125tt.jpg","null","mooney1","image-keyboard-response","154","773337","0.0-6.0-1.21","3048237","co38704","norming","","","","","","",""
"4856","","","post_mooney1_questions","survey-likert","155","778194","0.0-6.0-2.21","3048237","co38704","norming","","","{""curiosity"":3,""confidence"":1}","[0,1]","../img/tt/1125tt.jpg","",""
"2693","","","recognition","survey-text","156","780892","0.0-6.0-3.21","3048237","co38704","norming","","","{""guess"":""""}","","../img/tt/1125tt.jpg","",""
"null","../img/gs/1125gs.jpg","null","reveal","image-keyboard-response","157","782894","0.0-6.0-4.21","3048237","co38704","norming","","","","","","",""
"null","../img/tt/1125tt.jpg","null","mooney2","image-keyboard-response","158","784896","0.0-6.0-5.21","3048237","co38704","norming","","","","","","",""
"2460","","","post_reveal_questions","survey-likert","159","787357","0.0-6.0-6.21","3048237","co38704","norming","","","{""aha"":0}","[0]","../img/tt/1125tt.jpg","",""
"null","<div style=""font-size:60px;""> </div>","null","fixation","html-keyboard-response","160","787560","0.0-6.0-0.22","3048237","co38704","norming","","","","","","",""
"null","../img/tt/056tt.jpg","null","mooney1","image-keyboard-response","161","790563","0.0-6.0-1.22","3048237","co38704","norming","","","","","","",""
"5308","","","post_mooney1_questions","survey-likert","162","795872","0.0-6.0-2.22","3048237","co38704","norming","","","{""curiosity"":5,""confidence"":0}","[0,1]","../img/tt/056tt.jpg","",""
"1086","","","recognition","survey-text","163","796964","0.0-6.0-3.22","3048237","co38704","norming","","","{""guess"":""""}","","../img/tt/056tt.jpg","",""
"null","../img/gs/056gs.jpg","null","reveal","image-keyboard-response","164","798966","0.0-6.0-4.22","3048237","co38704","norming","","","","","","",""
"null","../img/tt/056tt.jpg","null","mooney2","image-keyboard-response","165","800969","0.0-6.0-5.22","3048237","co38704","norming","","","","","","",""
"1908","","","post_reveal_questions","survey-likert","166","802878","0.0-6.0-6.22","3048237","co38704","norming","","","{""aha"":4}","[0]","../img/tt/056tt.jpg","",""
"null","<div style=""font-size:60px;""> </div>","null","fixation","html-keyboard-response","167","803081","0.0-6.0-0.23","3048237","co38704","norming","","","","","","",""
"null","../img/tt/1366tt.jpg","null","mooney1","image-keyboard-response","168","806083","0.0-6.0-1.23","3048237","co38704","norming","","","","","","",""
"3901","","","post_mooney1_questions","survey-likert","169","809985","0.0-6.0-2.23","3048237","co38704","norming","","","{""curiosity"":4,""confidence"":1}","[0,1]","../img/tt/1366tt.jpg","",""
"4410.000000000116","","","recognition","survey-text","170","814400","0.0-6.0-3.23","3048237","co38704","norming","","","{""guess"":""table""}","","../img/tt/1366tt.jpg","",""
"null","../img/gs/1366gs.jpg","null","reveal","image-keyboard-response","171","816403","0.0-6.0-4.23","3048237","co38704","norming","","","","","","",""
"null","../img/tt/1366tt.jpg","null","mooney2","image-keyboard-response","172","818404","0.0-6.0-5.23","3048237","co38704","norming","","","","","","",""
"2885.0000000001164","","","post_reveal_questions","survey-likert","173","821289","0.0-6.0-6.23","3048237","co38704","norming","","","{""aha"":5}","[0]","../img/tt/1366tt.jpg","",""
"null","<div style=""font-size:60px;""> </div>","null","fixation","html-keyboard-response","174","821492","0.0-6.0-0.24","3048237","co38704","norming","","","","","","",""
"null","../img/tt/091tt.jpg","null","mooney1","image-keyboard-response","175","824495","0.0-6.0-1.24","3048237","co38704","norming","","","","","","",""
"4122","","","post_mooney1_questions","survey-likert","176","828618","0.0-6.0-2.24","3048237","co38704","norming","","","{""curiosity"":5,""confidence"":1}","[0,1]","../img/tt/091tt.jpg","",""
"1234","","","recognition","survey-text","177","829857","0.0-6.0-3.24","3048237","co38704","norming","","","{""guess"":""""}","","../img/tt/091tt.jpg","",""
"null","../img/gs/091gs.jpg","null","reveal","image-keyboard-response","178","831859","0.0-6.0-4.24","3048237","co38704","norming","","","","","","",""
"null","../img/tt/091tt.jpg","null","mooney2","image-keyboard-response","179","833861","0.0-6.0-5.24","3048237","co38704","norming","","","","","","",""
"2229","","","post_reveal_questions","survey-likert","180","836092","0.0-6.0-6.24","3048237","co38704","norming","","","{""aha"":0}","[0]","../img/tt/091tt.jpg","",""
"null","<div style=""font-size:60px;""> </div>","null","fixation","html-keyboard-response","181","836294","0.0-6.0-0.25","3048237","co38704","norming","","","","","","",""
"null","../img/tt/515tt.jpg","null","mooney1","image-keyboard-response","182","839297","0.0-6.0-1.25","3048237","co38704","norming","","","","","","",""
"4359","","","post_mooney1_questions","survey-likert","183","843657","0.0-6.0-2.25","3048237","co38704","norming","","","{""curiosity"":2,""confidence"":4}","[0,1]","../img/tt/515tt.jpg","",""
"3240","","","recognition","survey-text","184","846902","0.0-6.0-3.25","3048237","co38704","norming","","","{""guess"":""bird""}","","../img/tt/515tt.jpg","",""
"null","../img/gs/515gs.jpg","null","reveal","image-keyboard-response","185","848904","0.0-6.0-4.25","3048237","co38704","norming","","","","","","",""
"null","../img/tt/515tt.jpg","null","mooney2","image-keyboard-response","186","850905","0.0-6.0-5.25","3048237","co38704","norming","","","","","","",""
"2029","","","post_reveal_questions","survey-likert","187","852935","0.0-6.0-6.25","3048237","co38704","norming","","","{""aha"":1}","[0]","../img/tt/515tt.jpg","",""
"null","<div style=""font-size:60px;""> </div>","null","fixation","html-keyboard-response","188","853138","0.0-6.0-0.26","3048237","co38704","norming","","","","","","",""
"null","../img/tt/456tt.jpg","null","mooney1","image-keyboard-response","189","856140","0.0-6.0-1.26","3048237","co38704","norming","","","","","","",""
"18990.999999999884","","","post_mooney1_questions","survey-likert","190","875133","0.0-6.0-2.26","3048237","co38704","norming","","","{""curiosity"":4,""confidence"":2}","[0,1]","../img/tt/456tt.jpg","",""
"3117","","","recognition","survey-text","191","878255","0.0-6.0-3.26","3048237","co38704","norming","","","{""guess"":""lizard""}","","../img/tt/456tt.jpg","",""
"null","../img/gs/456gs.jpg","null","reveal","image-keyboard-response","192","880257","0.0-6.0-4.26","3048237","co38704","norming","","","","","","",""
"null","../img/tt/456tt.jpg","null","mooney2","image-keyboard-response","193","882259","0.0-6.0-5.26","3048237","co38704","norming","","","","","","",""
"2106","","","post_reveal_questions","survey-likert","194","884367","0.0-6.0-6.26","3048237","co38704","norming","","","{""aha"":6}","[0]","../img/tt/456tt.jpg","",""
"null","<div style=""font-size:60px;""> </div>","null","fixation","html-keyboard-response","195","884568","0.0-6.0-0.27","3048237","co38704","norming","","","","","","",""
"null","../img/tt/279tt.jpg","null","mooney1","image-keyboard-response","196","887571","0.0-6.0-1.27","3048237","co38704","norming","","","","","","",""
"4099.000000000116","","","post_mooney1_questions","survey-likert","197","891671","0.0-6.0-2.27","3048237","co38704","norming","","","{""curiosity"":4,""confidence"":0}","[0,1]","../img/tt/279tt.jpg","",""
"2431.9999999998836","","","recognition","survey-text","198","894108","0.0-6.0-3.27","3048237","co38704","norming","","","{""guess"":""bear""}","","../img/tt/279tt.jpg","",""
"null","../img/gs/279gs.jpg","null","reveal","image-keyboard-response","199","896111","0.0-6.0-4.27","3048237","co38704","norming","","","","","","",""
"null","../img/tt/279tt.jpg","null","mooney2","image-keyboard-response","200","898113","0.0-6.0-5.27","3048237","co38704","norming","","","","","","",""
"2713","","","post_reveal_questions","survey-likert","201","900827","0.0-6.0-6.27","3048237","co38704","norming","","","{""aha"":5}","[0]","../img/tt/279tt.jpg","",""
"null","<div style=""font-size:60px;""> </div>","null","fixation","html-keyboard-response","202","901029","0.0-6.0-0.28","3048237","co38704","norming","","","","","","",""
"null","../img/tt/1275tt.jpg","null","mooney1","image-keyboard-response","203","904032","0.0-6.0-1.28","3048237","co38704","norming","","","","","","",""
"5445","","","post_mooney1_questions","survey-likert","204","909479","0.0-6.0-2.28","3048237","co38704","norming","","","{""curiosity"":4,""confidence"":2}","[0,1]","../img/tt/1275tt.jpg","",""
"2261","","","recognition","survey-text","205","911745","0.0-6.0-3.28","3048237","co38704","norming","","","{""guess"":""pig""}","","../img/tt/1275tt.jpg","",""
"null","../img/gs/1275gs.jpg","null","reveal","image-keyboard-response","206","913746","0.0-6.0-4.28","3048237","co38704","norming","","","","","","",""
"null","../img/tt/1275tt.jpg","null","mooney2","image-keyboard-response","207","915749","0.0-6.0-5.28","3048237","co38704","norming","","","","","","",""
"2936","","","post_reveal_questions","survey-likert","208","918687","0.0-6.0-6.28","3048237","co38704","norming","","","{""aha"":3}","[0]","../img/tt/1275tt.jpg","",""
"null","<div style=""font-size:60px;""> </div>","null","fixation","html-keyboard-response","209","918889","0.0-6.0-0.29","3048237","co38704","norming","","","","","","",""
"null","../img/tt/306tt.jpg","null","mooney1","image-keyboard-response","210","921892","0.0-6.0-1.29","3048237","co38704","norming","","","","","","",""
"5844.999999999884","","","post_mooney1_questions","survey-likert","211","927737","0.0-6.0-2.29","3048237","co38704","norming","","","{""curiosity"":5,""confidence"":0}","[0,1]","../img/tt/306tt.jpg","",""
"6009","","","recognition","survey-text","212","933751","0.0-6.0-3.29","3048237","co38704","norming","","","{""guess"":""iceskate""}","","../img/tt/306tt.jpg","",""
"null","../img/gs/306gs.jpg","null","reveal","image-keyboard-response","213","935754","0.0-6.0-4.29","3048237","co38704","norming","","","","","","",""
"null","../img/tt/306tt.jpg","null","mooney2","image-keyboard-response","214","937756","0.0-6.0-5.29","3048237","co38704","norming","","","","","","",""
"2021","","","post_reveal_questions","survey-likert","215","939779","0.0-6.0-6.29","3048237","co38704","norming","","","{""aha"":5}","[0]","../img/tt/306tt.jpg","",""
"null","<div style=""font-size:60px;""> </div>","null","fixation","html-keyboard-response","216","939982","0.0-6.0-0.30","3048237","co38704","norming","","","","","","",""
"null","../img/tt/1146tt.jpg","null","mooney1","image-keyboard-response","217","942985","0.0-6.0-1.30","3048237","co38704","norming","","","","","","",""
"7465.000000000116","","","post_mooney1_questions","survey-likert","218","950451","0.0-6.0-2.30","3048237","co38704","norming","","","{""curiosity"":3,""confidence"":4}","[0,1]","../img/tt/1146tt.jpg","",""
"3953.9999999998836","","","recognition","survey-text","219","954410","0.0-6.0-3.30","3048237","co38704","norming","","","{""guess"":""boogschutter""}","","../img/tt/1146tt.jpg","",""
"null","../img/gs/1146gs.jpg","null","reveal","image-keyboard-response","220","956412","0.0-6.0-4.30","3048237","co38704","norming","","","","","","",""
"null","../img/tt/1146tt.jpg","null","mooney2","image-keyboard-response","221","958414","0.0-6.0-5.30","3048237","co38704","norming","","","","","","",""
"1918","","","post_reveal_questions","survey-likert","222","960334","0.0-6.0-6.30","3048237","co38704","norming","","","{""aha"":2}","[0]","../img/tt/1146tt.jpg","",""
"null","<div style=""font-size:60px;""> </div>","null","fixation","html-keyboard-response","223","960536","0.0-6.0-0.31","3048237","co38704","norming","","","","","","",""
"null","../img/tt/1276tt.jpg","null","mooney1","image-keyboard-response","224","963539","0.0-6.0-1.31","3048237","co38704","norming","","","","","","",""
"5125","","","post_mooney1_questions","survey-likert","225","968665","0.0-6.0-2.31","3048237","co38704","norming","","","{""curiosity"":5,""confidence"":0}","[0,1]","../img/tt/1276tt.jpg","",""
"1072","","","recognition","survey-text","226","969741","0.0-6.0-3.31","3048237","co38704","norming","","","{""guess"":""""}","","../img/tt/1276tt.jpg","",""
"null","../img/gs/1276gs.jpg","null","reveal","image-keyboard-response","227","971743","0.0-6.0-4.31","3048237","co38704","norming","","","","","","",""
"null","../img/tt/1276tt.jpg","null","mooney2","image-keyboard-response","228","973745","0.0-6.0-5.31","3048237","co38704","norming","","","","","","",""
"2150","","","post_reveal_questions","survey-likert","229","975896","0.0-6.0-6.31","3048237","co38704","norming","","","{""aha"":0}","[0]","../img/tt/1276tt.jpg","",""
"null","<div style=""font-size:60px;""> </div>","null","fixation","html-keyboard-response","230","976099","0.0-6.0-0.32","3048237","co38704","norming","","","","","","",""
"null","../img/tt/358tt.jpg","null","mooney1","image-keyboard-response","231","979102","0.0-6.0-1.32","3048237","co38704","norming","","","","","","",""
"5043","","","post_mooney1_questions","survey-likert","232","984146","0.0-6.0-2.32","3048237","co38704","norming","","","{""curiosity"":4,""confidence"":2}","[0,1]","../img/tt/358tt.jpg","",""
"2188","","","recognition","survey-text","233","986339","0.0-6.0-3.32","3048237","co38704","norming","","","{""guess"":""bear""}","","../img/tt/358tt.jpg","",""
"null","../img/gs/358gs.jpg","null","reveal","image-keyboard-response","234","988341","0.0-6.0-4.32","3048237","co38704","norming","","","","","","",""
"null","../img/tt/358tt.jpg","null","mooney2","image-keyboard-response","235","990342","0.0-6.0-5.32","3048237","co38704","norming","","","","","","",""
"2032","","","post_reveal_questions","survey-likert","236","992376","0.0-6.0-6.32","3048237","co38704","norming","","","{""aha"":4}","[0]","../img/tt/358tt.jpg","",""
"null","<div style=""font-size:60px;""> </div>","null","fixation","html-keyboard-response","237","992579","0.0-6.0-0.33","3048237","co38704","norming","","","","","","",""
"null","../img/tt/1200tt.jpg","null","mooney1","image-keyboard-response","238","995582","0.0-6.0-1.33","3048237","co38704","norming","","","","","","",""
"4024","","","post_mooney1_questions","survey-likert","239","999606","0.0-6.0-2.33","3048237","co38704","norming","","","{""curiosity"":1,""confidence"":6}","[0,1]","../img/tt/1200tt.jpg","",""
"17010","","","recognition","survey-text","240","1016632","0.0-6.0-3.33","3048237","co38704","norming","","","{""guess"":""roeiende mensen""}","","../img/tt/1200tt.jpg","",""
"null","../img/gs/1200gs.jpg","null","reveal","image-keyboard-response","241","1018634","0.0-6.0-4.33","3048237","co38704","norming","","","","","","",""
"null","../img/tt/1200tt.jpg","null","mooney2","image-keyboard-response","242","1020637","0.0-6.0-5.33","3048237","co38704","norming","","","","","","",""
"2648.9999999998836","","","post_reveal_questions","survey-likert","243","1023288","0.0-6.0-6.33","3048237","co38704","norming","","","{""aha"":1}","[0]","../img/tt/1200tt.jpg","",""
"null","<div style=""font-size:60px;""> </div>","null","fixation","html-keyboard-response","244","1023491","0.0-6.0-0.34","3048237","co38704","norming","","","","","","",""
"null","../img/tt/440tt.jpg","null","mooney1","image-keyboard-response","245","1026493","0.0-6.0-1.34","3048237","co38704","norming","","","","","","",""
"4734.999999999884","","","post_mooney1_questions","survey-likert","246","1031231","0.0-6.0-2.34","3048237","co38704","norming","","","{""curiosity"":4,""confidence"":4}","[0,1]","../img/tt/440tt.jpg","",""
"2898.0000000001164","","","recognition","survey-text","247","1034134","0.0-6.0-3.34","3048237","co38704","norming","","","{""guess"":""horse""}","","../img/tt/440tt.jpg","",""
"null","../img/gs/440gs.jpg","null","reveal","image-keyboard-response","248","1036136","0.0-6.0-4.34","3048237","co38704","norming","","","","","","",""
"null","../img/tt/440tt.jpg","null","mooney2","image-keyboard-response","249","1038138","0.0-6.0-5.34","3048237","co38704","norming","","","","","","",""
"3133","","","post_reveal_questions","survey-likert","250","1041272","0.0-6.0-6.34","3048237","co38704","norming","","","{""aha"":5}","[0]","../img/tt/440tt.jpg","",""
"null","<div style=""font-size:60px;""> </div>","null","fixation","html-keyboard-response","251","1041475","0.0-6.0-0.35","3048237","co38704","norming","","","","","","",""
"null","../img/tt/438tt.jpg","null","mooney1","image-keyboard-response","252","1044477","0.0-6.0-1.35","3048237","co38704","norming","","","","","","",""
"4171","","","post_mooney1_questions","survey-likert","253","1048650","0.0-6.0-2.35","3048237","co38704","norming","","","{""curiosity"":4,""confidence"":5}","[0,1]","../img/tt/438tt.jpg","",""
"3695","","","recognition","survey-text","254","1052350","0.0-6.0-3.35","3048237","co38704","norming","","","{""guess"":""crocodile""}","","../img/tt/438tt.jpg","",""
"null","../img/gs/438gs.jpg","null","reveal","image-keyboard-response","255","1054353","0.0-6.0-4.35","3048237","co38704","norming","","","","","","",""
"null","../img/tt/438tt.jpg","null","mooney2","image-keyboard-response","256","1056356","0.0-6.0-5.35","3048237","co38704","norming","","","","","","",""
"2141.000000000233","","","post_reveal_questions","survey-likert","257","1058497","0.0-6.0-6.35","3048237","co38704","norming","","","{""aha"":4}","[0]","../img/tt/438tt.jpg","",""
"null","<div style=""font-size:60px;""> </div>","null","fixation","html-keyboard-response","258","1058699","0.0-6.0-0.36","3048237","co38704","norming","","","","","","",""
"null","../img/tt/1143tt.jpg","null","mooney1","image-keyboard-response","259","1061702","0.0-6.0-1.36","3048237","co38704","norming","","","","","","",""
"3804","","","post_mooney1_questions","survey-likert","260","1065507","0.0-6.0-2.36","3048237","co38704","norming","","","{""curiosity"":5,""confidence"":0}","[0,1]","../img/tt/1143tt.jpg","",""
"892","","","recognition","survey-text","261","1066404","0.0-6.0-3.36","3048237","co38704","norming","","","{""guess"":""""}","","../img/tt/1143tt.jpg","",""
"null","../img/gs/1143gs.jpg","null","reveal","image-keyboard-response","262","1068406","0.0-6.0-4.36","3048237","co38704","norming","","","","","","",""
"null","../img/tt/1143tt.jpg","null","mooney2","image-keyboard-response","263","1070409","0.0-6.0-5.36","3048237","co38704","norming","","","","","","",""
"2334","","","post_reveal_questions","survey-likert","264","1072743","0.0-6.0-6.36","3048237","co38704","norming","","","{""aha"":5}","[0]","../img/tt/1143tt.jpg","",""
"null","<div style=""font-size:60px;""> </div>","null","fixation","html-keyboard-response","265","1072946","0.0-6.0-0.37","3048237","co38704","norming","","","","","","",""
"null","../img/tt/1127tt.jpg","null","mooney1","image-keyboard-response","266","1075949","0.0-6.0-1.37","3048237","co38704","norming","","","","","","",""
"5362","","","post_mooney1_questions","survey-likert","267","1081312","0.0-6.0-2.37","3048237","co38704","norming","","","{""curiosity"":4,""confidence"":0}","[0,1]","../img/tt/1127tt.jpg","",""
"842","","","recognition","survey-text","268","1082160","0.0-6.0-3.37","3048237","co38704","norming","","","{""guess"":""""}","","../img/tt/1127tt.jpg","",""
"null","../img/gs/1127gs.jpg","null","reveal","image-keyboard-response","269","1084162","0.0-6.0-4.37","3048237","co38704","norming","","","","","","",""
"null","../img/tt/1127tt.jpg","null","mooney2","image-keyboard-response","270","1086165","0.0-6.0-5.37","3048237","co38704","norming","","","","","","",""
"2495","","","post_reveal_questions","survey-likert","271","1088661","0.0-6.0-6.37","3048237","co38704","norming","","","{""aha"":4}","[0]","../img/tt/1127tt.jpg","",""
"null","<div style=""font-size:60px;""> </div>","null","fixation","html-keyboard-response","272","1088863","0.0-6.0-0.38","3048237","co38704","norming","","","","","","",""
"null","../img/tt/060tt.jpg","null","mooney1","image-keyboard-response","273","1091866","0.0-6.0-1.38","3048237","co38704","norming","","","","","","",""
"4450","","","post_mooney1_questions","survey-likert","274","1096317","0.0-6.0-2.38","3048237","co38704","norming","","","{""curiosity"":4,""confidence"":0}","[0,1]","../img/tt/060tt.jpg","",""
"834","","","recognition","survey-text","275","1097156","0.0-6.0-3.38","3048237","co38704","norming","","","{""guess"":""""}","","../img/tt/060tt.jpg","",""
"null","../img/gs/060gs.jpg","null","reveal","image-keyboard-response","276","1099159","0.0-6.0-4.38","3048237","co38704","norming","","","","","","",""
"null","../img/tt/060tt.jpg","null","mooney2","image-keyboard-response","277","1101161","0.0-6.0-5.38","3048237","co38704","norming","","","","","","",""
"1425","","","post_reveal_questions","survey-likert","278","1102587","0.0-6.0-6.38","3048237","co38704","norming","","","{""aha"":1}","[0]","../img/tt/060tt.jpg","",""
"null","<div style=""font-size:60px;""> </div>","null","fixation","html-keyboard-response","279","1102790","0.0-6.0-0.39","3048237","co38704","norming","","","","","","",""
"null","../img/tt/270tt.jpg","null","mooney1","image-keyboard-response","280","1105791","0.0-6.0-1.39","3048237","co38704","norming","","","","","","",""
"4312","","","post_mooney1_questions","survey-likert","281","1110104","0.0-6.0-2.39","3048237","co38704","norming","","","{""curiosity"":5,""confidence"":0}","[0,1]","../img/tt/270tt.jpg","",""
"5957","","","recognition","survey-text","282","1116066","0.0-6.0-3.39","3048237","co38704","norming","","","{""guess"":""hare""}","","../img/tt/270tt.jpg","",""
"null","../img/gs/270gs.jpg","null","reveal","image-keyboard-response","283","1118068","0.0-6.0-4.39","3048237","co38704","norming","","","","","","",""
"null","../img/tt/270tt.jpg","null","mooney2","image-keyboard-response","284","1120070","0.0-6.0-5.39","3048237","co38704","norming","","","","","","",""
"2895","","","post_reveal_questions","survey-likert","285","1122967","0.0-6.0-6.39","3048237","co38704","norming","","","{""aha"":4}","[0]","../img/tt/270tt.jpg","",""
"null","<div style=""font-size:60px;""> </div>","null","fixation","html-keyboard-response","286","1123168","0.0-6.0-0.40","3048237","co38704","norming","","","","","","",""
"null","../img/tt/418tt.jpg","null","mooney1","image-keyboard-response","287","1126170","0.0-6.0-1.40","3048237","co38704","norming","","","","","","",""
"3586","","","post_mooney1_questions","survey-likert","288","1129758","0.0-6.0-2.40","3048237","co38704","norming","","","{""curiosity"":4,""confidence"":1}","[0,1]","../img/tt/418tt.jpg","",""
"3125","","","recognition","survey-text","289","1132888","0.0-6.0-3.40","3048237","co38704","norming","","","{""guess"":""turtle""}","","../img/tt/418tt.jpg","",""
"null","../img/gs/418gs.jpg","null","reveal","image-keyboard-response","290","1134890","0.0-6.0-4.40","3048237","co38704","norming","","","","","","",""
"null","../img/tt/418tt.jpg","null","mooney2","image-keyboard-response","291","1136892","0.0-6.0-5.40","3048237","co38704","norming","","","","","","",""
"3543","","","post_reveal_questions","survey-likert","292","1140437","0.0-6.0-6.40","3048237","co38704","norming","","","{""aha"":3}","[0]","../img/tt/418tt.jpg","",""
"null","<div style=""font-size:60px;""> </div>","null","fixation","html-keyboard-response","293","1140639","0.0-6.0-0.41","3048237","co38704","norming","","","","","","",""
"null","../img/tt/1226tt.jpg","null","mooney1","image-keyboard-response","294","1143642","0.0-6.0-1.41","3048237","co38704","norming","","","","","","",""
"3632","","","post_mooney1_questions","survey-likert","295","1147276","0.0-6.0-2.41","3048237","co38704","norming","","","{""curiosity"":4,""confidence"":2}","[0,1]","../img/tt/1226tt.jpg","",""
"2588","","","recognition","survey-text","296","1149870","0.0-6.0-3.41","3048237","co38704","norming","","","{""guess"":""ducks""}","","../img/tt/1226tt.jpg","",""
"null","../img/gs/1226gs.jpg","null","reveal","image-keyboard-response","297","1151872","0.0-6.0-4.41","3048237","co38704","norming","","","","","","",""
"null","../img/tt/1226tt.jpg","null","mooney2","image-keyboard-response","298","1153875","0.0-6.0-5.41","3048237","co38704","norming","","","","","","",""
"2116.999999999767","","","post_reveal_questions","survey-likert","299","1155993","0.0-6.0-6.41","3048237","co38704","norming","","","{""aha"":2}","[0]","../img/tt/1226tt.jpg","",""
"null","<div style=""font-size:60px;""> </div>","null","fixation","html-keyboard-response","300","1156195","0.0-6.0-0.42","3048237","co38704","norming","","","","","","",""
"null","../img/tt/318tt.jpg","null","mooney1","image-keyboard-response","301","1159198","0.0-6.0-1.42","3048237","co38704","norming","","","","","","",""
"5050","","","post_mooney1_questions","survey-likert","302","1164249","0.0-6.0-2.42","3048237","co38704","norming","","","{""curiosity"":4,""confidence"":1}","[0,1]","../img/tt/318tt.jpg","",""
"13014","","","recognition","survey-text","303","1177268","0.0-6.0-3.42","3048237","co38704","norming","","","{""guess"":""""}","","../img/tt/318tt.jpg","",""
"null","../img/gs/318gs.jpg","null","reveal","image-keyboard-response","304","1179269","0.0-6.0-4.42","3048237","co38704","norming","","","","","","",""
"null","../img/tt/318tt.jpg","null","mooney2","image-keyboard-response","305","1181270","0.0-6.0-5.42","3048237","co38704","norming","","","","","","",""
"2178","","","post_reveal_questions","survey-likert","306","1183450","0.0-6.0-6.42","3048237","co38704","norming","","","{""aha"":1}","[0]","../img/tt/318tt.jpg","",""
"null","<div style=""font-size:60px;""> </div>","null","fixation","html-keyboard-response","307","1183652","0.0-6.0-0.43","3048237","co38704","norming","","","","","","",""
"null","../img/tt/1243tt.jpg","null","mooney1","image-keyboard-response","308","1186655","0.0-6.0-1.43","3048237","co38704","norming","","","","","","",""
"3975","","","post_mooney1_questions","survey-likert","309","1190631","0.0-6.0-2.43","3048237","co38704","norming","","","{""curiosity"":5,""confidence"":2}","[0,1]","../img/tt/1243tt.jpg","",""
"5365.999999999767","","","recognition","survey-text","310","1196003","0.0-6.0-3.43","3048237","co38704","norming","","","{""guess"":""kangaroo""}","","../img/tt/1243tt.jpg","",""
"null","../img/gs/1243gs.jpg","null","reveal","image-keyboard-response","311","1198005","0.0-6.0-4.43","3048237","co38704","norming","","","","","","",""
"null","../img/tt/1243tt.jpg","null","mooney2","image-keyboard-response","312","1200008","0.0-6.0-5.43","3048237","co38704","norming","","","","","","",""
"1507","","","post_reveal_questions","survey-likert","313","1201516","0.0-6.0-6.43","3048237","co38704","norming","","","{""aha"":5}","[0]","../img/tt/1243tt.jpg","",""
"null","<div style=""font-size:60px;""> </div>","null","fixation","html-keyboard-response","314","1201717","0.0-6.0-0.44","3048237","co38704","norming","","","","","","",""
"null","../img/tt/1012tt.jpg","null","mooney1","image-keyboard-response","315","1204720","0.0-6.0-1.44","3048237","co38704","norming","","","","","","",""
"6193","","","post_mooney1_questions","survey-likert","316","1210914","0.0-6.0-2.44","3048237","co38704","norming","","","{""curiosity"":6,""confidence"":0}","[0,1]","../img/tt/1012tt.jpg","",""
"1144","","","recognition","survey-text","317","1212063","0.0-6.0-3.44","3048237","co38704","norming","","","{""guess"":""""}","","../img/tt/1012tt.jpg","",""
"null","../img/gs/1012gs.jpg","null","reveal","image-keyboard-response","318","1214066","0.0-6.0-4.44","3048237","co38704","norming","","","","","","",""
"null","../img/tt/1012tt.jpg","null","mooney2","image-keyboard-response","319","1216068","0.0-6.0-5.44","3048237","co38704","norming","","","","","","",""
"1625","","","post_reveal_questions","survey-likert","320","1217695","0.0-6.0-6.44","3048237","co38704","norming","","","{""aha"":0}","[0]","../img/tt/1012tt.jpg","",""
"null","<div style=""font-size:60px;""> </div>","null","fixation","html-keyboard-response","321","1217897","0.0-6.0-0.45","3048237","co38704","norming","","","","","","",""
"null","../img/tt/1199tt.jpg","null","mooney1","image-keyboard-response","322","1220900","0.0-6.0-1.45","3048237","co38704","norming","","","","","","",""
"4016","","","post_mooney1_questions","survey-likert","323","1224917","0.0-6.0-2.45","3048237","co38704","norming","","","{""curiosity"":6,""confidence"":0}","[0,1]","../img/tt/1199tt.jpg","",""
"671","","","recognition","survey-text","324","1225594","0.0-6.0-3.45","3048237","co38704","norming","","","{""guess"":""""}","","../img/tt/1199tt.jpg","",""
"null","../img/gs/1199gs.jpg","null","reveal","image-keyboard-response","325","1227596","0.0-6.0-4.45","3048237","co38704","norming","","","","","","",""
"null","../img/tt/1199tt.jpg","null","mooney2","image-keyboard-response","326","1229598","0.0-6.0-5.45","3048237","co38704","norming","","","","","","",""
"1718","","","post_reveal_questions","survey-likert","327","1231318","0.0-6.0-6.45","3048237","co38704","norming","","","{""aha"":1}","[0]","../img/tt/1199tt.jpg","",""
"null","<div style=""font-size:60px;""> </div>","null","fixation","html-keyboard-response","328","1231521","0.0-6.0-0.46","3048237","co38704","norming","","","","","","",""
"null","../img/tt/1283tt.jpg","null","mooney1","image-keyboard-response","329","1234523","0.0-6.0-1.46","3048237","co38704","norming","","","","","","",""
"7226","","","post_mooney1_questions","survey-likert","330","1241752","0.0-6.0-2.46","3048237","co38704","norming","","","{""curiosity"":3,""confidence"":4}","[0,1]","../img/tt/1283tt.jpg","",""
"1879","","","recognition","survey-text","331","1243635","0.0-6.0-3.46","3048237","co38704","norming","","","{""guess"":""cat""}","","../img/tt/1283tt.jpg","",""
"null","../img/gs/1283gs.jpg","null","reveal","image-keyboard-response","332","1245638","0.0-6.0-4.46","3048237","co38704","norming","","","","","","",""
"null","../img/tt/1283tt.jpg","null","mooney2","image-keyboard-response","333","1247639","0.0-6.0-5.46","3048237","co38704","norming","","","","","","",""
"3633","","","post_reveal_questions","survey-likert","334","1251274","0.0-6.0-6.46","3048237","co38704","norming","","","{""aha"":3}","[0]","../img/tt/1283tt.jpg","",""
"null","<div style=""font-size:60px;""> </div>","null","fixation","html-keyboard-response","335","1251476","0.0-6.0-0.47","3048237","co38704","norming","","","","","","",""
"null","../img/tt/590tt.jpg","null","mooney1","image-keyboard-response","336","1254479","0.0-6.0-1.47","3048237","co38704","norming","","","","","","",""
"5329","","","post_mooney1_questions","survey-likert","337","1259810","0.0-6.0-2.47","3048237","co38704","norming","","","{""curiosity"":5,""confidence"":0}","[0,1]","../img/tt/590tt.jpg","",""
"4752","","","recognition","survey-text","338","1264567","0.0-6.0-3.47","3048237","co38704","norming","","","{""guess"":""plate""}","","../img/tt/590tt.jpg","",""
"null","../img/gs/590gs.jpg","null","reveal","image-keyboard-response","339","1266570","0.0-6.0-4.47","3048237","co38704","norming","","","","","","",""
"null","../img/tt/590tt.jpg","null","mooney2","image-keyboard-response","340","1268572","0.0-6.0-5.47","3048237","co38704","norming","","","","","","",""
"1987","","","post_reveal_questions","survey-likert","341","1270560","0.0-6.0-6.47","3048237","co38704","norming","","","{""aha"":0}","[0]","../img/tt/590tt.jpg","",""
"null","<div style=""font-size:60px;""> </div>","null","fixation","html-keyboard-response","342","1270762","0.0-6.0-0.48","3048237","co38704","norming","","","","","","",""
"null","../img/tt/507tt.jpg","null","mooney1","image-keyboard-response","343","1273765","0.0-6.0-1.48","3048237","co38704","norming","","","","","","",""
"5426","","","post_mooney1_questions","survey-likert","344","1279193","0.0-6.0-2.48","3048237","co38704","norming","","","{""curiosity"":4,""confidence"":2}","[0,1]","../img/tt/507tt.jpg","",""
"2815","","","recognition","survey-text","345","1282013","0.0-6.0-3.48","3048237","co38704","norming","","","{""guess"":""dancer""}","","../img/tt/507tt.jpg","",""
"null","../img/gs/507gs.jpg","null","reveal","image-keyboard-response","346","1284015","0.0-6.0-4.48","3048237","co38704","norming","","","","","","",""
"null","../img/tt/507tt.jpg","null","mooney2","image-keyboard-response","347","1286017","0.0-6.0-5.48","3048237","co38704","norming","","","","","","",""
"2012","","","post_reveal_questions","survey-likert","348","1288031","0.0-6.0-6.48","3048237","co38704","norming","","","{""aha"":2}","[0]","../img/tt/507tt.jpg","",""
"null","<div style=""font-size:60px;""> </div>","null","fixation","html-keyboard-response","349","1288233","0.0-6.0-0.49","3048237","co38704","norming","","","","","","",""
"null","../img/tt/1128tt.jpg","null","mooney1","image-keyboard-response","350","1291236","0.0-6.0-1.49","3048237","co38704","norming","","","","","","",""
"4327","","","post_mooney1_questions","survey-likert","351","1295565","0.0-6.0-2.49","3048237","co38704","norming","","","{""curiosity"":4,""confidence"":2}","[0,1]","../img/tt/1128tt.jpg","",""
"2286","","","recognition","survey-text","352","1297856","0.0-6.0-3.49","3048237","co38704","norming","","","{""guess"":""money""}","","../img/tt/1128tt.jpg","",""
"null","../img/gs/1128gs.jpg","null","reveal","image-keyboard-response","353","1299858","0.0-6.0-4.49","3048237","co38704","norming","","","","","","",""
"null","../img/tt/1128tt.jpg","null","mooney2","image-keyboard-response","354","1301860","0.0-6.0-5.49","3048237","co38704","norming","","","","","","",""
"2852.999999999767","","","post_reveal_questions","survey-likert","355","1304714","0.0-6.0-6.49","3048237","co38704","norming","","","{""aha"":6}","[0]","../img/tt/1128tt.jpg","",""
"null","<div style=""font-size:60px;""> </div>","null","fixation","html-keyboard-response","356","1304917","0.0-6.0-0.50","3048237","co38704","norming","","","","","","",""
"null","../img/tt/1171tt.jpg","null","mooney1","image-keyboard-response","357","1307920","0.0-6.0-1.50","3048237","co38704","norming","","","","","","",""
"5264","","","post_mooney1_questions","survey-likert","358","1313186","0.0-6.0-2.50","3048237","co38704","norming","","","{""curiosity"":6,""confidence"":0}","[0,1]","../img/tt/1171tt.jpg","",""
"1380","","","recognition","survey-text","359","1314571","0.0-6.0-3.50","3048237","co38704","norming","","","{""guess"":""""}","","../img/tt/1171tt.jpg","",""
"null","../img/gs/1171gs.jpg","null","reveal","image-keyboard-response","360","1316573","0.0-6.0-4.50","3048237","co38704","norming","","","","","","",""
"null","../img/tt/1171tt.jpg","null","mooney2","image-keyboard-response","361","1318575","0.0-6.0-5.50","3048237","co38704","norming","","","","","","",""
"2133","","","post_reveal_questions","survey-likert","362","1320709","0.0-6.0-6.50","3048237","co38704","norming","","","{""aha"":0}","[0]","../img/tt/1171tt.jpg","",""
"null","<div style=""font-size:60px;""> </div>","null","fixation","html-keyboard-response","363","1320911","0.0-6.0-0.51","3048237","co38704","norming","","","","","","",""
"null","../img/tt/319tt.jpg","null","mooney1","image-keyboard-response","364","1323914","0.0-6.0-1.51","3048237","co38704","norming","","","","","","",""
"5650","","","post_mooney1_questions","survey-likert","365","1329566","0.0-6.0-2.51","3048237","co38704","norming","","","{""curiosity"":3,""confidence"":1}","[0,1]","../img/tt/319tt.jpg","",""
"3857","","","recognition","survey-text","366","1333428","0.0-6.0-3.51","3048237","co38704","norming","","","{""guess"":""butterfly""}","","../img/tt/319tt.jpg","",""
"null","../img/gs/319gs.jpg","null","reveal","image-keyboard-response","367","1335431","0.0-6.0-4.51","3048237","co38704","norming","","","","","","",""
"null","../img/tt/319tt.jpg","null","mooney2","image-keyboard-response","368","1337433","0.0-6.0-5.51","3048237","co38704","norming","","","","","","",""
"11032","","","post_reveal_questions","survey-likert","369","1348466","0.0-6.0-6.51","3048237","co38704","norming","","","{""aha"":2}","[0]","../img/tt/319tt.jpg","",""
"null","<div style=""font-size:60px;""> </div>","null","fixation","html-keyboard-response","370","1348669","0.0-6.0-0.52","3048237","co38704","norming","","","","","","",""
"null","../img/tt/1234tt.jpg","null","mooney1","image-keyboard-response","371","1351672","0.0-6.0-1.52","3048237","co38704","norming","","","","","","",""
"4750","","","post_mooney1_questions","survey-likert","372","1356424","0.0-6.0-2.52","3048237","co38704","norming","","","{""curiosity"":4,""confidence"":1}","[0,1]","../img/tt/1234tt.jpg","",""
"2545.999999999767","","","recognition","survey-text","373","1358976","0.0-6.0-3.52","3048237","co38704","norming","","","{""guess"":""bowler""}","","../img/tt/1234tt.jpg","",""
"null","../img/gs/1234gs.jpg","null","reveal","image-keyboard-response","374","1360978","0.0-6.0-4.52","3048237","co38704","norming","","","","","","",""
"null","../img/tt/1234tt.jpg","null","mooney2","image-keyboard-response","375","1362980","0.0-6.0-5.52","3048237","co38704","norming","","","","","","",""
"1715","","","post_reveal_questions","survey-likert","376","1364697","0.0-6.0-6.52","3048237","co38704","norming","","","{""aha"":1}","[0]","../img/tt/1234tt.jpg","",""
"null","<div style=""font-size:60px;""> </div>","null","fixation","html-keyboard-response","377","1364900","0.0-6.0-0.53","3048237","co38704","norming","","","","","","",""
"null","../img/tt/1307tt.jpg","null","mooney1","image-keyboard-response","378","1367903","0.0-6.0-1.53","3048237","co38704","norming","","","","","","",""
"5018","","","post_mooney1_questions","survey-likert","379","1372922","0.0-6.0-2.53","3048237","co38704","norming","","","{""curiosity"":4,""confidence"":2}","[0,1]","../img/tt/1307tt.jpg","",""
"3522.000000000233","","","recognition","survey-text","380","1376449","0.0-6.0-3.53","3048237","co38704","norming","","","{""guess"":""peacock""}","","../img/tt/1307tt.jpg","",""
"null","../img/gs/1307gs.jpg","null","reveal","image-keyboard-response","381","1378452","0.0-6.0-4.53","3048237","co38704","norming","","","","","","",""
"null","../img/tt/1307tt.jpg","null","mooney2","image-keyboard-response","382","1380454","0.0-6.0-5.53","3048237","co38704","norming","","","","","","",""
"1708","","","post_reveal_questions","survey-likert","383","1382164","0.0-6.0-6.53","3048237","co38704","norming","","","{""aha"":3}","[0]","../img/tt/1307tt.jpg","",""
"null","<div style=""font-size:60px;""> </div>","null","fixation","html-keyboard-response","384","1382366","0.0-6.0-0.54","3048237","co38704","norming","","","","","","",""
"null","../img/tt/1268tt.jpg","null","mooney1","image-keyboard-response","385","1385369","0.0-6.0-1.54","3048237","co38704","norming","","","","","","",""
"6994.000000000233","","","post_mooney1_questions","survey-likert","386","1392364","0.0-6.0-2.54","3048237","co38704","norming","","","{""curiosity"":5,""confidence"":5}","[0,1]","../img/tt/1268tt.jpg","",""
"2644","","","recognition","survey-text","387","1395013","0.0-6.0-3.54","3048237","co38704","norming","","","{""guess"":""eekhoorn""}","","../img/tt/1268tt.jpg","",""
"null","../img/gs/1268gs.jpg","null","reveal","image-keyboard-response","388","1397013","0.0-6.0-4.54","3048237","co38704","norming","","","","","","",""
"null","../img/tt/1268tt.jpg","null","mooney2","image-keyboard-response","389","1399015","0.0-6.0-5.54","3048237","co38704","norming","","","","","","",""
"2299","","","post_reveal_questions","survey-likert","390","1401315","0.0-6.0-6.54","3048237","co38704","norming","","","{""aha"":6}","[0]","../img/tt/1268tt.jpg","",""
"null","<div style=""font-size:60px;""> </div>","null","fixation","html-keyboard-response","391","1401517","0.0-6.0-0.55","3048237","co38704","norming","","","","","","",""
"null","../img/tt/1048tt.jpg","null","mooney1","image-keyboard-response","392","1404520","0.0-6.0-1.55","3048237","co38704","norming","","","","","","",""
"5753","","","post_mooney1_questions","survey-likert","393","1410274","0.0-6.0-2.55","3048237","co38704","norming","","","{""curiosity"":5,""confidence"":0}","[0,1]","../img/tt/1048tt.jpg","",""
"2991","","","recognition","survey-text","394","1413270","0.0-6.0-3.55","3048237","co38704","norming","","","{""guess"":""donkey""}","","../img/tt/1048tt.jpg","",""
"null","../img/gs/1048gs.jpg","null","reveal","image-keyboard-response","395","1415273","0.0-6.0-4.55","3048237","co38704","norming","","","","","","",""
"null","../img/tt/1048tt.jpg","null","mooney2","image-keyboard-response","396","1417276","0.0-6.0-5.55","3048237","co38704","norming","","","","","","",""
"2262","","","post_reveal_questions","survey-likert","397","1419538","0.0-6.0-6.55","3048237","co38704","norming","","","{""aha"":0}","[0]","../img/tt/1048tt.jpg","",""
"null","<div style=""font-size:60px;""> </div>","null","fixation","html-keyboard-response","398","1419741","0.0-6.0-0.56","3048237","co38704","norming","","","","","","",""
"null","../img/tt/046tt.jpg","null","mooney1","image-keyboard-response","399","1422743","0.0-6.0-1.56","3048237","co38704","norming","","","","","","",""
"7213","","","post_mooney1_questions","survey-likert","400","1429957","0.0-6.0-2.56","3048237","co38704","norming","","","{""curiosity"":5,""confidence"":4}","[0,1]","../img/tt/046tt.jpg","",""
"2245","","","recognition","survey-text","401","1432208","0.0-6.0-3.56","3048237","co38704","norming","","","{""guess"":""dog""}","","../img/tt/046tt.jpg","",""
"null","../img/gs/046gs.jpg","null","reveal","image-keyboard-response","402","1434210","0.0-6.0-4.56","3048237","co38704","norming","","","","","","",""
"null","../img/tt/046tt.jpg","null","mooney2","image-keyboard-response","403","1436212","0.0-6.0-5.56","3048237","co38704","norming","","","","","","",""
"1915","","","post_reveal_questions","survey-likert","404","1438128","0.0-6.0-6.56","3048237","co38704","norming","","","{""aha"":5}","[0]","../img/tt/046tt.jpg","",""
"null","<div style=""font-size:60px;""> </div>","null","fixation","html-keyboard-response","405","1438331","0.0-6.0-0.57","3048237","co38704","norming","","","","","","",""
"null","../img/tt/1151tt.jpg","null","mooney1","image-keyboard-response","406","1441333","0.0-6.0-1.57","3048237","co38704","norming","","","","","","",""
"11559.000000000233","","","post_mooney1_questions","survey-likert","407","1452893","0.0-6.0-2.57","3048237","co38704","norming","","","{""curiosity"":4,""confidence"":1}","[0,1]","../img/tt/1151tt.jpg","",""
"6302","","","recognition","survey-text","408","1459201","0.0-6.0-3.57","3048237","co38704","norming","","","{""guess"":""aardvarken""}","","../img/tt/1151tt.jpg","",""
"null","../img/gs/1151gs.jpg","null","reveal","image-keyboard-response","409","1461203","0.0-6.0-4.57","3048237","co38704","norming","","","","","","",""
"null","../img/tt/1151tt.jpg","null","mooney2","image-keyboard-response","410","1463205","0.0-6.0-5.57","3048237","co38704","norming","","","","","","",""
"1390","","","post_reveal_questions","survey-likert","411","1464596","0.0-6.0-6.57","3048237","co38704","norming","","","{""aha"":2}","[0]","../img/tt/1151tt.jpg","",""
"null","<div style=""font-size:60px;""> </div>","null","fixation","html-keyboard-response","412","1464799","0.0-6.0-0.58","3048237","co38704","norming","","","","","","",""
"null","../img/tt/273tt.jpg","null","mooney1","image-keyboard-response","413","1467801","0.0-6.0-1.58","3048237","co38704","norming","","","","","","",""
"7081","","","post_mooney1_questions","survey-likert","414","1474884","0.0-6.0-2.58","3048237","co38704","norming","","","{""curiosity"":2,""confidence"":6}","[0,1]","../img/tt/273tt.jpg","",""
"2164","","","recognition","survey-text","415","1477053","0.0-6.0-3.58","3048237","co38704","norming","","","{""guess"":""mouth""}","","../img/tt/273tt.jpg","",""
"null","../img/gs/273gs.jpg","null","reveal","image-keyboard-response","416","1479055","0.0-6.0-4.58","3048237","co38704","norming","","","","","","",""
"null","../img/tt/273tt.jpg","null","mooney2","image-keyboard-response","417","1481057","0.0-6.0-5.58","3048237","co38704","norming","","","","","","",""
"2379.999999999767","","","post_reveal_questions","survey-likert","418","1483438","0.0-6.0-6.58","3048237","co38704","norming","","","{""aha"":2}","[0]","../img/tt/273tt.jpg","",""
"null","<div style=""font-size:60px;""> </div>","null","fixation","html-keyboard-response","419","1483641","0.0-6.0-0.59","3048237","co38704","norming","","","","","","",""
"null","../img/tt/436tt.jpg","null","mooney1","image-keyboard-response","420","1486643","0.0-6.0-1.59","3048237","co38704","norming","","","","","","",""
"4924","","","post_mooney1_questions","survey-likert","421","1491569","0.0-6.0-2.59","3048237","co38704","norming","","","{""curiosity"":5,""confidence"":1}","[0,1]","../img/tt/436tt.jpg","",""
"17235.000000000233","","","recognition","survey-text","422","1508808","0.0-6.0-3.59","3048237","co38704","norming","","","{""guess"":""bushes""}","","../img/tt/436tt.jpg","",""
"null","../img/gs/436gs.jpg","null","reveal","image-keyboard-response","423","1510811","0.0-6.0-4.59","3048237","co38704","norming","","","","","","",""
"null","../img/tt/436tt.jpg","null","mooney2","image-keyboard-response","424","1512814","0.0-6.0-5.59","3048237","co38704","norming","","","","","","",""
"1551","","","post_reveal_questions","survey-likert","425","1514366","0.0-6.0-6.59","3048237","co38704","norming","","","{""aha"":6}","[0]","../img/tt/436tt.jpg","",""
"null","<div style=""font-size:60px;""> </div>","null","fixation","html-keyboard-response","426","1514568","0.0-6.0-0.60","3048237","co38704","norming","","","","","","",""
"null","../img/tt/1156tt.jpg","null","mooney1","image-keyboard-response","427","1517571","0.0-6.0-1.60","3048237","co38704","norming","","","","","","",""
"4470","","","post_mooney1_questions","survey-likert","428","1522042","0.0-6.0-2.60","3048237","co38704","norming","","","{""curiosity"":4,""confidence"":4}","[0,1]","../img/tt/1156tt.jpg","",""
"2922","","","recognition","survey-text","429","1524969","0.0-6.0-3.60","3048237","co38704","norming","","","{""guess"":""swimmer""}","","../img/tt/1156tt.jpg","",""
"null","../img/gs/1156gs.jpg","null","reveal","image-keyboard-response","430","1526971","0.0-6.0-4.60","3048237","co38704","norming","","","","","","",""
"null","../img/tt/1156tt.jpg","null","mooney2","image-keyboard-response","431","1528973","0.0-6.0-5.60","3048237","co38704","norming","","","","","","",""
"3330","","","post_reveal_questions","survey-likert","432","1532305","0.0-6.0-6.60","3048237","co38704","norming","","","{""aha"":4}","[0]","../img/tt/1156tt.jpg","",""
"null","<div style=""font-size:60px;""> </div>","null","fixation","html-keyboard-response","433","1532507","0.0-6.0-0.61","3048237","co38704","norming","","","","","","",""
"null","../img/tt/300tt.jpg","null","mooney1","image-keyboard-response","434","1535509","0.0-6.0-1.61","3048237","co38704","norming","","","","","","",""
"5074","","","post_mooney1_questions","survey-likert","435","1540585","0.0-6.0-2.61","3048237","co38704","norming","","","{""curiosity"":4,""confidence"":2}","[0,1]","../img/tt/300tt.jpg","",""
"2823","","","recognition","survey-text","436","1543414","0.0-6.0-3.61","3048237","co38704","norming","","","{""guess"":""dancer""}","","../img/tt/300tt.jpg","",""
"null","../img/gs/300gs.jpg","null","reveal","image-keyboard-response","437","1545417","0.0-6.0-4.61","3048237","co38704","norming","","","","","","",""
"null","../img/tt/300tt.jpg","null","mooney2","image-keyboard-response","438","1547419","0.0-6.0-5.61","3048237","co38704","norming","","","","","","",""
"1421","","","post_reveal_questions","survey-likert","439","1548842","0.0-6.0-6.61","3048237","co38704","norming","","","{""aha"":6}","[0]","../img/tt/300tt.jpg","",""
"null","<div style=""font-size:60px;""> </div>","null","fixation","html-keyboard-response","440","1549044","0.0-6.0-0.62","3048237","co38704","norming","","","","","","",""
"null","../img/tt/1046tt.jpg","null","mooney1","image-keyboard-response","441","1552047","0.0-6.0-1.62","3048237","co38704","norming","","","","","","",""
"3699","","","post_mooney1_questions","survey-likert","442","1555747","0.0-6.0-2.62","3048237","co38704","norming","","","{""curiosity"":5,""confidence"":0}","[0,1]","../img/tt/1046tt.jpg","",""
"761.9999999997672","","","recognition","survey-text","443","1556514","0.0-6.0-3.62","3048237","co38704","norming","","","{""guess"":""""}","","../img/tt/1046tt.jpg","",""
"null","../img/gs/1046gs.jpg","null","reveal","image-keyboard-response","444","1558516","0.0-6.0-4.62","3048237","co38704","norming","","","","","","",""
"null","../img/tt/1046tt.jpg","null","mooney2","image-keyboard-response","445","1560519","0.0-6.0-5.62","3048237","co38704","norming","","","","","","",""
"2557","","","post_reveal_questions","survey-likert","446","1563077","0.0-6.0-6.62","3048237","co38704","norming","","","{""aha"":1}","[0]","../img/tt/1046tt.jpg","",""
"null","<div style=""font-size:60px;""> </div>","null","fixation","html-keyboard-response","447","1563280","0.0-6.0-0.63","3048237","co38704","norming","","","","","","",""
"null","../img/tt/1086tt.jpg","null","mooney1","image-keyboard-response","448","1566282","0.0-6.0-1.63","3048237","co38704","norming","","","","","","",""
"4954","","","post_mooney1_questions","survey-likert","449","1571238","0.0-6.0-2.63","3048237","co38704","norming","","","{""curiosity"":5,""confidence"":0}","[0,1]","../img/tt/1086tt.jpg","",""
"1002.9999999997672","","","recognition","survey-text","450","1572246","0.0-6.0-3.63","3048237","co38704","norming","","","{""guess"":""""}","","../img/tt/1086tt.jpg","",""
"null","../img/gs/1086gs.jpg","null","reveal","image-keyboard-response","451","1574248","0.0-6.0-4.63","3048237","co38704","norming","","","","","","",""
"null","../img/tt/1086tt.jpg","null","mooney2","image-keyboard-response","452","1576250","0.0-6.0-5.63","3048237","co38704","norming","","","","","","",""
"2109","","","post_reveal_questions","survey-likert","453","1578359","0.0-6.0-6.63","3048237","co38704","norming","","","{""aha"":4}","[0]","../img/tt/1086tt.jpg","",""
"null","<div style=""font-size:60px;""> </div>","null","fixation","html-keyboard-response","454","1578561","0.0-6.0-0.64","3048237","co38704","norming","","","","","","",""
"null","../img/tt/163tt.jpg","null","mooney1","image-keyboard-response","455","1581563","0.0-6.0-1.64","3048237","co38704","norming","","","","","","",""
"3243","","","post_mooney1_questions","survey-likert","456","1584808","0.0-6.0-2.64","3048237","co38704","norming","","","{""curiosity"":4,""confidence"":1}","[0,1]","../img/tt/163tt.jpg","",""
"4808","","","recognition","survey-text","457","1589621","0.0-6.0-3.64","3048237","co38704","norming","","","{""guess"":""cats""}","","../img/tt/163tt.jpg","",""
"null","../img/gs/163gs.jpg","null","reveal","image-keyboard-response","458","1591622","0.0-6.0-4.64","3048237","co38704","norming","","","","","","",""
"null","../img/tt/163tt.jpg","null","mooney2","image-keyboard-response","459","1593623","0.0-6.0-5.64","3048237","co38704","norming","","","","","","",""
"3035","","","post_reveal_questions","survey-likert","460","1596661","0.0-6.0-6.64","3048237","co38704","norming","","","{""aha"":6}","[0]","../img/tt/163tt.jpg","",""
"null","<div style=""font-size:60px;""> </div>","null","fixation","html-keyboard-response","461","1596863","0.0-6.0-0.65","3048237","co38704","norming","","","","","","",""
"null","../img/tt/222tt.jpg","null","mooney1","image-keyboard-response","462","1599866","0.0-6.0-1.65","3048237","co38704","norming","","","","","","",""
"4498","","","post_mooney1_questions","survey-likert","463","1604365","0.0-6.0-2.65","3048237","co38704","norming","","","{""curiosity"":4,""confidence"":2}","[0,1]","../img/tt/222tt.jpg","",""
"2253.999999999767","","","recognition","survey-text","464","1606623","0.0-6.0-3.65","3048237","co38704","norming","","","{""guess"":""boat""}","","../img/tt/222tt.jpg","",""
"null","../img/gs/222gs.jpg","null","reveal","image-keyboard-response","465","1608626","0.0-6.0-4.65","3048237","co38704","norming","","","","","","",""
"null","../img/tt/222tt.jpg","null","mooney2","image-keyboard-response","466","1610628","0.0-6.0-5.65","3048237","co38704","norming","","","","","","",""
"1709","","","post_reveal_questions","survey-likert","467","1612339","0.0-6.0-6.65","3048237","co38704","norming","","","{""aha"":2}","[0]","../img/tt/222tt.jpg","",""
"null","<div style=""font-size:60px;""> </div>","null","fixation","html-keyboard-response","468","1612541","0.0-6.0-0.66","3048237","co38704","norming","","","","","","",""
"null","../img/tt/301tt.jpg","null","mooney1","image-keyboard-response","469","1615544","0.0-6.0-1.66","3048237","co38704","norming","","","","","","",""
"5044","","","post_mooney1_questions","survey-likert","470","1620589","0.0-6.0-2.66","3048237","co38704","norming","","","{""curiosity"":3,""confidence"":0}","[0,1]","../img/tt/301tt.jpg","",""
"810","","","recognition","survey-text","471","1621404","0.0-6.0-3.66","3048237","co38704","norming","","","{""guess"":""""}","","../img/tt/301tt.jpg","",""
"null","../img/gs/301gs.jpg","null","reveal","image-keyboard-response","472","1623406","0.0-6.0-4.66","3048237","co38704","norming","","","","","","",""
"null","../img/tt/301tt.jpg","null","mooney2","image-keyboard-response","473","1625408","0.0-6.0-5.66","3048237","co38704","norming","","","","","","",""
"1871","","","post_reveal_questions","survey-likert","474","1627280","0.0-6.0-6.66","3048237","co38704","norming","","","{""aha"":0}","[0]","../img/tt/301tt.jpg","",""
"null","<div style=""font-size:60px;""> </div>","null","fixation","html-keyboard-response","475","1627483","0.0-6.0-0.67","3048237","co38704","norming","","","","","","",""
"null","../img/tt/1191tt.jpg","null","mooney1","image-keyboard-response","476","1630485","0.0-6.0-1.67","3048237","co38704","norming","","","","","","",""
"12067","","","post_mooney1_questions","survey-likert","477","1642553","0.0-6.0-2.67","3048237","co38704","norming","","","{""curiosity"":5,""confidence"":3}","[0,1]","../img/tt/1191tt.jpg","",""
"3084","","","recognition","survey-text","478","1645643","0.0-6.0-3.67","3048237","co38704","norming","","","{""guess"":""camels""}","","../img/tt/1191tt.jpg","",""
"null","../img/gs/1191gs.jpg","null","reveal","image-keyboard-response","479","1647645","0.0-6.0-4.67","3048237","co38704","norming","","","","","","",""
"null","../img/tt/1191tt.jpg","null","mooney2","image-keyboard-response","480","1649646","0.0-6.0-5.67","3048237","co38704","norming","","","","","","",""
"1536","","","post_reveal_questions","survey-likert","481","1651184","0.0-6.0-6.67","3048237","co38704","norming","","","{""aha"":5}","[0]","../img/tt/1191tt.jpg","",""
"null","<div style=""font-size:60px;""> </div>","null","fixation","html-keyboard-response","482","1651386","0.0-6.0-0.68","3048237","co38704","norming","","","","","","",""
"null","../img/tt/1159tt.jpg","null","mooney1","image-keyboard-response","483","1654389","0.0-6.0-1.68","3048237","co38704","norming","","","","","","",""
"3723.999999999767","","","post_mooney1_questions","survey-likert","484","1658115","0.0-6.0-2.68","3048237","co38704","norming","","","{""curiosity"":4,""confidence"":0}","[0,1]","../img/tt/1159tt.jpg","",""
"4231","","","recognition","survey-text","485","1662350","0.0-6.0-3.68","3048237","co38704","norming","","","{""guess"":""""}","","../img/tt/1159tt.jpg","",""
"null","../img/gs/1159gs.jpg","null","reveal","image-keyboard-response","486","1664353","0.0-6.0-4.68","3048237","co38704","norming","","","","","","",""
"null","../img/tt/1159tt.jpg","null","mooney2","image-keyboard-response","487","1666356","0.0-6.0-5.68","3048237","co38704","norming","","","","","","",""
"1547","","","post_reveal_questions","survey-likert","488","1667904","0.0-6.0-6.68","3048237","co38704","norming","","","{""aha"":4}","[0]","../img/tt/1159tt.jpg","",""
"null","<div style=""font-size:60px;""> </div>","null","fixation","html-keyboard-response","489","1668106","0.0-6.0-0.69","3048237","co38704","norming","","","","","","",""
"null","../img/tt/052tt.jpg","null","mooney1","image-keyboard-response","490","1671109","0.0-6.0-1.69","3048237","co38704","norming","","","","","","",""
"3649","","","post_mooney1_questions","survey-likert","491","1674759","0.0-6.0-2.69","3048237","co38704","norming","","","{""curiosity"":3,""confidence"":2}","[0,1]","../img/tt/052tt.jpg","",""
"3475","","","recognition","survey-text","492","1678239","0.0-6.0-3.69","3048237","co38704","norming","","","{""guess"":""cake""}","","../img/tt/052tt.jpg","",""
"null","../img/gs/052gs.jpg","null","reveal","image-keyboard-response","493","1680241","0.0-6.0-4.69","3048237","co38704","norming","","","","","","",""
"null","../img/tt/052tt.jpg","null","mooney2","image-keyboard-response","494","1682243","0.0-6.0-5.69","3048237","co38704","norming","","","","","","",""
"1236","","","post_reveal_questions","survey-likert","495","1683480","0.0-6.0-6.69","3048237","co38704","norming","","","{""aha"":6}","[0]","../img/tt/052tt.jpg","",""
"null","<div style=""font-size:60px;""> </div>","null","fixation","html-keyboard-response","496","1683683","0.0-6.0-0.70","3048237","co38704","norming","","","","","","",""
"null","../img/tt/064tt.jpg","null","mooney1","image-keyboard-response","497","1686685","0.0-6.0-1.70","3048237","co38704","norming","","","","","","",""
"7498","","","post_mooney1_questions","survey-likert","498","1694185","0.0-6.0-2.70","3048237","co38704","norming","","","{""curiosity"":4,""confidence"":1}","[0,1]","../img/tt/064tt.jpg","",""
"2017","","","recognition","survey-text","499","1696207","0.0-6.0-3.70","3048237","co38704","norming","","","{""guess"":""bear""}","","../img/tt/064tt.jpg","",""
"null","../img/gs/064gs.jpg","null","reveal","image-keyboard-response","500","1698210","0.0-6.0-4.70","3048237","co38704","norming","","","","","","",""
"null","../img/tt/064tt.jpg","null","mooney2","image-keyboard-response","501","1700212","0.0-6.0-5.70","3048237","co38704","norming","","","","","","",""
"1713","","","post_reveal_questions","survey-likert","502","1701927","0.0-6.0-6.70","3048237","co38704","norming","","","{""aha"":2}","[0]","../img/tt/064tt.jpg","",""
"null","<div style=""font-size:60px;""> </div>","null","fixation","html-keyboard-response","503","1702130","0.0-6.0-0.71","3048237","co38704","norming","","","","","","",""
"null","../img/tt/1122tt.jpg","null","mooney1","image-keyboard-response","504","1705132","0.0-6.0-1.71","3048237","co38704","norming","","","","","","",""
"3995","","","post_mooney1_questions","survey-likert","505","1709129","0.0-6.0-2.71","3048237","co38704","norming","","","{""curiosity"":1,""confidence"":6}","[0,1]","../img/tt/1122tt.jpg","",""
"3068","","","recognition","survey-text","506","1712202","0.0-6.0-3.71","3048237","co38704","norming","","","{""guess"":""boats""}","","../img/tt/1122tt.jpg","",""
"null","../img/gs/1122gs.jpg","null","reveal","image-keyboard-response","507","1714204","0.0-6.0-4.71","3048237","co38704","norming","","","","","","",""
"null","../img/tt/1122tt.jpg","null","mooney2","image-keyboard-response","508","1716206","0.0-6.0-5.71","3048237","co38704","norming","","","","","","",""
"5746","","","post_reveal_questions","survey-likert","509","1721954","0.0-6.0-6.71","3048237","co38704","norming","","","{""aha"":3}","[0]","../img/tt/1122tt.jpg","",""
"null","<div style=""font-size:60px;""> </div>","null","fixation","html-keyboard-response","510","1722157","0.0-6.0-0.72","3048237","co38704","norming","","","","","","",""
"null","../img/tt/1190tt.jpg","null","mooney1","image-keyboard-response","511","1725159","0.0-6.0-1.72","3048237","co38704","norming","","","","","","",""
"2918.999999999767","","","post_mooney1_questions","survey-likert","512","1728080","0.0-6.0-2.72","3048237","co38704","norming","","","{""curiosity"":5,""confidence"":0}","[0,1]","../img/tt/1190tt.jpg","",""
"630","","","recognition","survey-text","513","1728715","0.0-6.0-3.72","3048237","co38704","norming","","","{""guess"":""""}","","../img/tt/1190tt.jpg","",""
"null","../img/gs/1190gs.jpg","null","reveal","image-keyboard-response","514","1730717","0.0-6.0-4.72","3048237","co38704","norming","","","","","","",""
"null","../img/tt/1190tt.jpg","null","mooney2","image-keyboard-response","515","1732720","0.0-6.0-5.72","3048237","co38704","norming","","","","","","",""
"1446","","","post_reveal_questions","survey-likert","516","1734167","0.0-6.0-6.72","3048237","co38704","norming","","","{""aha"":0}","[0]","../img/tt/1190tt.jpg","",""
"null","<div style=""font-size:60px;""> </div>","null","fixation","html-keyboard-response","517","1734369","0.0-6.0-0.73","3048237","co38704","norming","","","","","","",""
"null","../img/tt/1362tt.jpg","null","mooney1","image-keyboard-response","518","1737372","0.0-6.0-1.73","3048237","co38704","norming","","","","","","",""
"4390.999999999767","","","post_mooney1_questions","survey-likert","519","1741765","0.0-6.0-2.73","3048237","co38704","norming","","","{""curiosity"":4,""confidence"":3}","[0,1]","../img/tt/1362tt.jpg","",""
"4977","","","recognition","survey-text","520","1746746","0.0-6.0-3.73","3048237","co38704","norming","","","{""guess"":""headphones""}","","../img/tt/1362tt.jpg","",""
"null","../img/gs/1362gs.jpg","null","reveal","image-keyboard-response","521","1748749","0.0-6.0-4.73","3048237","co38704","norming","","","","","","",""
"null","../img/tt/1362tt.jpg","null","mooney2","image-keyboard-response","522","1750751","0.0-6.0-5.73","3048237","co38704","norming","","","","","","",""
"1264","","","post_reveal_questions","survey-likert","523","1752016","0.0-6.0-6.73","3048237","co38704","norming","","","{""aha"":1}","[0]","../img/tt/1362tt.jpg","",""
"null","<div style=""font-size:60px;""> </div>","null","fixation","html-keyboard-response","524","1752219","0.0-6.0-0.74","3048237","co38704","norming","","","","","","",""
"null","../img/tt/598tt.jpg","null","mooney1","image-keyboard-response","525","1755222","0.0-6.0-1.74","3048237","co38704","norming","","","","","","",""
"4816","","","post_mooney1_questions","survey-likert","526","1760039","0.0-6.0-2.74","3048237","co38704","norming","","","{""curiosity"":4,""confidence"":1}","[0,1]","../img/tt/598tt.jpg","",""
"9664","","","recognition","survey-text","527","1769708","0.0-6.0-3.74","3048237","co38704","norming","","","{""guess"":""""}","","../img/tt/598tt.jpg","",""
"null","../img/gs/598gs.jpg","null","reveal","image-keyboard-response","528","1771711","0.0-6.0-4.74","3048237","co38704","norming","","","","","","",""
"null","../img/tt/598tt.jpg","null","mooney2","image-keyboard-response","529","1773712","0.0-6.0-5.74","3048237","co38704","norming","","","","","","",""
"2540","","","post_reveal_questions","survey-likert","530","1776254","0.0-6.0-6.74","3048237","co38704","norming","","","{""aha"":0}","[0]","../img/tt/598tt.jpg","",""
"null","<div style=""font-size:60px;""> </div>","null","fixation","html-keyboard-response","531","1776456","0.0-6.0-0.75","3048237","co38704","norming","","","","","","",""
"null","../img/tt/1033tt.jpg","null","mooney1","image-keyboard-response","532","1779459","0.0-6.0-1.75","3048237","co38704","norming","","","","","","",""
"4750","","","post_mooney1_questions","survey-likert","533","1784211","0.0-6.0-2.75","3048237","co38704","norming","","","{""curiosity"":4,""confidence"":4}","[0,1]","../img/tt/1033tt.jpg","",""
"5313.000000000233","","","recognition","survey-text","534","1789529","0.0-6.0-3.75","3048237","co38704","norming","","","{""guess"":""baseballplayer""}","","../img/tt/1033tt.jpg","",""
"null","../img/gs/1033gs.jpg","null","reveal","image-keyboard-response","535","1791531","0.0-6.0-4.75","3048237","co38704","norming","","","","","","",""
"null","../img/tt/1033tt.jpg","null","mooney2","image-keyboard-response","536","1793534","0.0-6.0-5.75","3048237","co38704","norming","","","","","","",""
"2381","","","post_reveal_questions","survey-likert","537","1795916","0.0-6.0-6.75","3048237","co38704","norming","","","{""aha"":3}","[0]","../img/tt/1033tt.jpg","",""
"null","<div style=""font-size:60px;""> </div>","null","fixation","html-keyboard-response","538","1796117","0.0-6.0-0.76","3048237","co38704","norming","","","","","","",""
"null","../img/tt/1024tt.jpg","null","mooney1","image-keyboard-response","539","1799120","0.0-6.0-1.76","3048237","co38704","norming","","","","","","",""
"7176.000000000233","","","post_mooney1_questions","survey-likert","540","1806298","0.0-6.0-2.76","3048237","co38704","norming","","","{""curiosity"":4,""confidence"":3}","[0,1]","../img/tt/1024tt.jpg","",""
"9625","","","recognition","survey-text","541","1815927","0.0-6.0-3.76","3048237","co38704","norming","","","{""guess"":""hockeykeeper""}","","../img/tt/1024tt.jpg","",""
"null","../img/gs/1024gs.jpg","null","reveal","image-keyboard-response","542","1817929","0.0-6.0-4.76","3048237","co38704","norming","","","","","","",""
"null","../img/tt/1024tt.jpg","null","mooney2","image-keyboard-response","543","1819932","0.0-6.0-5.76","3048237","co38704","norming","","","","","","",""
"1857.9999999997672","","","post_reveal_questions","survey-likert","544","1821791","0.0-6.0-6.76","3048237","co38704","norming","","","{""aha"":6}","[0]","../img/tt/1024tt.jpg","",""
"null","<div style=""font-size:60px;""> </div>","null","fixation","html-keyboard-response","545","1821992","0.0-6.0-0.77","3048237","co38704","norming","","","","","","",""
"null","../img/tt/603tt.jpg","null","mooney1","image-keyboard-response","546","1824995","0.0-6.0-1.77","3048237","co38704","norming","","","","","","",""
"3064","","","post_mooney1_questions","survey-likert","547","1828060","0.0-6.0-2.77","3048237","co38704","norming","","","{""curiosity"":6,""confidence"":3}","[0,1]","../img/tt/603tt.jpg","",""
"3239","","","recognition","survey-text","548","1831304","0.0-6.0-3.77","3048237","co38704","norming","","","{""guess"":""wolf""}","","../img/tt/603tt.jpg","",""
"null","../img/gs/603gs.jpg","null","reveal","image-keyboard-response","549","1833306","0.0-6.0-4.77","3048237","co38704","norming","","","","","","",""
"null","../img/tt/603tt.jpg","null","mooney2","image-keyboard-response","550","1835309","0.0-6.0-5.77","3048237","co38704","norming","","","","","","",""
"1701","","","post_reveal_questions","survey-likert","551","1837011","0.0-6.0-6.77","3048237","co38704","norming","","","{""aha"":4}","[0]","../img/tt/603tt.jpg","",""
"null","<div style=""font-size:60px;""> </div>","null","fixation","html-keyboard-response","552","1837213","0.0-6.0-0.78","3048237","co38704","norming","","","","","","",""
"null","../img/tt/524tt.jpg","null","mooney1","image-keyboard-response","553","1840216","0.0-6.0-1.78","3048237","co38704","norming","","","","","","",""
"4463","","","post_mooney1_questions","survey-likert","554","1844680","0.0-6.0-2.78","3048237","co38704","norming","","","{""curiosity"":5,""confidence"":3}","[0,1]","../img/tt/524tt.jpg","",""
"4807","","","recognition","survey-text","555","1849492","0.0-6.0-3.78","3048237","co38704","norming","","","{""guess"":""elephant""}","","../img/tt/524tt.jpg","",""
"null","../img/gs/524gs.jpg","null","reveal","image-keyboard-response","556","1851494","0.0-6.0-4.78","3048237","co38704","norming","","","","","","",""
"null","../img/tt/524tt.jpg","null","mooney2","image-keyboard-response","557","1853496","0.0-6.0-5.78","3048237","co38704","norming","","","","","","",""
"1439","","","post_reveal_questions","survey-likert","558","1854937","0.0-6.0-6.78","3048237","co38704","norming","","","{""aha"":6}","[0]","../img/tt/524tt.jpg","",""
"null","<div style=""font-size:60px;""> </div>","null","fixation","html-keyboard-response","559","1855139","0.0-6.0-0.79","3048237","co38704","norming","","","","","","",""
"null","../img/tt/1269tt.jpg","null","mooney1","image-keyboard-response","560","1858141","0.0-6.0-1.79","3048237","co38704","norming","","","","","","",""
"5094","","","post_mooney1_questions","survey-likert","561","1863237","0.0-6.0-2.79","3048237","co38704","norming","","","{""curiosity"":2,""confidence"":6}","[0,1]","../img/tt/1269tt.jpg","",""
"13348.999999999767","","","recognition","survey-text","562","1876591","0.0-6.0-3.79","3048237","co38704","norming","","","{""guess"":""eekhoorn ""}","","../img/tt/1269tt.jpg","",""
"null","../img/gs/1269gs.jpg","null","reveal","image-keyboard-response","563","1878593","0.0-6.0-4.79","3048237","co38704","norming","","","","","","",""
"null","../img/tt/1269tt.jpg","null","mooney2","image-keyboard-response","564","1880595","0.0-6.0-5.79","3048237","co38704","norming","","","","","","",""
"3632","","","post_reveal_questions","survey-likert","565","1884228","0.0-6.0-6.79","3048237","co38704","norming","","","{""aha"":0}","[0]","../img/tt/1269tt.jpg","",""
