"rt","stimulus","key_press","test_part","trial_type","trial_index","time_elapsed","internal_node_id","totalTime","subject","experiment_name","button_pressed","success","responses","question_order","currentStim","old","correct"
"19078","Welcome to the experiment. This is an online experiment so please don't close the tab/window until we say goodbye.  Press any key to begin.","32","instructions","html-keyboard-response","0","19091","0.0-0.0","3411713","co38545","norming","","","","","","",""
"15590","<div style='word-wrap: break-word; width: 900px'><h3>Please consider this information carefully before deciding whether to participate in this research</h3><ul style='text-align: left; font-size: .8em;'><li><b>Purpose of the research</b>: To examine how people process images.</li><li><b>What you will do in this research</b>:  Stimuli (images) will be presented on the computer and you will be asked different questions about them.</li><li><b>Time required</b>: Participation will take between 45 and 60 minutes to complete.</li><li><b>Risks</b>:  There are no anticipated risks associated with participating in this study. The effects of participating should be comparable to those you would experience from viewing a computer monitor for 30 minutes and using a mouse or keyboard.</li><li><b>Benefits</b>:  This study provides no benefits to you individually except for the credit. The study provides important information about the nature of perception and learning.</li><li><b>Confidentiality</b>:  Your participation in this study will remain confidential. No personally identifiable information will be associated with your data. Your de-identified data may be shared with other researchers and used in future projects.</li><li><b>Participation and withdrawal</b>:  Your participation in this study is completely voluntary and you may refuse to participate or you may choose to withdraw at any time without penalty.</li><li><b>How to contact the researchers</b>: If you have questions or concerns about your participation or payment, or want to request a summary of research findings, please contact Sander Van de Cruys (KU Leuven), at sander.vandecruys@kuleuven.be.</li></ul><p>The nature and purpose of this research have been sufficiently explained and I agree to participate in this study.  I understand that I am free to withdraw at any time without incurring any penalty.</p><p>Please consent by clicking the button below to continue. Otherwise, please exit the study at this time.</p></div>","","instructions","html-button-response","1","34683","0.0-1.0","3411713","co38545","norming","0","","","","","",""
"","","","instructions","fullscreen","2","39748","0.0-2.0","3411713","co38545","norming","","true","","","","",""
"31106","","","sona","survey-html-form","3","70857","0.0-3.0","3411713","co38545","norming","","","[{""name"":""sonaid"",""value"":""38545""},{""name"":""debrief"",""value"":""no""},{""name"":""datajoin"",""value"":""yes""}]","","","",""
"168859","<div style='word-wrap: break-word; width: 900px'><h3>Instructions</h3><p>This experiment will have 3 parts. In the first part you will see a series of distorted images like the one below on the left. As you can see in the righthand image, the distorted images are derived from actual photographs. In what follows, you will <strong>briefly</strong> be presented with <strong>only</strong> the distorted image.</p> <div style='float: left; margin-right: 20px;'><img src='../img/018tt.jpg' height='250' width='250'></img></div><div style='float: right; margin-left: 20px;'><img src='../img/018gs.jpg' height='250' width='250'></img></div><p>Subsequently you will be asked a few questions about the image: One question on how <strong>curious</strong> you are about the solution and one on how <strong>confident</strong> you are that you know the solution.</p>Next, we ask you to make a guess on what is in the image. Note that it is OK to name just the <strong>basic level category</strong>. For example when you see a parrot in the image, 'parrot' will obviously be a correct answer but also correct is 'bird'. However, 'animal' will <strong>not</strong> be counted as a correct response. For the example above, 'rose' would be correct or 'flower', but not 'plant'. When soccer players are depicted, 'soccer', 'football', 'soccer players' will be correct, but not 'humans', 'outdoors', or 'sports'. You do not need to describe the image in full, just name the main object in it <strong>in one or two words</strong>. All images depict objects from one of the following broad level categories: animals, inanimate objects, plants, sports, vehicles, and food. Recognizing means knowing <strong>more</strong> than these broad labels for a given image. But we always encourage you to <strong>make a guess</strong> if you can. Note that you are allowed to use <strong>Dutch and English</strong> in your answers, whatever comes easiest for you.</p><p>Press any key to continue.</p></div>","32","instructions","html-keyboard-response","4","239722","0.0-4.0","3411713","co38545","norming","","","","","","",""
"31555.00000000006","<div style='word-wrap: break-word; width: 900px'><h3>Instructions</h3> <p>Next, the solution image will be revealed to you and you'll be asked to indicate how strong your <strong>aha-experience</strong> was after seeing the solution. This describes the positive feeling of the 'click' you sometimes experience, when the pieces of the 'puzzle' fall together and you suddenly have 'insight' in the image.</p><img src='aha.jpg' height='188' width='250'></img><p>Note that there are no right or wrong answers. We are interested in what <strong>you</strong> see in the image and how <strong>you</strong> feel about it.</p><p>Press any key to start the experiment.</p></div>","32","instructions","html-keyboard-response","5","271278","0.0-5.0","3411713","co38545","norming","","","","","","",""
"null","<div style=""font-size:60px;""> </div>","null","fixation","html-keyboard-response","6","271480","0.0-6.0-0.0","3411713","co38545","norming","","","","","","",""
"null","../img/tt/189tt.jpg","null","mooney1","image-keyboard-response","7","274483","0.0-6.0-1.0","3411713","co38545","norming","","","","","","",""
"13428","","","post_mooney1_questions","survey-likert","8","287914","0.0-6.0-2.0","3411713","co38545","norming","","","{""curiosity"":4,""confidence"":1}","[0,1]","../img/tt/189tt.jpg","",""
"9480","","","recognition","survey-text","9","297407","0.0-6.0-3.0","3411713","co38545","norming","","","{""guess"":""person sitting""}","","../img/tt/189tt.jpg","",""
"null","../img/gs/189gs.jpg","null","reveal","image-keyboard-response","10","299409","0.0-6.0-4.0","3411713","co38545","norming","","","","","","",""
"null","../img/tt/189tt.jpg","null","mooney2","image-keyboard-response","11","301411","0.0-6.0-5.0","3411713","co38545","norming","","","","","","",""
"8894","","","post_reveal_questions","survey-likert","12","310306","0.0-6.0-6.0","3411713","co38545","norming","","","{""aha"":4}","[0]","../img/tt/189tt.jpg","",""
"null","<div style=""font-size:60px;""> </div>","null","fixation","html-keyboard-response","13","310511","0.0-6.0-0.1","3411713","co38545","norming","","","","","","",""
"null","../img/tt/603tt.jpg","null","mooney1","image-keyboard-response","14","313513","0.0-6.0-1.1","3411713","co38545","norming","","","","","","",""
"7191","","","post_mooney1_questions","survey-likert","15","320706","0.0-6.0-2.1","3411713","co38545","norming","","","{""curiosity"":2,""confidence"":4}","[0,1]","../img/tt/603tt.jpg","",""
"2703","","","recognition","survey-text","16","323419","0.0-6.0-3.1","3411713","co38545","norming","","","{""guess"":""cat""}","","../img/tt/603tt.jpg","",""
"null","../img/gs/603gs.jpg","null","reveal","image-keyboard-response","17","325421","0.0-6.0-4.1","3411713","co38545","norming","","","","","","",""
"null","../img/tt/603tt.jpg","null","mooney2","image-keyboard-response","18","327423","0.0-6.0-5.1","3411713","co38545","norming","","","","","","",""
"4272.000000000058","","","post_reveal_questions","survey-likert","19","331697","0.0-6.0-6.1","3411713","co38545","norming","","","{""aha"":2}","[0]","../img/tt/603tt.jpg","",""
"null","<div style=""font-size:60px;""> </div>","null","fixation","html-keyboard-response","20","331900","0.0-6.0-0.2","3411713","co38545","norming","","","","","","",""
"null","../img/tt/524tt.jpg","null","mooney1","image-keyboard-response","21","334902","0.0-6.0-1.2","3411713","co38545","norming","","","","","","",""
"6552","","","post_mooney1_questions","survey-likert","22","341457","0.0-6.0-2.2","3411713","co38545","norming","","","{""curiosity"":2,""confidence"":5}","[0,1]","../img/tt/524tt.jpg","",""
"3323","","","recognition","survey-text","23","344791","0.0-6.0-3.2","3411713","co38545","norming","","","{""guess"":""olifant""}","","../img/tt/524tt.jpg","",""
"null","../img/gs/524gs.jpg","null","reveal","image-keyboard-response","24","346793","0.0-6.0-4.2","3411713","co38545","norming","","","","","","",""
"null","../img/tt/524tt.jpg","null","mooney2","image-keyboard-response","25","348795","0.0-6.0-5.2","3411713","co38545","norming","","","","","","",""
"4269","","","post_reveal_questions","survey-likert","26","353066","0.0-6.0-6.2","3411713","co38545","norming","","","{""aha"":4}","[0]","../img/tt/524tt.jpg","",""
"null","<div style=""font-size:60px;""> </div>","null","fixation","html-keyboard-response","27","353269","0.0-6.0-0.3","3411713","co38545","norming","","","","","","",""
"null","../img/tt/1275tt.jpg","null","mooney1","image-keyboard-response","28","356271","0.0-6.0-1.3","3411713","co38545","norming","","","","","","",""
"10224","","","post_mooney1_questions","survey-likert","29","366498","0.0-6.0-2.3","3411713","co38545","norming","","","{""curiosity"":5,""confidence"":0}","[0,1]","../img/tt/1275tt.jpg","",""
"13032.999999999942","","","recognition","survey-text","30","379540","0.0-6.0-3.3","3411713","co38545","norming","","","{""guess"":""person standing""}","","../img/tt/1275tt.jpg","",""
"null","../img/gs/1275gs.jpg","null","reveal","image-keyboard-response","31","381544","0.0-6.0-4.3","3411713","co38545","norming","","","","","","",""
"null","../img/tt/1275tt.jpg","null","mooney2","image-keyboard-response","32","383546","0.0-6.0-5.3","3411713","co38545","norming","","","","","","",""
"7947","","","post_reveal_questions","survey-likert","33","391495","0.0-6.0-6.3","3411713","co38545","norming","","","{""aha"":2}","[0]","../img/tt/1275tt.jpg","",""
"null","<div style=""font-size:60px;""> </div>","null","fixation","html-keyboard-response","34","391698","0.0-6.0-0.4","3411713","co38545","norming","","","","","","",""
"null","../img/tt/1366tt.jpg","null","mooney1","image-keyboard-response","35","394701","0.0-6.0-1.4","3411713","co38545","norming","","","","","","",""
"5756","","","post_mooney1_questions","survey-likert","36","400459","0.0-6.0-2.4","3411713","co38545","norming","","","{""curiosity"":4,""confidence"":1}","[0,1]","../img/tt/1366tt.jpg","",""
"3577","","","recognition","survey-text","37","404047","0.0-6.0-3.4","3411713","co38545","norming","","","{""guess"":""burrito""}","","../img/tt/1366tt.jpg","",""
"null","../img/gs/1366gs.jpg","null","reveal","image-keyboard-response","38","406049","0.0-6.0-4.4","3411713","co38545","norming","","","","","","",""
"null","../img/tt/1366tt.jpg","null","mooney2","image-keyboard-response","39","408051","0.0-6.0-5.4","3411713","co38545","norming","","","","","","",""
"8673","","","post_reveal_questions","survey-likert","40","416726","0.0-6.0-6.4","3411713","co38545","norming","","","{""aha"":4}","[0]","../img/tt/1366tt.jpg","",""
"null","<div style=""font-size:60px;""> </div>","null","fixation","html-keyboard-response","41","416931","0.0-6.0-0.5","3411713","co38545","norming","","","","","","",""
"null","../img/tt/1101tt.jpg","null","mooney1","image-keyboard-response","42","419933","0.0-6.0-1.5","3411713","co38545","norming","","","","","","",""
"9388","","","post_mooney1_questions","survey-likert","43","429323","0.0-6.0-2.5","3411713","co38545","norming","","","{""curiosity"":3,""confidence"":2}","[0,1]","../img/tt/1101tt.jpg","",""
"11022","","","recognition","survey-text","44","440356","0.0-6.0-3.5","3411713","co38545","norming","","","{""guess"":""foot ball""}","","../img/tt/1101tt.jpg","",""
"null","../img/gs/1101gs.jpg","null","reveal","image-keyboard-response","45","442358","0.0-6.0-4.5","3411713","co38545","norming","","","","","","",""
"null","../img/tt/1101tt.jpg","null","mooney2","image-keyboard-response","46","444360","0.0-6.0-5.5","3411713","co38545","norming","","","","","","",""
"3304","","","post_reveal_questions","survey-likert","47","447665","0.0-6.0-6.5","3411713","co38545","norming","","","{""aha"":2}","[0]","../img/tt/1101tt.jpg","",""
"null","<div style=""font-size:60px;""> </div>","null","fixation","html-keyboard-response","48","447869","0.0-6.0-0.6","3411713","co38545","norming","","","","","","",""
"null","../img/tt/1232tt.jpg","null","mooney1","image-keyboard-response","49","450871","0.0-6.0-1.6","3411713","co38545","norming","","","","","","",""
"7776.999999999942","","","post_mooney1_questions","survey-likert","50","458650","0.0-6.0-2.6","3411713","co38545","norming","","","{""curiosity"":4,""confidence"":0}","[0,1]","../img/tt/1232tt.jpg","",""
"7691.999999999942","","","recognition","survey-text","51","466351","0.0-6.0-3.6","3411713","co38545","norming","","","{""guess"":""space""}","","../img/tt/1232tt.jpg","",""
"null","../img/gs/1232gs.jpg","null","reveal","image-keyboard-response","52","468354","0.0-6.0-4.6","3411713","co38545","norming","","","","","","",""
"null","../img/tt/1232tt.jpg","null","mooney2","image-keyboard-response","53","470356","0.0-6.0-5.6","3411713","co38545","norming","","","","","","",""
"3423","","","post_reveal_questions","survey-likert","54","473780","0.0-6.0-6.6","3411713","co38545","norming","","","{""aha"":5}","[0]","../img/tt/1232tt.jpg","",""
"null","<div style=""font-size:60px;""> </div>","null","fixation","html-keyboard-response","55","473983","0.0-6.0-0.7","3411713","co38545","norming","","","","","","",""
"null","../img/tt/1159tt.jpg","null","mooney1","image-keyboard-response","56","476985","0.0-6.0-1.7","3411713","co38545","norming","","","","","","",""
"10669","","","post_mooney1_questions","survey-likert","57","487657","0.0-6.0-2.7","3411713","co38545","norming","","","{""curiosity"":4,""confidence"":1}","[0,1]","../img/tt/1159tt.jpg","",""
"5190.000000000058","","","recognition","survey-text","58","492857","0.0-6.0-3.7","3411713","co38545","norming","","","{""guess"":""piano""}","","../img/tt/1159tt.jpg","",""
"null","../img/gs/1159gs.jpg","null","reveal","image-keyboard-response","59","494860","0.0-6.0-4.7","3411713","co38545","norming","","","","","","",""
"null","../img/tt/1159tt.jpg","null","mooney2","image-keyboard-response","60","496861","0.0-6.0-5.7","3411713","co38545","norming","","","","","","",""
"2348","","","post_reveal_questions","survey-likert","61","499211","0.0-6.0-6.7","3411713","co38545","norming","","","{""aha"":4}","[0]","../img/tt/1159tt.jpg","",""
"null","<div style=""font-size:60px;""> </div>","null","fixation","html-keyboard-response","62","499414","0.0-6.0-0.8","3411713","co38545","norming","","","","","","",""
"null","../img/tt/378tt.jpg","null","mooney1","image-keyboard-response","63","502417","0.0-6.0-1.8","3411713","co38545","norming","","","","","","",""
"9500","","","post_mooney1_questions","survey-likert","64","511918","0.0-6.0-2.8","3411713","co38545","norming","","","{""curiosity"":5,""confidence"":1}","[0,1]","../img/tt/378tt.jpg","",""
"4697","","","recognition","survey-text","65","516625","0.0-6.0-3.8","3411713","co38545","norming","","","{""guess"":""musician""}","","../img/tt/378tt.jpg","",""
"null","../img/gs/378gs.jpg","null","reveal","image-keyboard-response","66","518628","0.0-6.0-4.8","3411713","co38545","norming","","","","","","",""
"null","../img/tt/378tt.jpg","null","mooney2","image-keyboard-response","67","520630","0.0-6.0-5.8","3411713","co38545","norming","","","","","","",""
"2511","","","post_reveal_questions","survey-likert","68","523143","0.0-6.0-6.8","3411713","co38545","norming","","","{""aha"":4}","[0]","../img/tt/378tt.jpg","",""
"null","<div style=""font-size:60px;""> </div>","null","fixation","html-keyboard-response","69","523346","0.0-6.0-0.9","3411713","co38545","norming","","","","","","",""
"null","../img/tt/1043tt.jpg","null","mooney1","image-keyboard-response","70","526348","0.0-6.0-1.9","3411713","co38545","norming","","","","","","",""
"4945","","","post_mooney1_questions","survey-likert","71","531295","0.0-6.0-2.9","3411713","co38545","norming","","","{""curiosity"":4,""confidence"":2}","[0,1]","../img/tt/1043tt.jpg","",""
"2541","","","recognition","survey-text","72","533847","0.0-6.0-3.9","3411713","co38545","norming","","","{""guess"":""hot dog""}","","../img/tt/1043tt.jpg","",""
"null","../img/gs/1043gs.jpg","null","reveal","image-keyboard-response","73","535850","0.0-6.0-4.9","3411713","co38545","norming","","","","","","",""
"null","../img/tt/1043tt.jpg","null","mooney2","image-keyboard-response","74","537852","0.0-6.0-5.9","3411713","co38545","norming","","","","","","",""
"2728","","","post_reveal_questions","survey-likert","75","540581","0.0-6.0-6.9","3411713","co38545","norming","","","{""aha"":4}","[0]","../img/tt/1043tt.jpg","",""
"null","<div style=""font-size:60px;""> </div>","null","fixation","html-keyboard-response","76","540784","0.0-6.0-0.10","3411713","co38545","norming","","","","","","",""
"null","../img/tt/1154tt.jpg","null","mooney1","image-keyboard-response","77","543786","0.0-6.0-1.10","3411713","co38545","norming","","","","","","",""
"6926","","","post_mooney1_questions","survey-likert","78","550714","0.0-6.0-2.10","3411713","co38545","norming","","","{""curiosity"":4,""confidence"":1}","[0,1]","../img/tt/1154tt.jpg","",""
"3169","","","recognition","survey-text","79","553891","0.0-6.0-3.10","3411713","co38545","norming","","","{""guess"":""rendier""}","","../img/tt/1154tt.jpg","",""
"null","../img/gs/1154gs.jpg","null","reveal","image-keyboard-response","80","555894","0.0-6.0-4.10","3411713","co38545","norming","","","","","","",""
"null","../img/tt/1154tt.jpg","null","mooney2","image-keyboard-response","81","557896","0.0-6.0-5.10","3411713","co38545","norming","","","","","","",""
"4605","","","post_reveal_questions","survey-likert","82","562503","0.0-6.0-6.10","3411713","co38545","norming","","","{""aha"":3}","[0]","../img/tt/1154tt.jpg","",""
"null","<div style=""font-size:60px;""> </div>","null","fixation","html-keyboard-response","83","562706","0.0-6.0-0.11","3411713","co38545","norming","","","","","","",""
"null","../img/tt/1123tt.jpg","null","mooney1","image-keyboard-response","84","565709","0.0-6.0-1.11","3411713","co38545","norming","","","","","","",""
"9030.000000000116","","","post_mooney1_questions","survey-likert","85","574741","0.0-6.0-2.11","3411713","co38545","norming","","","{""curiosity"":4,""confidence"":4}","[0,1]","../img/tt/1123tt.jpg","",""
"1660","","","recognition","survey-text","86","576411","0.0-6.0-3.11","3411713","co38545","norming","","","{""guess"":""dog""}","","../img/tt/1123tt.jpg","",""
"null","../img/gs/1123gs.jpg","null","reveal","image-keyboard-response","87","578413","0.0-6.0-4.11","3411713","co38545","norming","","","","","","",""
"null","../img/tt/1123tt.jpg","null","mooney2","image-keyboard-response","88","580415","0.0-6.0-5.11","3411713","co38545","norming","","","","","","",""
"3837","","","post_reveal_questions","survey-likert","89","584253","0.0-6.0-6.11","3411713","co38545","norming","","","{""aha"":5}","[0]","../img/tt/1123tt.jpg","",""
"null","<div style=""font-size:60px;""> </div>","null","fixation","html-keyboard-response","90","584456","0.0-6.0-0.12","3411713","co38545","norming","","","","","","",""
"null","../img/tt/412tt.jpg","null","mooney1","image-keyboard-response","91","587459","0.0-6.0-1.12","3411713","co38545","norming","","","","","","",""
"7465","","","post_mooney1_questions","survey-likert","92","594926","0.0-6.0-2.12","3411713","co38545","norming","","","{""curiosity"":2,""confidence"":0}","[0,1]","../img/tt/412tt.jpg","",""
"6275.000000000116","","","recognition","survey-text","93","601217","0.0-6.0-3.12","3411713","co38545","norming","","","{""guess"":""person""}","","../img/tt/412tt.jpg","",""
"null","../img/gs/412gs.jpg","null","reveal","image-keyboard-response","94","603221","0.0-6.0-4.12","3411713","co38545","norming","","","","","","",""
"null","../img/tt/412tt.jpg","null","mooney2","image-keyboard-response","95","605222","0.0-6.0-5.12","3411713","co38545","norming","","","","","","",""
"2239","","","post_reveal_questions","survey-likert","96","607463","0.0-6.0-6.12","3411713","co38545","norming","","","{""aha"":2}","[0]","../img/tt/412tt.jpg","",""
"null","<div style=""font-size:60px;""> </div>","null","fixation","html-keyboard-response","97","607666","0.0-6.0-0.13","3411713","co38545","norming","","","","","","",""
"null","../img/tt/1048tt.jpg","null","mooney1","image-keyboard-response","98","610669","0.0-6.0-1.13","3411713","co38545","norming","","","","","","",""
"6857","","","post_mooney1_questions","survey-likert","99","617528","0.0-6.0-2.13","3411713","co38545","norming","","","{""curiosity"":4,""confidence"":3}","[0,1]","../img/tt/1048tt.jpg","",""
"2377.0000000001164","","","recognition","survey-text","100","619915","0.0-6.0-3.13","3411713","co38545","norming","","","{""guess"":""horse""}","","../img/tt/1048tt.jpg","",""
"null","../img/gs/1048gs.jpg","null","reveal","image-keyboard-response","101","621918","0.0-6.0-4.13","3411713","co38545","norming","","","","","","",""
"null","../img/tt/1048tt.jpg","null","mooney2","image-keyboard-response","102","623919","0.0-6.0-5.13","3411713","co38545","norming","","","","","","",""
"4383","","","post_reveal_questions","survey-likert","103","628304","0.0-6.0-6.13","3411713","co38545","norming","","","{""aha"":3}","[0]","../img/tt/1048tt.jpg","",""
"null","<div style=""font-size:60px;""> </div>","null","fixation","html-keyboard-response","104","628507","0.0-6.0-0.14","3411713","co38545","norming","","","","","","",""
"null","../img/tt/1127tt.jpg","null","mooney1","image-keyboard-response","105","631509","0.0-6.0-1.14","3411713","co38545","norming","","","","","","",""
"6206","","","post_mooney1_questions","survey-likert","106","637717","0.0-6.0-2.14","3411713","co38545","norming","","","{""curiosity"":4,""confidence"":4}","[0,1]","../img/tt/1127tt.jpg","",""
"2204","","","recognition","survey-text","107","639931","0.0-6.0-3.14","3411713","co38545","norming","","","{""guess"":""café""}","","../img/tt/1127tt.jpg","",""
"null","../img/gs/1127gs.jpg","null","reveal","image-keyboard-response","108","641934","0.0-6.0-4.14","3411713","co38545","norming","","","","","","",""
"null","../img/tt/1127tt.jpg","null","mooney2","image-keyboard-response","109","643936","0.0-6.0-5.14","3411713","co38545","norming","","","","","","",""
"3139","","","post_reveal_questions","survey-likert","110","647077","0.0-6.0-6.14","3411713","co38545","norming","","","{""aha"":4}","[0]","../img/tt/1127tt.jpg","",""
"null","<div style=""font-size:60px;""> </div>","null","fixation","html-keyboard-response","111","647280","0.0-6.0-0.15","3411713","co38545","norming","","","","","","",""
"null","../img/tt/279tt.jpg","null","mooney1","image-keyboard-response","112","650283","0.0-6.0-1.15","3411713","co38545","norming","","","","","","",""
"4070","","","post_mooney1_questions","survey-likert","113","654355","0.0-6.0-2.15","3411713","co38545","norming","","","{""curiosity"":4,""confidence"":4}","[0,1]","../img/tt/279tt.jpg","",""
"2317","","","recognition","survey-text","114","656681","0.0-6.0-3.15","3411713","co38545","norming","","","{""guess"":""koala""}","","../img/tt/279tt.jpg","",""
"null","../img/gs/279gs.jpg","null","reveal","image-keyboard-response","115","658683","0.0-6.0-4.15","3411713","co38545","norming","","","","","","",""
"null","../img/tt/279tt.jpg","null","mooney2","image-keyboard-response","116","660685","0.0-6.0-5.15","3411713","co38545","norming","","","","","","",""
"2455","","","post_reveal_questions","survey-likert","117","663143","0.0-6.0-6.15","3411713","co38545","norming","","","{""aha"":2}","[0]","../img/tt/279tt.jpg","",""
"null","<div style=""font-size:60px;""> </div>","null","fixation","html-keyboard-response","118","663346","0.0-6.0-0.16","3411713","co38545","norming","","","","","","",""
"null","../img/tt/098tt.jpg","null","mooney1","image-keyboard-response","119","666348","0.0-6.0-1.16","3411713","co38545","norming","","","","","","",""
"4319","","","post_mooney1_questions","survey-likert","120","670669","0.0-6.0-2.16","3411713","co38545","norming","","","{""curiosity"":4,""confidence"":1}","[0,1]","../img/tt/098tt.jpg","",""
"1850","","","recognition","survey-text","121","672530","0.0-6.0-3.16","3411713","co38545","norming","","","{""guess"":""horse""}","","../img/tt/098tt.jpg","",""
"null","../img/gs/098gs.jpg","null","reveal","image-keyboard-response","122","674532","0.0-6.0-4.16","3411713","co38545","norming","","","","","","",""
"null","../img/tt/098tt.jpg","null","mooney2","image-keyboard-response","123","676535","0.0-6.0-5.16","3411713","co38545","norming","","","","","","",""
"3477","","","post_reveal_questions","survey-likert","124","680013","0.0-6.0-6.16","3411713","co38545","norming","","","{""aha"":3}","[0]","../img/tt/098tt.jpg","",""
"null","<div style=""font-size:60px;""> </div>","null","fixation","html-keyboard-response","125","680216","0.0-6.0-0.17","3411713","co38545","norming","","","","","","",""
"null","../img/tt/1247tt.jpg","null","mooney1","image-keyboard-response","126","683218","0.0-6.0-1.17","3411713","co38545","norming","","","","","","",""
"4891","","","post_mooney1_questions","survey-likert","127","688112","0.0-6.0-2.17","3411713","co38545","norming","","","{""curiosity"":4,""confidence"":3}","[0,1]","../img/tt/1247tt.jpg","",""
"3790","","","recognition","survey-text","128","691913","0.0-6.0-3.17","3411713","co38545","norming","","","{""guess"":""lion""}","","../img/tt/1247tt.jpg","",""
"null","../img/gs/1247gs.jpg","null","reveal","image-keyboard-response","129","693916","0.0-6.0-4.17","3411713","co38545","norming","","","","","","",""
"null","../img/tt/1247tt.jpg","null","mooney2","image-keyboard-response","130","695918","0.0-6.0-5.17","3411713","co38545","norming","","","","","","",""
"3635","","","post_reveal_questions","survey-likert","131","699554","0.0-6.0-6.17","3411713","co38545","norming","","","{""aha"":4}","[0]","../img/tt/1247tt.jpg","",""
"null","<div style=""font-size:60px;""> </div>","null","fixation","html-keyboard-response","132","699757","0.0-6.0-0.18","3411713","co38545","norming","","","","","","",""
"null","../img/tt/406tt.jpg","null","mooney1","image-keyboard-response","133","702759","0.0-6.0-1.18","3411713","co38545","norming","","","","","","",""
"5276","","","post_mooney1_questions","survey-likert","134","708037","0.0-6.0-2.18","3411713","co38545","norming","","","{""curiosity"":4,""confidence"":3}","[0,1]","../img/tt/406tt.jpg","",""
"3099.9999999998836","","","recognition","survey-text","135","711148","0.0-6.0-3.18","3411713","co38545","norming","","","{""guess"":""vleermuis""}","","../img/tt/406tt.jpg","",""
"null","../img/gs/406gs.jpg","null","reveal","image-keyboard-response","136","713150","0.0-6.0-4.18","3411713","co38545","norming","","","","","","",""
"null","../img/tt/406tt.jpg","null","mooney2","image-keyboard-response","137","715152","0.0-6.0-5.18","3411713","co38545","norming","","","","","","",""
"6769.000000000116","","","post_reveal_questions","survey-likert","138","721923","0.0-6.0-6.18","3411713","co38545","norming","","","{""aha"":2}","[0]","../img/tt/406tt.jpg","",""
"null","<div style=""font-size:60px;""> </div>","null","fixation","html-keyboard-response","139","722126","0.0-6.0-0.19","3411713","co38545","norming","","","","","","",""
"null","../img/tt/1040tt.jpg","null","mooney1","image-keyboard-response","140","725128","0.0-6.0-1.19","3411713","co38545","norming","","","","","","",""
"6702","","","post_mooney1_questions","survey-likert","141","731832","0.0-6.0-2.19","3411713","co38545","norming","","","{""curiosity"":4,""confidence"":0}","[0,1]","../img/tt/1040tt.jpg","",""
"1687","","","recognition","survey-text","142","733529","0.0-6.0-3.19","3411713","co38545","norming","","","{""guess"":""rat""}","","../img/tt/1040tt.jpg","",""
"null","../img/gs/1040gs.jpg","null","reveal","image-keyboard-response","143","735531","0.0-6.0-4.19","3411713","co38545","norming","","","","","","",""
"null","../img/tt/1040tt.jpg","null","mooney2","image-keyboard-response","144","737533","0.0-6.0-5.19","3411713","co38545","norming","","","","","","",""
"3536","","","post_reveal_questions","survey-likert","145","741072","0.0-6.0-6.19","3411713","co38545","norming","","","{""aha"":4}","[0]","../img/tt/1040tt.jpg","",""
"null","<div style=""font-size:60px;""> </div>","null","fixation","html-keyboard-response","146","741275","0.0-6.0-0.20","3411713","co38545","norming","","","","","","",""
"null","../img/tt/1202tt.jpg","null","mooney1","image-keyboard-response","147","744277","0.0-6.0-1.20","3411713","co38545","norming","","","","","","",""
"6200","","","post_mooney1_questions","survey-likert","148","750479","0.0-6.0-2.20","3411713","co38545","norming","","","{""curiosity"":4,""confidence"":1}","[0,1]","../img/tt/1202tt.jpg","",""
"2890","","","recognition","survey-text","149","753379","0.0-6.0-3.20","3411713","co38545","norming","","","{""guess"":""person""}","","../img/tt/1202tt.jpg","",""
"null","../img/gs/1202gs.jpg","null","reveal","image-keyboard-response","150","755382","0.0-6.0-4.20","3411713","co38545","norming","","","","","","",""
"null","../img/tt/1202tt.jpg","null","mooney2","image-keyboard-response","151","757383","0.0-6.0-5.20","3411713","co38545","norming","","","","","","",""
"4943.000000000116","","","post_reveal_questions","survey-likert","152","762328","0.0-6.0-6.20","3411713","co38545","norming","","","{""aha"":2}","[0]","../img/tt/1202tt.jpg","",""
"null","<div style=""font-size:60px;""> </div>","null","fixation","html-keyboard-response","153","762532","0.0-6.0-0.21","3411713","co38545","norming","","","","","","",""
"null","../img/tt/357tt.jpg","null","mooney1","image-keyboard-response","154","765534","0.0-6.0-1.21","3411713","co38545","norming","","","","","","",""
"5970","","","post_mooney1_questions","survey-likert","155","771507","0.0-6.0-2.21","3411713","co38545","norming","","","{""curiosity"":4,""confidence"":4}","[0,1]","../img/tt/357tt.jpg","",""
"1848","","","recognition","survey-text","156","773365","0.0-6.0-3.21","3411713","co38545","norming","","","{""guess"":""egel""}","","../img/tt/357tt.jpg","",""
"null","../img/gs/357gs.jpg","null","reveal","image-keyboard-response","157","775368","0.0-6.0-4.21","3411713","co38545","norming","","","","","","",""
"null","../img/tt/357tt.jpg","null","mooney2","image-keyboard-response","158","777370","0.0-6.0-5.21","3411713","co38545","norming","","","","","","",""
"4619.000000000116","","","post_reveal_questions","survey-likert","159","781991","0.0-6.0-6.21","3411713","co38545","norming","","","{""aha"":2}","[0]","../img/tt/357tt.jpg","",""
"null","<div style=""font-size:60px;""> </div>","null","fixation","html-keyboard-response","160","782194","0.0-6.0-0.22","3411713","co38545","norming","","","","","","",""
"null","../img/tt/552tt.jpg","null","mooney1","image-keyboard-response","161","785197","0.0-6.0-1.22","3411713","co38545","norming","","","","","","",""
"7461.999999999884","","","post_mooney1_questions","survey-likert","162","792661","0.0-6.0-2.22","3411713","co38545","norming","","","{""curiosity"":4,""confidence"":5}","[0,1]","../img/tt/552tt.jpg","",""
"2750","","","recognition","survey-text","163","795420","0.0-6.0-3.22","3411713","co38545","norming","","","{""guess"":""stinkdier""}","","../img/tt/552tt.jpg","",""
"null","../img/gs/552gs.jpg","null","reveal","image-keyboard-response","164","797423","0.0-6.0-4.22","3411713","co38545","norming","","","","","","",""
"null","../img/tt/552tt.jpg","null","mooney2","image-keyboard-response","165","799425","0.0-6.0-5.22","3411713","co38545","norming","","","","","","",""
"5414","","","post_reveal_questions","survey-likert","166","804841","0.0-6.0-6.22","3411713","co38545","norming","","","{""aha"":2}","[0]","../img/tt/552tt.jpg","",""
"null","<div style=""font-size:60px;""> </div>","null","fixation","html-keyboard-response","167","805044","0.0-6.0-0.23","3411713","co38545","norming","","","","","","",""
"null","../img/tt/522tt.jpg","null","mooney1","image-keyboard-response","168","808047","0.0-6.0-1.23","3411713","co38545","norming","","","","","","",""
"6063","","","post_mooney1_questions","survey-likert","169","814113","0.0-6.0-2.23","3411713","co38545","norming","","","{""curiosity"":4,""confidence"":5}","[0,1]","../img/tt/522tt.jpg","",""
"2080","","","recognition","survey-text","170","816203","0.0-6.0-3.23","3411713","co38545","norming","","","{""guess"":""kat""}","","../img/tt/522tt.jpg","",""
"null","../img/gs/522gs.jpg","null","reveal","image-keyboard-response","171","818206","0.0-6.0-4.23","3411713","co38545","norming","","","","","","",""
"null","../img/tt/522tt.jpg","null","mooney2","image-keyboard-response","172","820208","0.0-6.0-5.23","3411713","co38545","norming","","","","","","",""
"6624","","","post_reveal_questions","survey-likert","173","826834","0.0-6.0-6.23","3411713","co38545","norming","","","{""aha"":2}","[0]","../img/tt/522tt.jpg","",""
"null","<div style=""font-size:60px;""> </div>","null","fixation","html-keyboard-response","174","827037","0.0-6.0-0.24","3411713","co38545","norming","","","","","","",""
"null","../img/tt/1142tt.jpg","null","mooney1","image-keyboard-response","175","830039","0.0-6.0-1.24","3411713","co38545","norming","","","","","","",""
"4431.999999999884","","","post_mooney1_questions","survey-likert","176","834473","0.0-6.0-2.24","3411713","co38545","norming","","","{""curiosity"":2,""confidence"":5}","[0,1]","../img/tt/1142tt.jpg","",""
"2248","","","recognition","survey-text","177","836730","0.0-6.0-3.24","3411713","co38545","norming","","","{""guess"":""soccer""}","","../img/tt/1142tt.jpg","",""
"null","../img/gs/1142gs.jpg","null","reveal","image-keyboard-response","178","838733","0.0-6.0-4.24","3411713","co38545","norming","","","","","","",""
"null","../img/tt/1142tt.jpg","null","mooney2","image-keyboard-response","179","840734","0.0-6.0-5.24","3411713","co38545","norming","","","","","","",""
"110877","","","post_reveal_questions","survey-likert","180","951616","0.0-6.0-6.24","3411713","co38545","norming","","","{""aha"":2}","[0]","../img/tt/1142tt.jpg","",""
"null","<div style=""font-size:60px;""> </div>","null","fixation","html-keyboard-response","181","951820","0.0-6.0-0.25","3411713","co38545","norming","","","","","","",""
"null","../img/tt/163tt.jpg","null","mooney1","image-keyboard-response","182","954823","0.0-6.0-1.25","3411713","co38545","norming","","","","","","",""
"4230.000000000116","","","post_mooney1_questions","survey-likert","183","959055","0.0-6.0-2.25","3411713","co38545","norming","","","{""curiosity"":4,""confidence"":4}","[0,1]","../img/tt/163tt.jpg","",""
"2311","","","recognition","survey-text","184","961374","0.0-6.0-3.25","3411713","co38545","norming","","","{""guess"":""broccoli""}","","../img/tt/163tt.jpg","",""
"null","../img/gs/163gs.jpg","null","reveal","image-keyboard-response","185","963377","0.0-6.0-4.25","3411713","co38545","norming","","","","","","",""
"null","../img/tt/163tt.jpg","null","mooney2","image-keyboard-response","186","965379","0.0-6.0-5.25","3411713","co38545","norming","","","","","","",""
"46956","","","post_reveal_questions","survey-likert","187","1012338","0.0-6.0-6.25","3411713","co38545","norming","","","{""aha"":2}","[0]","../img/tt/163tt.jpg","",""
"null","<div style=""font-size:60px;""> </div>","null","fixation","html-keyboard-response","188","1012542","0.0-6.0-0.26","3411713","co38545","norming","","","","","","",""
"null","../img/tt/1055tt.jpg","null","mooney1","image-keyboard-response","189","1015545","0.0-6.0-1.26","3411713","co38545","norming","","","","","","",""
"5064.999999999884","","","post_mooney1_questions","survey-likert","190","1020611","0.0-6.0-2.26","3411713","co38545","norming","","","{""curiosity"":4,""confidence"":1}","[0,1]","../img/tt/1055tt.jpg","",""
"5610","","","recognition","survey-text","191","1026230","0.0-6.0-3.26","3411713","co38545","norming","","","{""guess"":""sprinkhaan""}","","../img/tt/1055tt.jpg","",""
"null","../img/gs/1055gs.jpg","null","reveal","image-keyboard-response","192","1028232","0.0-6.0-4.26","3411713","co38545","norming","","","","","","",""
"null","../img/tt/1055tt.jpg","null","mooney2","image-keyboard-response","193","1030235","0.0-6.0-5.26","3411713","co38545","norming","","","","","","",""
"44250","","","post_reveal_questions","survey-likert","194","1074487","0.0-6.0-6.26","3411713","co38545","norming","","","{""aha"":4}","[0]","../img/tt/1055tt.jpg","",""
"null","<div style=""font-size:60px;""> </div>","null","fixation","html-keyboard-response","195","1074691","0.0-6.0-0.27","3411713","co38545","norming","","","","","","",""
"null","../img/tt/1069tt.jpg","null","mooney1","image-keyboard-response","196","1077693","0.0-6.0-1.27","3411713","co38545","norming","","","","","","",""
"4013.999999999767","","","post_mooney1_questions","survey-likert","197","1081709","0.0-6.0-2.27","3411713","co38545","norming","","","{""curiosity"":4,""confidence"":2}","[0,1]","../img/tt/1069tt.jpg","",""
"2163","","","recognition","survey-text","198","1083883","0.0-6.0-3.27","3411713","co38545","norming","","","{""guess"":""animals""}","","../img/tt/1069tt.jpg","",""
"null","../img/gs/1069gs.jpg","null","reveal","image-keyboard-response","199","1085885","0.0-6.0-4.27","3411713","co38545","norming","","","","","","",""
"null","../img/tt/1069tt.jpg","null","mooney2","image-keyboard-response","200","1087887","0.0-6.0-5.27","3411713","co38545","norming","","","","","","",""
"3023","","","post_reveal_questions","survey-likert","201","1090911","0.0-6.0-6.27","3411713","co38545","norming","","","{""aha"":4}","[0]","../img/tt/1069tt.jpg","",""
"null","<div style=""font-size:60px;""> </div>","null","fixation","html-keyboard-response","202","1091115","0.0-6.0-0.28","3411713","co38545","norming","","","","","","",""
"null","../img/tt/1146tt.jpg","null","mooney1","image-keyboard-response","203","1094117","0.0-6.0-1.28","3411713","co38545","norming","","","","","","",""
"11081.999999999767","","","post_mooney1_questions","survey-likert","204","1105201","0.0-6.0-2.28","3411713","co38545","norming","","","{""curiosity"":4,""confidence"":1}","[0,1]","../img/tt/1146tt.jpg","",""
"6818","","","recognition","survey-text","205","1112030","0.0-6.0-3.28","3411713","co38545","norming","","","{""guess"":""liggend persoon""}","","../img/tt/1146tt.jpg","",""
"null","../img/gs/1146gs.jpg","null","reveal","image-keyboard-response","206","1114033","0.0-6.0-4.28","3411713","co38545","norming","","","","","","",""
"null","../img/tt/1146tt.jpg","null","mooney2","image-keyboard-response","207","1116034","0.0-6.0-5.28","3411713","co38545","norming","","","","","","",""
"4961","","","post_reveal_questions","survey-likert","208","1120998","0.0-6.0-6.28","3411713","co38545","norming","","","{""aha"":5}","[0]","../img/tt/1146tt.jpg","",""
"null","<div style=""font-size:60px;""> </div>","null","fixation","html-keyboard-response","209","1121201","0.0-6.0-0.29","3411713","co38545","norming","","","","","","",""
"null","../img/tt/1363tt.jpg","null","mooney1","image-keyboard-response","210","1124203","0.0-6.0-1.29","3411713","co38545","norming","","","","","","",""
"8670","","","post_mooney1_questions","survey-likert","211","1132876","0.0-6.0-2.29","3411713","co38545","norming","","","{""curiosity"":4,""confidence"":5}","[0,1]","../img/tt/1363tt.jpg","",""
"1398.0000000002328","","","recognition","survey-text","212","1134283","0.0-6.0-3.29","3411713","co38545","norming","","","{""guess"":""saus""}","","../img/tt/1363tt.jpg","",""
"null","../img/gs/1363gs.jpg","null","reveal","image-keyboard-response","213","1136286","0.0-6.0-4.29","3411713","co38545","norming","","","","","","",""
"null","../img/tt/1363tt.jpg","null","mooney2","image-keyboard-response","214","1138288","0.0-6.0-5.29","3411713","co38545","norming","","","","","","",""
"3172","","","post_reveal_questions","survey-likert","215","1141461","0.0-6.0-6.29","3411713","co38545","norming","","","{""aha"":4}","[0]","../img/tt/1363tt.jpg","",""
"null","<div style=""font-size:60px;""> </div>","null","fixation","html-keyboard-response","216","1141664","0.0-6.0-0.30","3411713","co38545","norming","","","","","","",""
"null","../img/tt/1211tt.jpg","null","mooney1","image-keyboard-response","217","1144666","0.0-6.0-1.30","3411713","co38545","norming","","","","","","",""
"4892","","","post_mooney1_questions","survey-likert","218","1149560","0.0-6.0-2.30","3411713","co38545","norming","","","{""curiosity"":4,""confidence"":1}","[0,1]","../img/tt/1211tt.jpg","",""
"3789","","","recognition","survey-text","219","1153357","0.0-6.0-3.30","3411713","co38545","norming","","","{""guess"":""persoon zit""}","","../img/tt/1211tt.jpg","",""
"null","../img/gs/1211gs.jpg","null","reveal","image-keyboard-response","220","1155359","0.0-6.0-4.30","3411713","co38545","norming","","","","","","",""
"null","../img/tt/1211tt.jpg","null","mooney2","image-keyboard-response","221","1157360","0.0-6.0-5.30","3411713","co38545","norming","","","","","","",""
"2531","","","post_reveal_questions","survey-likert","222","1159893","0.0-6.0-6.30","3411713","co38545","norming","","","{""aha"":4}","[0]","../img/tt/1211tt.jpg","",""
"null","<div style=""font-size:60px;""> </div>","null","fixation","html-keyboard-response","223","1160095","0.0-6.0-0.31","3411713","co38545","norming","","","","","","",""
"null","../img/tt/442tt.jpg","null","mooney1","image-keyboard-response","224","1163098","0.0-6.0-1.31","3411713","co38545","norming","","","","","","",""
"3896.000000000233","","","post_mooney1_questions","survey-likert","225","1166996","0.0-6.0-2.31","3411713","co38545","norming","","","{""curiosity"":4,""confidence"":1}","[0,1]","../img/tt/442tt.jpg","",""
"3292","","","recognition","survey-text","226","1170299","0.0-6.0-3.31","3411713","co38545","norming","","","{""guess"":""kever ""}","","../img/tt/442tt.jpg","",""
"null","../img/gs/442gs.jpg","null","reveal","image-keyboard-response","227","1172302","0.0-6.0-4.31","3411713","co38545","norming","","","","","","",""
"null","../img/tt/442tt.jpg","null","mooney2","image-keyboard-response","228","1174304","0.0-6.0-5.31","3411713","co38545","norming","","","","","","",""
"2873","","","post_reveal_questions","survey-likert","229","1177179","0.0-6.0-6.31","3411713","co38545","norming","","","{""aha"":4}","[0]","../img/tt/442tt.jpg","",""
"null","<div style=""font-size:60px;""> </div>","null","fixation","html-keyboard-response","230","1177383","0.0-6.0-0.32","3411713","co38545","norming","","","","","","",""
"null","../img/tt/567tt.jpg","null","mooney1","image-keyboard-response","231","1180385","0.0-6.0-1.32","3411713","co38545","norming","","","","","","",""
"3609","","","post_mooney1_questions","survey-likert","232","1183996","0.0-6.0-2.32","3411713","co38545","norming","","","{""curiosity"":4,""confidence"":1}","[0,1]","../img/tt/567tt.jpg","",""
"7037","","","recognition","survey-text","233","1191042","0.0-6.0-3.32","3411713","co38545","norming","","","{""guess"":""toast""}","","../img/tt/567tt.jpg","",""
"null","../img/gs/567gs.jpg","null","reveal","image-keyboard-response","234","1193045","0.0-6.0-4.32","3411713","co38545","norming","","","","","","",""
"null","../img/tt/567tt.jpg","null","mooney2","image-keyboard-response","235","1195046","0.0-6.0-5.32","3411713","co38545","norming","","","","","","",""
"3194","","","post_reveal_questions","survey-likert","236","1198242","0.0-6.0-6.32","3411713","co38545","norming","","","{""aha"":5}","[0]","../img/tt/567tt.jpg","",""
"null","<div style=""font-size:60px;""> </div>","null","fixation","html-keyboard-response","237","1198445","0.0-6.0-0.33","3411713","co38545","norming","","","","","","",""
"null","../img/tt/1228tt.jpg","null","mooney1","image-keyboard-response","238","1201447","0.0-6.0-1.33","3411713","co38545","norming","","","","","","",""
"7288","","","post_mooney1_questions","survey-likert","239","1208738","0.0-6.0-2.33","3411713","co38545","norming","","","{""curiosity"":2,""confidence"":2}","[0,1]","../img/tt/1228tt.jpg","",""
"1615","","","recognition","survey-text","240","1210362","0.0-6.0-3.33","3411713","co38545","norming","","","{""guess"":""bird""}","","../img/tt/1228tt.jpg","",""
"null","../img/gs/1228gs.jpg","null","reveal","image-keyboard-response","241","1212365","0.0-6.0-4.33","3411713","co38545","norming","","","","","","",""
"null","../img/tt/1228tt.jpg","null","mooney2","image-keyboard-response","242","1214367","0.0-6.0-5.33","3411713","co38545","norming","","","","","","",""
"3383","","","post_reveal_questions","survey-likert","243","1217751","0.0-6.0-6.33","3411713","co38545","norming","","","{""aha"":4}","[0]","../img/tt/1228tt.jpg","",""
"null","<div style=""font-size:60px;""> </div>","null","fixation","html-keyboard-response","244","1217955","0.0-6.0-0.34","3411713","co38545","norming","","","","","","",""
"null","../img/tt/273tt.jpg","null","mooney1","image-keyboard-response","245","1220957","0.0-6.0-1.34","3411713","co38545","norming","","","","","","",""
"6563","","","post_mooney1_questions","survey-likert","246","1227523","0.0-6.0-2.34","3411713","co38545","norming","","","{""curiosity"":4,""confidence"":2}","[0,1]","../img/tt/273tt.jpg","",""
"2833","","","recognition","survey-text","247","1230367","0.0-6.0-3.34","3411713","co38545","norming","","","{""guess"":""krokodil""}","","../img/tt/273tt.jpg","",""
"null","../img/gs/273gs.jpg","null","reveal","image-keyboard-response","248","1232370","0.0-6.0-4.34","3411713","co38545","norming","","","","","","",""
"null","../img/tt/273tt.jpg","null","mooney2","image-keyboard-response","249","1234371","0.0-6.0-5.34","3411713","co38545","norming","","","","","","",""
"2332.999999999767","","","post_reveal_questions","survey-likert","250","1236707","0.0-6.0-6.34","3411713","co38545","norming","","","{""aha"":5}","[0]","../img/tt/273tt.jpg","",""
"null","<div style=""font-size:60px;""> </div>","null","fixation","html-keyboard-response","251","1236909","0.0-6.0-0.35","3411713","co38545","norming","","","","","","",""
"null","../img/tt/020tt.jpg","null","mooney1","image-keyboard-response","252","1239911","0.0-6.0-1.35","3411713","co38545","norming","","","","","","",""
"4308","","","post_mooney1_questions","survey-likert","253","1244221","0.0-6.0-2.35","3411713","co38545","norming","","","{""curiosity"":4,""confidence"":0}","[0,1]","../img/tt/020tt.jpg","",""
"3399","","","recognition","survey-text","254","1247629","0.0-6.0-3.35","3411713","co38545","norming","","","{""guess"":""eten""}","","../img/tt/020tt.jpg","",""
"null","../img/gs/020gs.jpg","null","reveal","image-keyboard-response","255","1249633","0.0-6.0-4.35","3411713","co38545","norming","","","","","","",""
"null","../img/tt/020tt.jpg","null","mooney2","image-keyboard-response","256","1251635","0.0-6.0-5.35","3411713","co38545","norming","","","","","","",""
"1811","","","post_reveal_questions","survey-likert","257","1253447","0.0-6.0-6.35","3411713","co38545","norming","","","{""aha"":3}","[0]","../img/tt/020tt.jpg","",""
"null","<div style=""font-size:60px;""> </div>","null","fixation","html-keyboard-response","258","1253650","0.0-6.0-0.36","3411713","co38545","norming","","","","","","",""
"null","../img/tt/1217tt.jpg","null","mooney1","image-keyboard-response","259","1256653","0.0-6.0-1.36","3411713","co38545","norming","","","","","","",""
"5416","","","post_mooney1_questions","survey-likert","260","1262071","0.0-6.0-2.36","3411713","co38545","norming","","","{""curiosity"":3,""confidence"":4}","[0,1]","../img/tt/1217tt.jpg","",""
"2958","","","recognition","survey-text","261","1265038","0.0-6.0-3.36","3411713","co38545","norming","","","{""guess"":""rugby""}","","../img/tt/1217tt.jpg","",""
"null","../img/gs/1217gs.jpg","null","reveal","image-keyboard-response","262","1267041","0.0-6.0-4.36","3411713","co38545","norming","","","","","","",""
"null","../img/tt/1217tt.jpg","null","mooney2","image-keyboard-response","263","1269044","0.0-6.0-5.36","3411713","co38545","norming","","","","","","",""
"3852","","","post_reveal_questions","survey-likert","264","1272897","0.0-6.0-6.36","3411713","co38545","norming","","","{""aha"":2}","[0]","../img/tt/1217tt.jpg","",""
"null","<div style=""font-size:60px;""> </div>","null","fixation","html-keyboard-response","265","1273100","0.0-6.0-0.37","3411713","co38545","norming","","","","","","",""
"null","../img/tt/1084tt.jpg","null","mooney1","image-keyboard-response","266","1276103","0.0-6.0-1.37","3411713","co38545","norming","","","","","","",""
"6023","","","post_mooney1_questions","survey-likert","267","1282129","0.0-6.0-2.37","3411713","co38545","norming","","","{""curiosity"":4,""confidence"":2}","[0,1]","../img/tt/1084tt.jpg","",""
"1912","","","recognition","survey-text","268","1284051","0.0-6.0-3.37","3411713","co38545","norming","","","{""guess"":""pizza""}","","../img/tt/1084tt.jpg","",""
"null","../img/gs/1084gs.jpg","null","reveal","image-keyboard-response","269","1286054","0.0-6.0-4.37","3411713","co38545","norming","","","","","","",""
"null","../img/tt/1084tt.jpg","null","mooney2","image-keyboard-response","270","1288057","0.0-6.0-5.37","3411713","co38545","norming","","","","","","",""
"3350","","","post_reveal_questions","survey-likert","271","1291409","0.0-6.0-6.37","3411713","co38545","norming","","","{""aha"":3}","[0]","../img/tt/1084tt.jpg","",""
"null","<div style=""font-size:60px;""> </div>","null","fixation","html-keyboard-response","272","1291613","0.0-6.0-0.38","3411713","co38545","norming","","","","","","",""
"null","../img/tt/590tt.jpg","null","mooney1","image-keyboard-response","273","1294615","0.0-6.0-1.38","3411713","co38545","norming","","","","","","",""
"4777.000000000233","","","post_mooney1_questions","survey-likert","274","1299394","0.0-6.0-2.38","3411713","co38545","norming","","","{""curiosity"":4,""confidence"":2}","[0,1]","../img/tt/590tt.jpg","",""
"3408.999999999767","","","recognition","survey-text","275","1302813","0.0-6.0-3.38","3411713","co38545","norming","","","{""guess"":""schoolbank""}","","../img/tt/590tt.jpg","",""
"null","../img/gs/590gs.jpg","null","reveal","image-keyboard-response","276","1304815","0.0-6.0-4.38","3411713","co38545","norming","","","","","","",""
"null","../img/tt/590tt.jpg","null","mooney2","image-keyboard-response","277","1306818","0.0-6.0-5.38","3411713","co38545","norming","","","","","","",""
"3379","","","post_reveal_questions","survey-likert","278","1310198","0.0-6.0-6.38","3411713","co38545","norming","","","{""aha"":4}","[0]","../img/tt/590tt.jpg","",""
"null","<div style=""font-size:60px;""> </div>","null","fixation","html-keyboard-response","279","1310401","0.0-6.0-0.39","3411713","co38545","norming","","","","","","",""
"null","../img/tt/515tt.jpg","null","mooney1","image-keyboard-response","280","1313404","0.0-6.0-1.39","3411713","co38545","norming","","","","","","",""
"7213","","","post_mooney1_questions","survey-likert","281","1320619","0.0-6.0-2.39","3411713","co38545","norming","","","{""curiosity"":4,""confidence"":1}","[0,1]","../img/tt/515tt.jpg","",""
"2034","","","recognition","survey-text","282","1322660","0.0-6.0-3.39","3411713","co38545","norming","","","{""guess"":""wapen""}","","../img/tt/515tt.jpg","",""
"null","../img/gs/515gs.jpg","null","reveal","image-keyboard-response","283","1324662","0.0-6.0-4.39","3411713","co38545","norming","","","","","","",""
"null","../img/tt/515tt.jpg","null","mooney2","image-keyboard-response","284","1326665","0.0-6.0-5.39","3411713","co38545","norming","","","","","","",""
"2226","","","post_reveal_questions","survey-likert","285","1328892","0.0-6.0-6.39","3411713","co38545","norming","","","{""aha"":4}","[0]","../img/tt/515tt.jpg","",""
"null","<div style=""font-size:60px;""> </div>","null","fixation","html-keyboard-response","286","1329096","0.0-6.0-0.40","3411713","co38545","norming","","","","","","",""
"null","../img/tt/435tt.jpg","null","mooney1","image-keyboard-response","287","1332098","0.0-6.0-1.40","3411713","co38545","norming","","","","","","",""
"5586","","","post_mooney1_questions","survey-likert","288","1337686","0.0-6.0-2.40","3411713","co38545","norming","","","{""curiosity"":4,""confidence"":0}","[0,1]","../img/tt/435tt.jpg","",""
"2051","","","recognition","survey-text","289","1339745","0.0-6.0-3.40","3411713","co38545","norming","","","{""guess"":""vogel""}","","../img/tt/435tt.jpg","",""
"null","../img/gs/435gs.jpg","null","reveal","image-keyboard-response","290","1341747","0.0-6.0-4.40","3411713","co38545","norming","","","","","","",""
"null","../img/tt/435tt.jpg","null","mooney2","image-keyboard-response","291","1343749","0.0-6.0-5.40","3411713","co38545","norming","","","","","","",""
"4712.999999999767","","","post_reveal_questions","survey-likert","292","1348464","0.0-6.0-6.40","3411713","co38545","norming","","","{""aha"":2}","[0]","../img/tt/435tt.jpg","",""
"null","<div style=""font-size:60px;""> </div>","null","fixation","html-keyboard-response","293","1348668","0.0-6.0-0.41","3411713","co38545","norming","","","","","","",""
"null","../img/tt/063tt.jpg","null","mooney1","image-keyboard-response","294","1351670","0.0-6.0-1.41","3411713","co38545","norming","","","","","","",""
"5700","","","post_mooney1_questions","survey-likert","295","1357372","0.0-6.0-2.41","3411713","co38545","norming","","","{""curiosity"":4,""confidence"":2}","[0,1]","../img/tt/063tt.jpg","",""
"3451","","","recognition","survey-text","296","1360835","0.0-6.0-3.41","3411713","co38545","norming","","","{""guess"":""telefooons""}","","../img/tt/063tt.jpg","",""
"null","../img/gs/063gs.jpg","null","reveal","image-keyboard-response","297","1362837","0.0-6.0-4.41","3411713","co38545","norming","","","","","","",""
"null","../img/tt/063tt.jpg","null","mooney2","image-keyboard-response","298","1364838","0.0-6.0-5.41","3411713","co38545","norming","","","","","","",""
"3236","","","post_reveal_questions","survey-likert","299","1368076","0.0-6.0-6.41","3411713","co38545","norming","","","{""aha"":4}","[0]","../img/tt/063tt.jpg","",""
"null","<div style=""font-size:60px;""> </div>","null","fixation","html-keyboard-response","300","1368279","0.0-6.0-0.42","3411713","co38545","norming","","","","","","",""
"null","../img/tt/440tt.jpg","null","mooney1","image-keyboard-response","301","1371282","0.0-6.0-1.42","3411713","co38545","norming","","","","","","",""
"5846","","","post_mooney1_questions","survey-likert","302","1377129","0.0-6.0-2.42","3411713","co38545","norming","","","{""curiosity"":4,""confidence"":2}","[0,1]","../img/tt/440tt.jpg","",""
"1721","","","recognition","survey-text","303","1378860","0.0-6.0-3.42","3411713","co38545","norming","","","{""guess"":""horse""}","","../img/tt/440tt.jpg","",""
"null","../img/gs/440gs.jpg","null","reveal","image-keyboard-response","304","1380862","0.0-6.0-4.42","3411713","co38545","norming","","","","","","",""
"null","../img/tt/440tt.jpg","null","mooney2","image-keyboard-response","305","1382866","0.0-6.0-5.42","3411713","co38545","norming","","","","","","",""
"2429.999999999767","","","post_reveal_questions","survey-likert","306","1385298","0.0-6.0-6.42","3411713","co38545","norming","","","{""aha"":5}","[0]","../img/tt/440tt.jpg","",""
"null","<div style=""font-size:60px;""> </div>","null","fixation","html-keyboard-response","307","1385501","0.0-6.0-0.43","3411713","co38545","norming","","","","","","",""
"null","../img/tt/1307tt.jpg","null","mooney1","image-keyboard-response","308","1388504","0.0-6.0-1.43","3411713","co38545","norming","","","","","","",""
"3611","","","post_mooney1_questions","survey-likert","309","1392116","0.0-6.0-2.43","3411713","co38545","norming","","","{""curiosity"":4,""confidence"":2}","[0,1]","../img/tt/1307tt.jpg","",""
"1533","","","recognition","survey-text","310","1393659","0.0-6.0-3.43","3411713","co38545","norming","","","{""guess"":""wiel""}","","../img/tt/1307tt.jpg","",""
"null","../img/gs/1307gs.jpg","null","reveal","image-keyboard-response","311","1395662","0.0-6.0-4.43","3411713","co38545","norming","","","","","","",""
"null","../img/tt/1307tt.jpg","null","mooney2","image-keyboard-response","312","1397663","0.0-6.0-5.43","3411713","co38545","norming","","","","","","",""
"3037","","","post_reveal_questions","survey-likert","313","1400702","0.0-6.0-6.43","3411713","co38545","norming","","","{""aha"":1}","[0]","../img/tt/1307tt.jpg","",""
"null","<div style=""font-size:60px;""> </div>","null","fixation","html-keyboard-response","314","1400905","0.0-6.0-0.44","3411713","co38545","norming","","","","","","",""
"null","../img/tt/1148tt.jpg","null","mooney1","image-keyboard-response","315","1403908","0.0-6.0-1.44","3411713","co38545","norming","","","","","","",""
"4710","","","post_mooney1_questions","survey-likert","316","1408619","0.0-6.0-2.44","3411713","co38545","norming","","","{""curiosity"":3,""confidence"":4}","[0,1]","../img/tt/1148tt.jpg","",""
"2557","","","recognition","survey-text","317","1411186","0.0-6.0-3.44","3411713","co38545","norming","","","{""guess"":""zwembad""}","","../img/tt/1148tt.jpg","",""
"null","../img/gs/1148gs.jpg","null","reveal","image-keyboard-response","318","1413189","0.0-6.0-4.44","3411713","co38545","norming","","","","","","",""
"null","../img/tt/1148tt.jpg","null","mooney2","image-keyboard-response","319","1415192","0.0-6.0-5.44","3411713","co38545","norming","","","","","","",""
"4738","","","post_reveal_questions","survey-likert","320","1419932","0.0-6.0-6.44","3411713","co38545","norming","","","{""aha"":4}","[0]","../img/tt/1148tt.jpg","",""
"null","<div style=""font-size:60px;""> </div>","null","fixation","html-keyboard-response","321","1420136","0.0-6.0-0.45","3411713","co38545","norming","","","","","","",""
"null","../img/tt/085tt.jpg","null","mooney1","image-keyboard-response","322","1423139","0.0-6.0-1.45","3411713","co38545","norming","","","","","","",""
"4136","","","post_mooney1_questions","survey-likert","323","1427277","0.0-6.0-2.45","3411713","co38545","norming","","","{""curiosity"":4,""confidence"":0}","[0,1]","../img/tt/085tt.jpg","",""
"2109","","","recognition","survey-text","324","1429397","0.0-6.0-3.45","3411713","co38545","norming","","","{""guess"":""zitten""}","","../img/tt/085tt.jpg","",""
"null","../img/gs/085gs.jpg","null","reveal","image-keyboard-response","325","1431399","0.0-6.0-4.45","3411713","co38545","norming","","","","","","",""
"null","../img/tt/085tt.jpg","null","mooney2","image-keyboard-response","326","1433401","0.0-6.0-5.45","3411713","co38545","norming","","","","","","",""
"4335","","","post_reveal_questions","survey-likert","327","1437738","0.0-6.0-6.45","3411713","co38545","norming","","","{""aha"":4}","[0]","../img/tt/085tt.jpg","",""
"null","<div style=""font-size:60px;""> </div>","null","fixation","html-keyboard-response","328","1437941","0.0-6.0-0.46","3411713","co38545","norming","","","","","","",""
"null","../img/tt/599tt.jpg","null","mooney1","image-keyboard-response","329","1440943","0.0-6.0-1.46","3411713","co38545","norming","","","","","","",""
"5011.000000000233","","","post_mooney1_questions","survey-likert","330","1445956","0.0-6.0-2.46","3411713","co38545","norming","","","{""curiosity"":4,""confidence"":1}","[0,1]","../img/tt/599tt.jpg","",""
"1766","","","recognition","survey-text","331","1447730","0.0-6.0-3.46","3411713","co38545","norming","","","{""guess"":""sport""}","","../img/tt/599tt.jpg","",""
"null","../img/gs/599gs.jpg","null","reveal","image-keyboard-response","332","1449733","0.0-6.0-4.46","3411713","co38545","norming","","","","","","",""
"null","../img/tt/599tt.jpg","null","mooney2","image-keyboard-response","333","1451735","0.0-6.0-5.46","3411713","co38545","norming","","","","","","",""
"2355","","","post_reveal_questions","survey-likert","334","1454092","0.0-6.0-6.46","3411713","co38545","norming","","","{""aha"":4}","[0]","../img/tt/599tt.jpg","",""
"null","<div style=""font-size:60px;""> </div>","null","fixation","html-keyboard-response","335","1454296","0.0-6.0-0.47","3411713","co38545","norming","","","","","","",""
"null","../img/tt/1070tt.jpg","null","mooney1","image-keyboard-response","336","1457298","0.0-6.0-1.47","3411713","co38545","norming","","","","","","",""
"5908","","","post_mooney1_questions","survey-likert","337","1463209","0.0-6.0-2.47","3411713","co38545","norming","","","{""curiosity"":4,""confidence"":4}","[0,1]","../img/tt/1070tt.jpg","",""
"3434","","","recognition","survey-text","338","1466654","0.0-6.0-3.47","3411713","co38545","norming","","","{""guess"":""sandwich""}","","../img/tt/1070tt.jpg","",""
"null","../img/gs/1070gs.jpg","null","reveal","image-keyboard-response","339","1468656","0.0-6.0-4.47","3411713","co38545","norming","","","","","","",""
"null","../img/tt/1070tt.jpg","null","mooney2","image-keyboard-response","340","1470658","0.0-6.0-5.47","3411713","co38545","norming","","","","","","",""
"1808.9999999997672","","","post_reveal_questions","survey-likert","341","1472468","0.0-6.0-6.47","3411713","co38545","norming","","","{""aha"":3}","[0]","../img/tt/1070tt.jpg","",""
"null","<div style=""font-size:60px;""> </div>","null","fixation","html-keyboard-response","342","1472671","0.0-6.0-0.48","3411713","co38545","norming","","","","","","",""
"null","../img/tt/036tt.jpg","null","mooney1","image-keyboard-response","343","1475674","0.0-6.0-1.48","3411713","co38545","norming","","","","","","",""
"5718","","","post_mooney1_questions","survey-likert","344","1481395","0.0-6.0-2.48","3411713","co38545","norming","","","{""curiosity"":4,""confidence"":2}","[0,1]","../img/tt/036tt.jpg","",""
"3009","","","recognition","survey-text","345","1484415","0.0-6.0-3.48","3411713","co38545","norming","","","{""guess"":""bliksem""}","","../img/tt/036tt.jpg","",""
"null","../img/gs/036gs.jpg","null","reveal","image-keyboard-response","346","1486417","0.0-6.0-4.48","3411713","co38545","norming","","","","","","",""
"null","../img/tt/036tt.jpg","null","mooney2","image-keyboard-response","347","1488419","0.0-6.0-5.48","3411713","co38545","norming","","","","","","",""
"4794","","","post_reveal_questions","survey-likert","348","1493214","0.0-6.0-6.48","3411713","co38545","norming","","","{""aha"":2}","[0]","../img/tt/036tt.jpg","",""
"null","<div style=""font-size:60px;""> </div>","null","fixation","html-keyboard-response","349","1493418","0.0-6.0-0.49","3411713","co38545","norming","","","","","","",""
"null","../img/tt/306tt.jpg","null","mooney1","image-keyboard-response","350","1496420","0.0-6.0-1.49","3411713","co38545","norming","","","","","","",""
"4270","","","post_mooney1_questions","survey-likert","351","1500692","0.0-6.0-2.49","3411713","co38545","norming","","","{""curiosity"":4,""confidence"":1}","[0,1]","../img/tt/306tt.jpg","",""
"1782","","","recognition","survey-text","352","1502483","0.0-6.0-3.49","3411713","co38545","norming","","","{""guess"":""judo""}","","../img/tt/306tt.jpg","",""
"null","../img/gs/306gs.jpg","null","reveal","image-keyboard-response","353","1504485","0.0-6.0-4.49","3411713","co38545","norming","","","","","","",""
"null","../img/tt/306tt.jpg","null","mooney2","image-keyboard-response","354","1506487","0.0-6.0-5.49","3411713","co38545","norming","","","","","","",""
"3203","","","post_reveal_questions","survey-likert","355","1509693","0.0-6.0-6.49","3411713","co38545","norming","","","{""aha"":5}","[0]","../img/tt/306tt.jpg","",""
"null","<div style=""font-size:60px;""> </div>","null","fixation","html-keyboard-response","356","1509896","0.0-6.0-0.50","3411713","co38545","norming","","","","","","",""
"null","../img/tt/1237tt.jpg","null","mooney1","image-keyboard-response","357","1512899","0.0-6.0-1.50","3411713","co38545","norming","","","","","","",""
"3777.999999999767","","","post_mooney1_questions","survey-likert","358","1516679","0.0-6.0-2.50","3411713","co38545","norming","","","{""curiosity"":4,""confidence"":1}","[0,1]","../img/tt/1237tt.jpg","",""
"1342.9999999997672","","","recognition","survey-text","359","1518031","0.0-6.0-3.50","3411713","co38545","norming","","","{""guess"":""slak""}","","../img/tt/1237tt.jpg","",""
"null","../img/gs/1237gs.jpg","null","reveal","image-keyboard-response","360","1520033","0.0-6.0-4.50","3411713","co38545","norming","","","","","","",""
"null","../img/tt/1237tt.jpg","null","mooney2","image-keyboard-response","361","1522035","0.0-6.0-5.50","3411713","co38545","norming","","","","","","",""
"3235","","","post_reveal_questions","survey-likert","362","1525272","0.0-6.0-6.50","3411713","co38545","norming","","","{""aha"":4}","[0]","../img/tt/1237tt.jpg","",""
"null","<div style=""font-size:60px;""> </div>","null","fixation","html-keyboard-response","363","1525475","0.0-6.0-0.51","3411713","co38545","norming","","","","","","",""
"null","../img/tt/1255tt.jpg","null","mooney1","image-keyboard-response","364","1528478","0.0-6.0-1.51","3411713","co38545","norming","","","","","","",""
"4052","","","post_mooney1_questions","survey-likert","365","1532533","0.0-6.0-2.51","3411713","co38545","norming","","","{""curiosity"":4,""confidence"":1}","[0,1]","../img/tt/1255tt.jpg","",""
"2095","","","recognition","survey-text","366","1534635","0.0-6.0-3.51","3411713","co38545","norming","","","{""guess"":""konijn""}","","../img/tt/1255tt.jpg","",""
"null","../img/gs/1255gs.jpg","null","reveal","image-keyboard-response","367","1434794","0.0-6.0-4.51","3411713","co38545","norming","","","","","","",""
"null","../img/tt/1255tt.jpg","null","mooney2","image-keyboard-response","368","1436796","0.0-6.0-5.51","3411713","co38545","norming","","","","","","",""
"2439.999999999767","","","post_reveal_questions","survey-likert","369","1439237","0.0-6.0-6.51","3411713","co38545","norming","","","{""aha"":4}","[0]","../img/tt/1255tt.jpg","",""
"null","<div style=""font-size:60px;""> </div>","null","fixation","html-keyboard-response","370","1439441","0.0-6.0-0.52","3411713","co38545","norming","","","","","","",""
"null","../img/tt/1024tt.jpg","null","mooney1","image-keyboard-response","371","1442443","0.0-6.0-1.52","3411713","co38545","norming","","","","","","",""
"6085","","","post_mooney1_questions","survey-likert","372","1448530","0.0-6.0-2.52","3411713","co38545","norming","","","{""curiosity"":4,""confidence"":3}","[0,1]","../img/tt/1024tt.jpg","",""
"4369","","","recognition","survey-text","373","1452910","0.0-6.0-3.52","3411713","co38545","norming","","","{""guess"":""zittend persoon""}","","../img/tt/1024tt.jpg","",""
"null","../img/gs/1024gs.jpg","null","reveal","image-keyboard-response","374","1454912","0.0-6.0-4.52","3411713","co38545","norming","","","","","","",""
"null","../img/tt/1024tt.jpg","null","mooney2","image-keyboard-response","375","1456914","0.0-6.0-5.52","3411713","co38545","norming","","","","","","",""
"3730","","","post_reveal_questions","survey-likert","376","1460647","0.0-6.0-6.52","3411713","co38545","norming","","","{""aha"":4}","[0]","../img/tt/1024tt.jpg","",""
"null","<div style=""font-size:60px;""> </div>","null","fixation","html-keyboard-response","377","1460850","0.0-6.0-0.53","3411713","co38545","norming","","","","","","",""
"null","../img/tt/010tt.jpg","null","mooney1","image-keyboard-response","378","1463852","0.0-6.0-1.53","3411713","co38545","norming","","","","","","",""
"3786","","","post_mooney1_questions","survey-likert","379","1467641","0.0-6.0-2.53","3411713","co38545","norming","","","{""curiosity"":4,""confidence"":2}","[0,1]","../img/tt/010tt.jpg","",""
"1742.0000000002328","","","recognition","survey-text","380","1469394","0.0-6.0-3.53","3411713","co38545","norming","","","{""guess"":""kikker""}","","../img/tt/010tt.jpg","",""
"null","../img/gs/010gs.jpg","null","reveal","image-keyboard-response","381","1471397","0.0-6.0-4.53","3411713","co38545","norming","","","","","","",""
"null","../img/tt/010tt.jpg","null","mooney2","image-keyboard-response","382","1473399","0.0-6.0-5.53","3411713","co38545","norming","","","","","","",""
"2458","","","post_reveal_questions","survey-likert","383","1475859","0.0-6.0-6.53","3411713","co38545","norming","","","{""aha"":3}","[0]","../img/tt/010tt.jpg","",""
"null","<div style=""font-size:60px;""> </div>","null","fixation","html-keyboard-response","384","1476062","0.0-6.0-0.54","3411713","co38545","norming","","","","","","",""
"null","../img/tt/1290tt.jpg","null","mooney1","image-keyboard-response","385","1479065","0.0-6.0-1.54","3411713","co38545","norming","","","","","","",""
"6595","","","post_mooney1_questions","survey-likert","386","1485663","0.0-6.0-2.54","3411713","co38545","norming","","","{""curiosity"":4,""confidence"":1}","[0,1]","../img/tt/1290tt.jpg","",""
"1960","","","recognition","survey-text","387","1487632","0.0-6.0-3.54","3411713","co38545","norming","","","{""guess"":""skilift""}","","../img/tt/1290tt.jpg","",""
"null","../img/gs/1290gs.jpg","null","reveal","image-keyboard-response","388","1489634","0.0-6.0-4.54","3411713","co38545","norming","","","","","","",""
"null","../img/tt/1290tt.jpg","null","mooney2","image-keyboard-response","389","1491636","0.0-6.0-5.54","3411713","co38545","norming","","","","","","",""
"4315.000000000233","","","post_reveal_questions","survey-likert","390","1495953","0.0-6.0-6.54","3411713","co38545","norming","","","{""aha"":4}","[0]","../img/tt/1290tt.jpg","",""
"null","<div style=""font-size:60px;""> </div>","null","fixation","html-keyboard-response","391","1496156","0.0-6.0-0.55","3411713","co38545","norming","","","","","","",""
"null","../img/tt/301tt.jpg","null","mooney1","image-keyboard-response","392","1499159","0.0-6.0-1.55","3411713","co38545","norming","","","","","","",""
"3902","","","post_mooney1_questions","survey-likert","393","1503064","0.0-6.0-2.55","3411713","co38545","norming","","","{""curiosity"":4,""confidence"":1}","[0,1]","../img/tt/301tt.jpg","",""
"1096","","","recognition","survey-text","394","1504169","0.0-6.0-3.55","3411713","co38545","norming","","","{""guess"":""koe""}","","../img/tt/301tt.jpg","",""
"null","../img/gs/301gs.jpg","null","reveal","image-keyboard-response","395","1506171","0.0-6.0-4.55","3411713","co38545","norming","","","","","","",""
"null","../img/tt/301tt.jpg","null","mooney2","image-keyboard-response","396","1508174","0.0-6.0-5.55","3411713","co38545","norming","","","","","","",""
"2058","","","post_reveal_questions","survey-likert","397","1510233","0.0-6.0-6.55","3411713","co38545","norming","","","{""aha"":4}","[0]","../img/tt/301tt.jpg","",""
"null","<div style=""font-size:60px;""> </div>","null","fixation","html-keyboard-response","398","1510436","0.0-6.0-0.56","3411713","co38545","norming","","","","","","",""
"null","../img/tt/534tt.jpg","null","mooney1","image-keyboard-response","399","1513438","0.0-6.0-1.56","3411713","co38545","norming","","","","","","",""
"4768","","","post_mooney1_questions","survey-likert","400","1518207","0.0-6.0-2.56","3411713","co38545","norming","","","{""curiosity"":3,""confidence"":4}","[0,1]","../img/tt/534tt.jpg","",""
"2491","","","recognition","survey-text","401","1520709","0.0-6.0-3.56","3411713","co38545","norming","","","{""guess"":""cactussen""}","","../img/tt/534tt.jpg","",""
"null","../img/gs/534gs.jpg","null","reveal","image-keyboard-response","402","1522711","0.0-6.0-4.56","3411713","co38545","norming","","","","","","",""
"null","../img/tt/534tt.jpg","null","mooney2","image-keyboard-response","403","1524713","0.0-6.0-5.56","3411713","co38545","norming","","","","","","",""
"4625","","","post_reveal_questions","survey-likert","404","1529339","0.0-6.0-6.56","3411713","co38545","norming","","","{""aha"":2}","[0]","../img/tt/534tt.jpg","",""
"null","<div style=""font-size:60px;""> </div>","null","fixation","html-keyboard-response","405","1529542","0.0-6.0-0.57","3411713","co38545","norming","","","","","","",""
"null","../img/tt/1250tt.jpg","null","mooney1","image-keyboard-response","406","1532545","0.0-6.0-1.57","3411713","co38545","norming","","","","","","",""
"4139","","","post_mooney1_questions","survey-likert","407","1536686","0.0-6.0-2.57","3411713","co38545","norming","","","{""curiosity"":4,""confidence"":0}","[0,1]","../img/tt/1250tt.jpg","",""
"3326","","","recognition","survey-text","408","1540022","0.0-6.0-3.57","3411713","co38545","norming","","","{""guess"":""voeten""}","","../img/tt/1250tt.jpg","",""
"null","../img/gs/1250gs.jpg","null","reveal","image-keyboard-response","409","1542024","0.0-6.0-4.57","3411713","co38545","norming","","","","","","",""
"null","../img/tt/1250tt.jpg","null","mooney2","image-keyboard-response","410","1544026","0.0-6.0-5.57","3411713","co38545","norming","","","","","","",""
"2011","","","post_reveal_questions","survey-likert","411","1546038","0.0-6.0-6.57","3411713","co38545","norming","","","{""aha"":4}","[0]","../img/tt/1250tt.jpg","",""
"null","<div style=""font-size:60px;""> </div>","null","fixation","html-keyboard-response","412","1546242","0.0-6.0-0.58","3411713","co38545","norming","","","","","","",""
"null","../img/tt/091tt.jpg","null","mooney1","image-keyboard-response","413","1549245","0.0-6.0-1.58","3411713","co38545","norming","","","","","","",""
"4844","","","post_mooney1_questions","survey-likert","414","1554091","0.0-6.0-2.58","3411713","co38545","norming","","","{""curiosity"":4,""confidence"":1}","[0,1]","../img/tt/091tt.jpg","",""
"2939","","","recognition","survey-text","415","1557038","0.0-6.0-3.58","3411713","co38545","norming","","","{""guess"":""krokodil""}","","../img/tt/091tt.jpg","",""
"null","../img/gs/091gs.jpg","null","reveal","image-keyboard-response","416","1559042","0.0-6.0-4.58","3411713","co38545","norming","","","","","","",""
"null","../img/tt/091tt.jpg","null","mooney2","image-keyboard-response","417","1561044","0.0-6.0-5.58","3411713","co38545","norming","","","","","","",""
"2439","","","post_reveal_questions","survey-likert","418","1563485","0.0-6.0-6.58","3411713","co38545","norming","","","{""aha"":2}","[0]","../img/tt/091tt.jpg","",""
"null","<div style=""font-size:60px;""> </div>","null","fixation","html-keyboard-response","419","1563688","0.0-6.0-0.59","3411713","co38545","norming","","","","","","",""
"null","../img/tt/1353tt.jpg","null","mooney1","image-keyboard-response","420","1566691","0.0-6.0-1.59","3411713","co38545","norming","","","","","","",""
"5550.000000000233","","","post_mooney1_questions","survey-likert","421","1572244","0.0-6.0-2.59","3411713","co38545","norming","","","{""curiosity"":4,""confidence"":1}","[0,1]","../img/tt/1353tt.jpg","",""
"3134.000000000233","","","recognition","survey-text","422","1575388","0.0-6.0-3.59","3411713","co38545","norming","","","{""guess"":""knuffel geven""}","","../img/tt/1353tt.jpg","",""
"null","../img/gs/1353gs.jpg","null","reveal","image-keyboard-response","423","1577391","0.0-6.0-4.59","3411713","co38545","norming","","","","","","",""
"null","../img/tt/1353tt.jpg","null","mooney2","image-keyboard-response","424","1579394","0.0-6.0-5.59","3411713","co38545","norming","","","","","","",""
"2537","","","post_reveal_questions","survey-likert","425","1581933","0.0-6.0-6.59","3411713","co38545","norming","","","{""aha"":4}","[0]","../img/tt/1353tt.jpg","",""
"null","<div style=""font-size:60px;""> </div>","null","fixation","html-keyboard-response","426","1582136","0.0-6.0-0.60","3411713","co38545","norming","","","","","","",""
"null","../img/tt/1205tt.jpg","null","mooney1","image-keyboard-response","427","1585139","0.0-6.0-1.60","3411713","co38545","norming","","","","","","",""
"10377","","","post_mooney1_questions","survey-likert","428","1595518","0.0-6.0-2.60","3411713","co38545","norming","","","{""curiosity"":4,""confidence"":1}","[0,1]","../img/tt/1205tt.jpg","",""
"3673","","","recognition","survey-text","429","1599201","0.0-6.0-3.60","3411713","co38545","norming","","","{""guess"":""wandelen in rij""}","","../img/tt/1205tt.jpg","",""
"null","../img/gs/1205gs.jpg","null","reveal","image-keyboard-response","430","1601204","0.0-6.0-4.60","3411713","co38545","norming","","","","","","",""
"null","../img/tt/1205tt.jpg","null","mooney2","image-keyboard-response","431","1603206","0.0-6.0-5.60","3411713","co38545","norming","","","","","","",""
"3265","","","post_reveal_questions","survey-likert","432","1606473","0.0-6.0-6.60","3411713","co38545","norming","","","{""aha"":4}","[0]","../img/tt/1205tt.jpg","",""
"null","<div style=""font-size:60px;""> </div>","null","fixation","html-keyboard-response","433","1606676","0.0-6.0-0.61","3411713","co38545","norming","","","","","","",""
"null","../img/tt/094tt.jpg","null","mooney1","image-keyboard-response","434","1609678","0.0-6.0-1.61","3411713","co38545","norming","","","","","","",""
"4687","","","post_mooney1_questions","survey-likert","435","1614367","0.0-6.0-2.61","3411713","co38545","norming","","","{""curiosity"":4,""confidence"":1}","[0,1]","../img/tt/094tt.jpg","",""
"1365","","","recognition","survey-text","436","1615740","0.0-6.0-3.61","3411713","co38545","norming","","","{""guess"":""wolf""}","","../img/tt/094tt.jpg","",""
"null","../img/gs/094gs.jpg","null","reveal","image-keyboard-response","437","1617742","0.0-6.0-4.61","3411713","co38545","norming","","","","","","",""
"null","../img/tt/094tt.jpg","null","mooney2","image-keyboard-response","438","1619745","0.0-6.0-5.61","3411713","co38545","norming","","","","","","",""
"2589.999999999767","","","post_reveal_questions","survey-likert","439","1622336","0.0-6.0-6.61","3411713","co38545","norming","","","{""aha"":4}","[0]","../img/tt/094tt.jpg","",""
"null","<div style=""font-size:60px;""> </div>","null","fixation","html-keyboard-response","440","1622540","0.0-6.0-0.62","3411713","co38545","norming","","","","","","",""
"null","../img/tt/1189tt.jpg","null","mooney1","image-keyboard-response","441","1625543","0.0-6.0-1.62","3411713","co38545","norming","","","","","","",""
"4115","","","post_mooney1_questions","survey-likert","442","1629660","0.0-6.0-2.62","3411713","co38545","norming","","","{""curiosity"":4,""confidence"":0}","[0,1]","../img/tt/1189tt.jpg","",""
"2028","","","recognition","survey-text","443","1631697","0.0-6.0-3.62","3411713","co38545","norming","","","{""guess"":""eend""}","","../img/tt/1189tt.jpg","",""
"null","../img/gs/1189gs.jpg","null","reveal","image-keyboard-response","444","1633700","0.0-6.0-4.62","3411713","co38545","norming","","","","","","",""
"null","../img/tt/1189tt.jpg","null","mooney2","image-keyboard-response","445","1635702","0.0-6.0-5.62","3411713","co38545","norming","","","","","","",""
"8114","","","post_reveal_questions","survey-likert","446","1643819","0.0-6.0-6.62","3411713","co38545","norming","","","{""aha"":4}","[0]","../img/tt/1189tt.jpg","",""
"null","<div style=""font-size:60px;""> </div>","null","fixation","html-keyboard-response","447","1644022","0.0-6.0-0.63","3411713","co38545","norming","","","","","","",""
"null","../img/tt/380tt.jpg","null","mooney1","image-keyboard-response","448","1647025","0.0-6.0-1.63","3411713","co38545","norming","","","","","","",""
"3372","","","post_mooney1_questions","survey-likert","449","1650399","0.0-6.0-2.63","3411713","co38545","norming","","","{""curiosity"":4,""confidence"":0}","[0,1]","../img/tt/380tt.jpg","",""
"1748","","","recognition","survey-text","450","1652157","0.0-6.0-3.63","3411713","co38545","norming","","","{""guess"":""muis""}","","../img/tt/380tt.jpg","",""
"null","../img/gs/380gs.jpg","null","reveal","image-keyboard-response","451","1654159","0.0-6.0-4.63","3411713","co38545","norming","","","","","","",""
"null","../img/tt/380tt.jpg","null","mooney2","image-keyboard-response","452","1656161","0.0-6.0-5.63","3411713","co38545","norming","","","","","","",""
"3486","","","post_reveal_questions","survey-likert","453","1659650","0.0-6.0-6.63","3411713","co38545","norming","","","{""aha"":3}","[0]","../img/tt/380tt.jpg","",""
"null","<div style=""font-size:60px;""> </div>","null","fixation","html-keyboard-response","454","1659853","0.0-6.0-0.64","3411713","co38545","norming","","","","","","",""
"null","../img/tt/013tt.jpg","null","mooney1","image-keyboard-response","455","1662855","0.0-6.0-1.64","3411713","co38545","norming","","","","","","",""
"7915","","","post_mooney1_questions","survey-likert","456","1670773","0.0-6.0-2.64","3411713","co38545","norming","","","{""curiosity"":4,""confidence"":0}","[0,1]","../img/tt/013tt.jpg","",""
"2913","","","recognition","survey-text","457","1673694","0.0-6.0-3.64","3411713","co38545","norming","","","{""guess"":""kameel""}","","../img/tt/013tt.jpg","",""
"null","../img/gs/013gs.jpg","null","reveal","image-keyboard-response","458","1675697","0.0-6.0-4.64","3411713","co38545","norming","","","","","","",""
"null","../img/tt/013tt.jpg","null","mooney2","image-keyboard-response","459","1677699","0.0-6.0-5.64","3411713","co38545","norming","","","","","","",""
"4197","","","post_reveal_questions","survey-likert","460","1681898","0.0-6.0-6.64","3411713","co38545","norming","","","{""aha"":5}","[0]","../img/tt/013tt.jpg","",""
"null","<div style=""font-size:60px;""> </div>","null","fixation","html-keyboard-response","461","1682102","0.0-6.0-0.65","3411713","co38545","norming","","","","","","",""
"null","../img/tt/052tt.jpg","null","mooney1","image-keyboard-response","462","1685104","0.0-6.0-1.65","3411713","co38545","norming","","","","","","",""
"6634","","","post_mooney1_questions","survey-likert","463","1691741","0.0-6.0-2.65","3411713","co38545","norming","","","{""curiosity"":2,""confidence"":3}","[0,1]","../img/tt/052tt.jpg","",""
"2180.000000000233","","","recognition","survey-text","464","1693930","0.0-6.0-3.65","3411713","co38545","norming","","","{""guess"":""trommel""}","","../img/tt/052tt.jpg","",""
"null","../img/gs/052gs.jpg","null","reveal","image-keyboard-response","465","1695934","0.0-6.0-4.65","3411713","co38545","norming","","","","","","",""
"null","../img/tt/052tt.jpg","null","mooney2","image-keyboard-response","466","1697936","0.0-6.0-5.65","3411713","co38545","norming","","","","","","",""
"3141","","","post_reveal_questions","survey-likert","467","1701078","0.0-6.0-6.65","3411713","co38545","norming","","","{""aha"":4}","[0]","../img/tt/052tt.jpg","",""
"null","<div style=""font-size:60px;""> </div>","null","fixation","html-keyboard-response","468","1701282","0.0-6.0-0.66","3411713","co38545","norming","","","","","","",""
"null","../img/tt/1186tt.jpg","null","mooney1","image-keyboard-response","469","1704284","0.0-6.0-1.66","3411713","co38545","norming","","","","","","",""
"4645.999999999767","","","post_mooney1_questions","survey-likert","470","1708933","0.0-6.0-2.66","3411713","co38545","norming","","","{""curiosity"":4,""confidence"":1}","[0,1]","../img/tt/1186tt.jpg","",""
"3164","","","recognition","survey-text","471","1712108","0.0-6.0-3.66","3411713","co38545","norming","","","{""guess"":""skien""}","","../img/tt/1186tt.jpg","",""
"null","../img/gs/1186gs.jpg","null","reveal","image-keyboard-response","472","1714111","0.0-6.0-4.66","3411713","co38545","norming","","","","","","",""
"null","../img/tt/1186tt.jpg","null","mooney2","image-keyboard-response","473","1716113","0.0-6.0-5.66","3411713","co38545","norming","","","","","","",""
"3106","","","post_reveal_questions","survey-likert","474","1719221","0.0-6.0-6.66","3411713","co38545","norming","","","{""aha"":3}","[0]","../img/tt/1186tt.jpg","",""
"null","<div style=""font-size:60px;""> </div>","null","fixation","html-keyboard-response","475","1719424","0.0-6.0-0.67","3411713","co38545","norming","","","","","","",""
"null","../img/tt/456tt.jpg","null","mooney1","image-keyboard-response","476","1722427","0.0-6.0-1.67","3411713","co38545","norming","","","","","","",""
"3660","","","post_mooney1_questions","survey-likert","477","1726089","0.0-6.0-2.67","3411713","co38545","norming","","","{""curiosity"":4,""confidence"":1}","[0,1]","../img/tt/456tt.jpg","",""
"2188.000000000233","","","recognition","survey-text","478","1728287","0.0-6.0-3.67","3411713","co38545","norming","","","{""guess"":""reptiel""}","","../img/tt/456tt.jpg","",""
"null","../img/gs/456gs.jpg","null","reveal","image-keyboard-response","479","1730302","0.0-6.0-4.67","3411713","co38545","norming","","","","","","",""
"null","../img/tt/456tt.jpg","null","mooney2","image-keyboard-response","480","1732304","0.0-6.0-5.67","3411713","co38545","norming","","","","","","",""
"1890.9999999997672","","","post_reveal_questions","survey-likert","481","1734198","0.0-6.0-6.67","3411713","co38545","norming","","","{""aha"":3}","[0]","../img/tt/456tt.jpg","",""
"null","<div style=""font-size:60px;""> </div>","null","fixation","html-keyboard-response","482","1734401","0.0-6.0-0.68","3411713","co38545","norming","","","","","","",""
"null","../img/tt/126tt.jpg","null","mooney1","image-keyboard-response","483","1737403","0.0-6.0-1.68","3411713","co38545","norming","","","","","","",""
"4547.000000000233","","","post_mooney1_questions","survey-likert","484","1741951","0.0-6.0-2.68","3411713","co38545","norming","","","{""curiosity"":3,""confidence"":3}","[0,1]","../img/tt/126tt.jpg","",""
"1116.9999999997672","","","recognition","survey-text","485","1743077","0.0-6.0-3.68","3411713","co38545","norming","","","{""guess"":""koe""}","","../img/tt/126tt.jpg","",""
"null","../img/gs/126gs.jpg","null","reveal","image-keyboard-response","486","1745080","0.0-6.0-4.68","3411713","co38545","norming","","","","","","",""
"null","../img/tt/126tt.jpg","null","mooney2","image-keyboard-response","487","1747083","0.0-6.0-5.68","3411713","co38545","norming","","","","","","",""
"9383","","","post_reveal_questions","survey-likert","488","1756473","0.0-6.0-6.68","3411713","co38545","norming","","","{""aha"":2}","[0]","../img/tt/126tt.jpg","",""
"null","<div style=""font-size:60px;""> </div>","null","fixation","html-keyboard-response","489","1756676","0.0-6.0-0.69","3411713","co38545","norming","","","","","","",""
"null","../img/tt/319tt.jpg","null","mooney1","image-keyboard-response","490","1759679","0.0-6.0-1.69","3411713","co38545","norming","","","","","","",""
"4825","","","post_mooney1_questions","survey-likert","491","1764507","0.0-6.0-2.69","3411713","co38545","norming","","","{""curiosity"":4,""confidence"":1}","[0,1]","../img/tt/319tt.jpg","",""
"1973.0000000002328","","","recognition","survey-text","492","1766491","0.0-6.0-3.69","3411713","co38545","norming","","","{""guess"":""buffel""}","","../img/tt/319tt.jpg","",""
"null","../img/gs/319gs.jpg","null","reveal","image-keyboard-response","493","1768493","0.0-6.0-4.69","3411713","co38545","norming","","","","","","",""
"null","../img/tt/319tt.jpg","null","mooney2","image-keyboard-response","494","1770495","0.0-6.0-5.69","3411713","co38545","norming","","","","","","",""
"4506","","","post_reveal_questions","survey-likert","495","1775002","0.0-6.0-6.69","3411713","co38545","norming","","","{""aha"":2}","[0]","../img/tt/319tt.jpg","",""
"null","<div style=""font-size:60px;""> </div>","null","fixation","html-keyboard-response","496","1775210","0.0-6.0-0.70","3411713","co38545","norming","","","","","","",""
"null","../img/tt/1087tt.jpg","null","mooney1","image-keyboard-response","497","1778213","0.0-6.0-1.70","3411713","co38545","norming","","","","","","",""
"4936","","","post_mooney1_questions","survey-likert","498","1783152","0.0-6.0-2.70","3411713","co38545","norming","","","{""curiosity"":4,""confidence"":2}","[0,1]","../img/tt/1087tt.jpg","",""
"3088.000000000233","","","recognition","survey-text","499","1786250","0.0-6.0-3.70","3411713","co38545","norming","","","{""guess"":""liggende beren""}","","../img/tt/1087tt.jpg","",""
"null","../img/gs/1087gs.jpg","null","reveal","image-keyboard-response","500","1788253","0.0-6.0-4.70","3411713","co38545","norming","","","","","","",""
"null","../img/tt/1087tt.jpg","null","mooney2","image-keyboard-response","501","1790255","0.0-6.0-5.70","3411713","co38545","norming","","","","","","",""
"2019","","","post_reveal_questions","survey-likert","502","1792276","0.0-6.0-6.70","3411713","co38545","norming","","","{""aha"":4}","[0]","../img/tt/1087tt.jpg","",""
"null","<div style=""font-size:60px;""> </div>","null","fixation","html-keyboard-response","503","1792479","0.0-6.0-0.71","3411713","co38545","norming","","","","","","",""
"null","../img/tt/008tt.jpg","null","mooney1","image-keyboard-response","504","1795482","0.0-6.0-1.71","3411713","co38545","norming","","","","","","",""
"4488.000000000233","","","post_mooney1_questions","survey-likert","505","1799973","0.0-6.0-2.71","3411713","co38545","norming","","","{""curiosity"":4,""confidence"":1}","[0,1]","../img/tt/008tt.jpg","",""
"1855.0000000002328","","","recognition","survey-text","506","1801838","0.0-6.0-3.71","3411713","co38545","norming","","","{""guess"":""auto""}","","../img/tt/008tt.jpg","",""
"null","../img/gs/008gs.jpg","null","reveal","image-keyboard-response","507","1803841","0.0-6.0-4.71","3411713","co38545","norming","","","","","","",""
"null","../img/tt/008tt.jpg","null","mooney2","image-keyboard-response","508","1805843","0.0-6.0-5.71","3411713","co38545","norming","","","","","","",""
"2528","","","post_reveal_questions","survey-likert","509","1808372","0.0-6.0-6.71","3411713","co38545","norming","","","{""aha"":4}","[0]","../img/tt/008tt.jpg","",""
"null","<div style=""font-size:60px;""> </div>","null","fixation","html-keyboard-response","510","1808577","0.0-6.0-0.72","3411713","co38545","norming","","","","","","",""
"null","../img/tt/1262tt.jpg","null","mooney1","image-keyboard-response","511","1811579","0.0-6.0-1.72","3411713","co38545","norming","","","","","","",""
"4627","","","post_mooney1_questions","survey-likert","512","1816208","0.0-6.0-2.72","3411713","co38545","norming","","","{""curiosity"":4,""confidence"":2}","[0,1]","../img/tt/1262tt.jpg","",""
"3995","","","recognition","survey-text","513","1820214","0.0-6.0-3.72","3411713","co38545","norming","","","{""guess"":""vogel""}","","../img/tt/1262tt.jpg","",""
"null","../img/gs/1262gs.jpg","null","reveal","image-keyboard-response","514","1822217","0.0-6.0-4.72","3411713","co38545","norming","","","","","","",""
"null","../img/tt/1262tt.jpg","null","mooney2","image-keyboard-response","515","1824220","0.0-6.0-5.72","3411713","co38545","norming","","","","","","",""
"2444.000000000233","","","post_reveal_questions","survey-likert","516","1826666","0.0-6.0-6.72","3411713","co38545","norming","","","{""aha"":4}","[0]","../img/tt/1262tt.jpg","",""
"null","<div style=""font-size:60px;""> </div>","null","fixation","html-keyboard-response","517","1826869","0.0-6.0-0.73","3411713","co38545","norming","","","","","","",""
"null","../img/tt/1044tt.jpg","null","mooney1","image-keyboard-response","518","1829872","0.0-6.0-1.73","3411713","co38545","norming","","","","","","",""
"3542","","","post_mooney1_questions","survey-likert","519","1833416","0.0-6.0-2.73","3411713","co38545","norming","","","{""curiosity"":4,""confidence"":4}","[0,1]","../img/tt/1044tt.jpg","",""
"1992.9999999997672","","","recognition","survey-text","520","1835418","0.0-6.0-3.73","3411713","co38545","norming","","","{""guess"":""giraf""}","","../img/tt/1044tt.jpg","",""
"null","../img/gs/1044gs.jpg","null","reveal","image-keyboard-response","521","1837422","0.0-6.0-4.73","3411713","co38545","norming","","","","","","",""
"null","../img/tt/1044tt.jpg","null","mooney2","image-keyboard-response","522","1839424","0.0-6.0-5.73","3411713","co38545","norming","","","","","","",""
"3856.999999999767","","","post_reveal_questions","survey-likert","523","1843283","0.0-6.0-6.73","3411713","co38545","norming","","","{""aha"":2}","[0]","../img/tt/1044tt.jpg","",""
"null","<div style=""font-size:60px;""> </div>","null","fixation","html-keyboard-response","524","1843486","0.0-6.0-0.74","3411713","co38545","norming","","","","","","",""
"null","../img/tt/031tt.jpg","null","mooney1","image-keyboard-response","525","1846489","0.0-6.0-1.74","3411713","co38545","norming","","","","","","",""
"5895","","","post_mooney1_questions","survey-likert","526","1852392","0.0-6.0-2.74","3411713","co38545","norming","","","{""curiosity"":4,""confidence"":1}","[0,1]","../img/tt/031tt.jpg","",""
"1545","","","recognition","survey-text","527","1853948","0.0-6.0-3.74","3411713","co38545","norming","","","{""guess"":""dier""}","","../img/tt/031tt.jpg","",""
"null","../img/gs/031gs.jpg","null","reveal","image-keyboard-response","528","1855951","0.0-6.0-4.74","3411713","co38545","norming","","","","","","",""
"null","../img/tt/031tt.jpg","null","mooney2","image-keyboard-response","529","1857953","0.0-6.0-5.74","3411713","co38545","norming","","","","","","",""
"3011.999999999767","","","post_reveal_questions","survey-likert","530","1860968","0.0-6.0-6.74","3411713","co38545","norming","","","{""aha"":4}","[0]","../img/tt/031tt.jpg","",""
"null","<div style=""font-size:60px;""> </div>","null","fixation","html-keyboard-response","531","1861171","0.0-6.0-0.75","3411713","co38545","norming","","","","","","",""
"null","../img/tt/1362tt.jpg","null","mooney1","image-keyboard-response","532","1864174","0.0-6.0-1.75","3411713","co38545","norming","","","","","","",""
"3687.999999999767","","","post_mooney1_questions","survey-likert","533","1867864","0.0-6.0-2.75","3411713","co38545","norming","","","{""curiosity"":4,""confidence"":1}","[0,1]","../img/tt/1362tt.jpg","",""
"5602.000000000233","","","recognition","survey-text","534","1873474","0.0-6.0-3.75","3411713","co38545","norming","","","{""guess"":""fototoestel ""}","","../img/tt/1362tt.jpg","",""
"null","../img/gs/1362gs.jpg","null","reveal","image-keyboard-response","535","1875478","0.0-6.0-4.75","3411713","co38545","norming","","","","","","",""
"null","../img/tt/1362tt.jpg","null","mooney2","image-keyboard-response","536","1877480","0.0-6.0-5.75","3411713","co38545","norming","","","","","","",""
"3444.000000000233","","","post_reveal_questions","survey-likert","537","1880927","0.0-6.0-6.75","3411713","co38545","norming","","","{""aha"":4}","[0]","../img/tt/1362tt.jpg","",""
"null","<div style=""font-size:60px;""> </div>","null","fixation","html-keyboard-response","538","1881129","0.0-6.0-0.76","3411713","co38545","norming","","","","","","",""
"null","../img/tt/1171tt.jpg","null","mooney1","image-keyboard-response","539","1884132","0.0-6.0-1.76","3411713","co38545","norming","","","","","","",""
"5583","","","post_mooney1_questions","survey-likert","540","1889717","0.0-6.0-2.76","3411713","co38545","norming","","","{""curiosity"":4,""confidence"":1}","[0,1]","../img/tt/1171tt.jpg","",""
"3997.999999999767","","","recognition","survey-text","541","1893723","0.0-6.0-3.76","3411713","co38545","norming","","","{""guess"":""dansen""}","","../img/tt/1171tt.jpg","",""
"null","../img/gs/1171gs.jpg","null","reveal","image-keyboard-response","542","1895725","0.0-6.0-4.76","3411713","co38545","norming","","","","","","",""
"null","../img/tt/1171tt.jpg","null","mooney2","image-keyboard-response","543","1897727","0.0-6.0-5.76","3411713","co38545","norming","","","","","","",""
"1968","","","post_reveal_questions","survey-likert","544","1899697","0.0-6.0-6.76","3411713","co38545","norming","","","{""aha"":4}","[0]","../img/tt/1171tt.jpg","",""
"null","<div style=""font-size:60px;""> </div>","null","fixation","html-keyboard-response","545","1899901","0.0-6.0-0.77","3411713","co38545","norming","","","","","","",""
"null","../img/tt/1226tt.jpg","null","mooney1","image-keyboard-response","546","1902903","0.0-6.0-1.77","3411713","co38545","norming","","","","","","",""
"4572","","","post_mooney1_questions","survey-likert","547","1907477","0.0-6.0-2.77","3411713","co38545","norming","","","{""curiosity"":4,""confidence"":4}","[0,1]","../img/tt/1226tt.jpg","",""
"2297","","","recognition","survey-text","548","1909785","0.0-6.0-3.77","3411713","co38545","norming","","","{""guess"":""kalkoen""}","","../img/tt/1226tt.jpg","",""
"null","../img/gs/1226gs.jpg","null","reveal","image-keyboard-response","549","1911788","0.0-6.0-4.77","3411713","co38545","norming","","","","","","",""
"null","../img/tt/1226tt.jpg","null","mooney2","image-keyboard-response","550","1913790","0.0-6.0-5.77","3411713","co38545","norming","","","","","","",""
"2809.999999999767","","","post_reveal_questions","survey-likert","551","1916602","0.0-6.0-6.77","3411713","co38545","norming","","","{""aha"":2}","[0]","../img/tt/1226tt.jpg","",""
"null","<div style=""font-size:60px;""> </div>","null","fixation","html-keyboard-response","552","1916805","0.0-6.0-0.78","3411713","co38545","norming","","","","","","",""
"null","../img/tt/315tt.jpg","null","mooney1","image-keyboard-response","553","1919807","0.0-6.0-1.78","3411713","co38545","norming","","","","","","",""
"5431","","","post_mooney1_questions","survey-likert","554","1925240","0.0-6.0-2.78","3411713","co38545","norming","","","{""curiosity"":4,""confidence"":1}","[0,1]","../img/tt/315tt.jpg","",""
"2429","","","recognition","survey-text","555","1927679","0.0-6.0-3.78","3411713","co38545","norming","","","{""guess"":""vogel""}","","../img/tt/315tt.jpg","",""
"null","../img/gs/315gs.jpg","null","reveal","image-keyboard-response","556","1929682","0.0-6.0-4.78","3411713","co38545","norming","","","","","","",""
"null","../img/tt/315tt.jpg","null","mooney2","image-keyboard-response","557","1931684","0.0-6.0-5.78","3411713","co38545","norming","","","","","","",""
"5207","","","post_reveal_questions","survey-likert","558","1936892","0.0-6.0-6.78","3411713","co38545","norming","","","{""aha"":3}","[0]","../img/tt/315tt.jpg","",""
"null","<div style=""font-size:60px;""> </div>","null","fixation","html-keyboard-response","559","1937096","0.0-6.0-0.79","3411713","co38545","norming","","","","","","",""
"null","../img/tt/1046tt.jpg","null","mooney1","image-keyboard-response","560","1940099","0.0-6.0-1.79","3411713","co38545","norming","","","","","","",""
"4069.999999999767","","","post_mooney1_questions","survey-likert","561","1944170","0.0-6.0-2.79","3411713","co38545","norming","","","{""curiosity"":4,""confidence"":1}","[0,1]","../img/tt/1046tt.jpg","",""
"3231.000000000233","","","recognition","survey-text","562","1947412","0.0-6.0-3.79","3411713","co38545","norming","","","{""guess"":""quesedilla""}","","../img/tt/1046tt.jpg","",""
"null","../img/gs/1046gs.jpg","null","reveal","image-keyboard-response","563","1949416","0.0-6.0-4.79","3411713","co38545","norming","","","","","","",""
"null","../img/tt/1046tt.jpg","null","mooney2","image-keyboard-response","564","1951418","0.0-6.0-5.79","3411713","co38545","norming","","","","","","",""
"5974.000000000233","","","post_reveal_questions","survey-likert","565","1957394","0.0-6.0-6.79","3411713","co38545","norming","","","{""aha"":4}","[0]","../img/tt/1046tt.jpg","",""
