"rt","stimulus","key_press","test_part","trial_type","trial_index","time_elapsed","internal_node_id","totalTime","subject","experiment_name","button_pressed","success","responses","question_order","currentStim","old","correct"
"5073.280000127852","Welcome to the experiment. This is an online experiment so please don't close the tab/window until we say goodbye.  Press any key to begin.","32","instructions","html-keyboard-response","0","5092","0.0-0.0","2479692","co38035","norming","","","","","","",""
"6016.139999963343","<div style='word-wrap: break-word; width: 900px'><h3>Please consider this information carefully before deciding whether to participate in this research</h3><ul style='text-align: left; font-size: .8em;'><li><b>Purpose of the research</b>: To examine how people process images.</li><li><b>What you will do in this research</b>:  Stimuli (images) will be presented on the computer and you will be asked different questions about them.</li><li><b>Time required</b>: Participation will take between 45 and 60 minutes to complete.</li><li><b>Risks</b>:  There are no anticipated risks associated with participating in this study. The effects of participating should be comparable to those you would experience from viewing a computer monitor for 30 minutes and using a mouse or keyboard.</li><li><b>Benefits</b>:  This study provides no benefits to you individually except for the credit. The study provides important information about the nature of perception and learning.</li><li><b>Confidentiality</b>:  Your participation in this study will remain confidential. No personally identifiable information will be associated with your data. Your de-identified data may be shared with other researchers and used in future projects.</li><li><b>Participation and withdrawal</b>:  Your participation in this study is completely voluntary and you may refuse to participate or you may choose to withdraw at any time without penalty.</li><li><b>How to contact the researchers</b>: If you have questions or concerns about your participation or payment, or want to request a summary of research findings, please contact Sander Van de Cruys (KU Leuven), at sander.vandecruys@kuleuven.be.</li></ul><p>The nature and purpose of this research have been sufficiently explained and I agree to participate in this study.  I understand that I am free to withdraw at any time without incurring any penalty.</p><p>Please consent by clicking the button below to continue. Otherwise, please exit the study at this time.</p></div>","","instructions","html-button-response","1","11111","0.0-1.0","2479692","co38035","norming","0","","","","","",""
"","","","instructions","fullscreen","2","14812","0.0-2.0","2479692","co38035","norming","","true","","","","",""
"19448.46500013955","","","sona","survey-html-form","3","34265","0.0-3.0","2479692","co38035","norming","","","[{""name"":""sonaid"",""value"":""38035""},{""name"":""debrief"",""value"":""no""},{""name"":""datajoin"",""value"":""yes""}]","","","",""
"21820.94500004314","<div style='word-wrap: break-word; width: 900px'><h3>Instructions</h3><p>This experiment will have 3 parts. In the first part you will see a series of distorted images like the one below on the left. As you can see in the righthand image, the distorted images are derived from actual photographs. In what follows, you will <strong>briefly</strong> be presented with <strong>only</strong> the distorted image.</p> <div style='float: left; margin-right: 20px;'><img src='../img/018tt.jpg' height='250' width='250'></img></div><div style='float: right; margin-left: 20px;'><img src='../img/018gs.jpg' height='250' width='250'></img></div><p>Subsequently you will be asked a few questions about the image: One question on how <strong>curious</strong> you are about the solution and one on how <strong>confident</strong> you are that you know the solution.</p>Next, we ask you to make a guess on what is in the image. Note that it is OK to name just the <strong>basic level category</strong>. For example when you see a parrot in the image, 'parrot' will obviously be a correct answer but also correct is 'bird'. However, 'animal' will <strong>not</strong> be counted as a correct response. For the example above, 'rose' would be correct or 'flower', but not 'plant'. When soccer players are depicted, 'soccer', 'football', 'soccer players' will be correct, but not 'humans', 'outdoors', or 'sports'. You do not need to describe the image in full, just name the main object in it <strong>in one or two words</strong>. All images depict objects from one of the following broad level categories: animals, inanimate objects, plants, sports, vehicles, and food. Recognizing means knowing <strong>more</strong> than these broad labels for a given image. But we always encourage you to <strong>make a guess</strong> if you can. Note that you are allowed to use <strong>Dutch and English</strong> in your answers, whatever comes easiest for you.</p><p>Press any key to continue.</p></div>","32","instructions","html-keyboard-response","4","56088","0.0-4.0","2479692","co38035","norming","","","","","","",""
"12362.515000160784","<div style='word-wrap: break-word; width: 900px'><h3>Instructions</h3> <p>Next, the solution image will be revealed to you and you'll be asked to indicate how strong your <strong>aha-experience</strong> was after seeing the solution. This describes the positive feeling of the 'click' you sometimes experience, when the pieces of the 'puzzle' fall together and you suddenly have 'insight' in the image.</p><img src='aha.jpg' height='188' width='250'></img><p>Note that there are no right or wrong answers. We are interested in what <strong>you</strong> see in the image and how <strong>you</strong> feel about it.</p><p>Press any key to start the experiment.</p></div>","32","instructions","html-keyboard-response","5","68452","0.0-5.0","2479692","co38035","norming","","","","","","",""
"null","<div style=""font-size:60px;""> </div>","null","fixation","html-keyboard-response","6","68666","0.0-6.0-0.0","2479692","co38035","norming","","","","","","",""
"null","../img/tt/559tt.jpg","null","mooney1","image-keyboard-response","7","71684","0.0-6.0-1.0","2479692","co38035","norming","","","","","","",""
"12161.009999923408","","","post_mooney1_questions","survey-likert","8","83848","0.0-6.0-2.0","2479692","co38035","norming","","","{""curiosity"":5,""confidence"":2}","[0,1]","../img/tt/559tt.jpg","",""
"3168.6299999710172","","","recognition","survey-text","9","87020","0.0-6.0-3.0","2479692","co38035","norming","","","{""guess"":""Car""}","","../img/tt/559tt.jpg","",""
"null","../img/gs/559gs.jpg","null","reveal","image-keyboard-response","10","89022","0.0-6.0-4.0","2479692","co38035","norming","","","","","","",""
"null","../img/tt/559tt.jpg","null","mooney2","image-keyboard-response","11","91035","0.0-6.0-5.0","2479692","co38035","norming","","","","","","",""
"5131.444999948144","","","post_reveal_questions","survey-likert","12","96169","0.0-6.0-6.0","2479692","co38035","norming","","","{""aha"":5}","[0]","../img/tt/559tt.jpg","",""
"null","<div style=""font-size:60px;""> </div>","null","fixation","html-keyboard-response","13","96382","0.0-6.0-0.1","2479692","co38035","norming","","","","","","",""
"null","../img/tt/1102tt.jpg","null","mooney1","image-keyboard-response","14","99385","0.0-6.0-1.1","2479692","co38035","norming","","","","","","",""
"8534.25500006415","","","post_mooney1_questions","survey-likert","15","107922","0.0-6.0-2.1","2479692","co38035","norming","","","{""curiosity"":3,""confidence"":0}","[0,1]","../img/tt/1102tt.jpg","",""
"8790.084999985993","","","recognition","survey-text","16","116715","0.0-6.0-3.1","2479692","co38035","norming","","","{""guess"":""Field""}","","../img/tt/1102tt.jpg","",""
"null","../img/gs/1102gs.jpg","null","reveal","image-keyboard-response","17","118717","0.0-6.0-4.1","2479692","co38035","norming","","","","","","",""
"null","../img/tt/1102tt.jpg","null","mooney2","image-keyboard-response","18","120719","0.0-6.0-5.1","2479692","co38035","norming","","","","","","",""
"2569.1299999598414","","","post_reveal_questions","survey-likert","19","123290","0.0-6.0-6.1","2479692","co38035","norming","","","{""aha"":0}","[0]","../img/tt/1102tt.jpg","",""
"null","<div style=""font-size:60px;""> </div>","null","fixation","html-keyboard-response","20","123495","0.0-6.0-0.2","2479692","co38035","norming","","","","","","",""
"null","../img/tt/1200tt.jpg","null","mooney1","image-keyboard-response","21","126497","0.0-6.0-1.2","2479692","co38035","norming","","","","","","",""
"8085.7899999246","","","post_mooney1_questions","survey-likert","22","134586","0.0-6.0-2.2","2479692","co38035","norming","","","{""curiosity"":2,""confidence"":1}","[0,1]","../img/tt/1200tt.jpg","",""
"7974.900000030175","","","recognition","survey-text","23","142564","0.0-6.0-3.2","2479692","co38035","norming","","","{""guess"":""Boxing glove""}","","../img/tt/1200tt.jpg","",""
"null","../img/gs/1200gs.jpg","null","reveal","image-keyboard-response","24","144565","0.0-6.0-4.2","2479692","co38035","norming","","","","","","",""
"null","../img/tt/1200tt.jpg","null","mooney2","image-keyboard-response","25","146573","0.0-6.0-5.2","2479692","co38035","norming","","","","","","",""
"1645.7150001078844","","","post_reveal_questions","survey-likert","26","148221","0.0-6.0-6.2","2479692","co38035","norming","","","{""aha"":3}","[0]","../img/tt/1200tt.jpg","",""
"null","<div style=""font-size:60px;""> </div>","null","fixation","html-keyboard-response","27","148422","0.0-6.0-0.3","2479692","co38035","norming","","","","","","",""
"null","../img/tt/1048tt.jpg","null","mooney1","image-keyboard-response","28","151425","0.0-6.0-1.3","2479692","co38035","norming","","","","","","",""
"6325.595000060275","","","post_mooney1_questions","survey-likert","29","157753","0.0-6.0-2.3","2479692","co38035","norming","","","{""curiosity"":4,""confidence"":2}","[0,1]","../img/tt/1048tt.jpg","",""
"3448.7300000619143","","","recognition","survey-text","30","161205","0.0-6.0-3.3","2479692","co38035","norming","","","{""guess"":""Animal""}","","../img/tt/1048tt.jpg","",""
"null","../img/gs/1048gs.jpg","null","reveal","image-keyboard-response","31","163210","0.0-6.0-4.3","2479692","co38035","norming","","","","","","",""
"null","../img/tt/1048tt.jpg","null","mooney2","image-keyboard-response","32","165213","0.0-6.0-5.3","2479692","co38035","norming","","","","","","",""
"3038.115000119433","","","post_reveal_questions","survey-likert","33","168253","0.0-6.0-6.3","2479692","co38035","norming","","","{""aha"":0}","[0]","../img/tt/1048tt.jpg","",""
"null","<div style=""font-size:60px;""> </div>","null","fixation","html-keyboard-response","34","168455","0.0-6.0-0.4","2479692","co38035","norming","","","","","","",""
"null","../img/tt/1188tt.jpg","null","mooney1","image-keyboard-response","35","171457","0.0-6.0-1.4","2479692","co38035","norming","","","","","","",""
"4496.114999987185","","","post_mooney1_questions","survey-likert","36","175956","0.0-6.0-2.4","2479692","co38035","norming","","","{""curiosity"":4,""confidence"":3}","[0,1]","../img/tt/1188tt.jpg","",""
"2670.410000020638","","","recognition","survey-text","37","178625","0.0-6.0-3.4","2479692","co38035","norming","","","{""guess"":""Flower""}","","../img/tt/1188tt.jpg","",""
"null","../img/gs/1188gs.jpg","null","reveal","image-keyboard-response","38","180632","0.0-6.0-4.4","2479692","co38035","norming","","","","","","",""
"null","../img/tt/1188tt.jpg","null","mooney2","image-keyboard-response","39","182635","0.0-6.0-5.4","2479692","co38035","norming","","","","","","",""
"1968.5849999077618","","","post_reveal_questions","survey-likert","40","184606","0.0-6.0-6.4","2479692","co38035","norming","","","{""aha"":4}","[0]","../img/tt/1188tt.jpg","",""
"null","<div style=""font-size:60px;""> </div>","null","fixation","html-keyboard-response","41","184808","0.0-6.0-0.5","2479692","co38035","norming","","","","","","",""
"null","../img/tt/1004tt.jpg","null","mooney1","image-keyboard-response","42","187811","0.0-6.0-1.5","2479692","co38035","norming","","","","","","",""
"2995.545000070706","","","post_mooney1_questions","survey-likert","43","190809","0.0-6.0-2.5","2479692","co38035","norming","","","{""curiosity"":2,""confidence"":2}","[0,1]","../img/tt/1004tt.jpg","",""
"2942.240000003949","","","recognition","survey-text","44","193754","0.0-6.0-3.5","2479692","co38035","norming","","","{""guess"":""Biker""}","","../img/tt/1004tt.jpg","",""
"null","../img/gs/1004gs.jpg","null","reveal","image-keyboard-response","45","195756","0.0-6.0-4.5","2479692","co38035","norming","","","","","","",""
"null","../img/tt/1004tt.jpg","null","mooney2","image-keyboard-response","46","197759","0.0-6.0-5.5","2479692","co38035","norming","","","","","","",""
"2429.844999918714","","","post_reveal_questions","survey-likert","47","200191","0.0-6.0-6.5","2479692","co38035","norming","","","{""aha"":1}","[0]","../img/tt/1004tt.jpg","",""
"null","<div style=""font-size:60px;""> </div>","null","fixation","html-keyboard-response","48","200394","0.0-6.0-0.6","2479692","co38035","norming","","","","","","",""
"null","../img/tt/076tt.jpg","null","mooney1","image-keyboard-response","49","203397","0.0-6.0-1.6","2479692","co38035","norming","","","","","","",""
"6092.089999932796","","","post_mooney1_questions","survey-likert","50","209492","0.0-6.0-2.6","2479692","co38035","norming","","","{""curiosity"":2,""confidence"":6}","[0,1]","../img/tt/076tt.jpg","",""
"4184.919999912381","","","recognition","survey-text","51","213680","0.0-6.0-3.6","2479692","co38035","norming","","","{""guess"":""Roller blades""}","","../img/tt/076tt.jpg","",""
"null","../img/gs/076gs.jpg","null","reveal","image-keyboard-response","52","215681","0.0-6.0-4.6","2479692","co38035","norming","","","","","","",""
"null","../img/tt/076tt.jpg","null","mooney2","image-keyboard-response","53","217685","0.0-6.0-5.6","2479692","co38035","norming","","","","","","",""
"3151.205000001937","","","post_reveal_questions","survey-likert","54","220839","0.0-6.0-6.6","2479692","co38035","norming","","","{""aha"":0}","[0]","../img/tt/076tt.jpg","",""
"null","<div style=""font-size:60px;""> </div>","null","fixation","html-keyboard-response","55","221041","0.0-6.0-0.7","2479692","co38035","norming","","","","","","",""
"null","../img/tt/1154tt.jpg","null","mooney1","image-keyboard-response","56","224042","0.0-6.0-1.7","2479692","co38035","norming","","","","","","",""
"3896.439999807626","","","post_mooney1_questions","survey-likert","57","227941","0.0-6.0-2.7","2479692","co38035","norming","","","{""curiosity"":4,""confidence"":1}","[0,1]","../img/tt/1154tt.jpg","",""
"7562.954999972135","","","recognition","survey-text","58","235507","0.0-6.0-3.7","2479692","co38035","norming","","","{""guess"":""Ski piste""}","","../img/tt/1154tt.jpg","",""
"null","../img/gs/1154gs.jpg","null","reveal","image-keyboard-response","59","237515","0.0-6.0-4.7","2479692","co38035","norming","","","","","","",""
"null","../img/tt/1154tt.jpg","null","mooney2","image-keyboard-response","60","239521","0.0-6.0-5.7","2479692","co38035","norming","","","","","","",""
"1801.2999999336898","","","post_reveal_questions","survey-likert","61","241325","0.0-6.0-6.7","2479692","co38035","norming","","","{""aha"":2}","[0]","../img/tt/1154tt.jpg","",""
"null","<div style=""font-size:60px;""> </div>","null","fixation","html-keyboard-response","62","241527","0.0-6.0-0.8","2479692","co38035","norming","","","","","","",""
"null","../img/tt/1290tt.jpg","null","mooney1","image-keyboard-response","63","244529","0.0-6.0-1.8","2479692","co38035","norming","","","","","","",""
"7421.439999947324","","","post_mooney1_questions","survey-likert","64","251954","0.0-6.0-2.8","2479692","co38035","norming","","","{""curiosity"":6,""confidence"":1}","[0,1]","../img/tt/1290tt.jpg","",""
"9696.149999974295","","","recognition","survey-text","65","261653","0.0-6.0-3.8","2479692","co38035","norming","","","{""guess"":""trader ""}","","../img/tt/1290tt.jpg","",""
"null","../img/gs/1290gs.jpg","null","reveal","image-keyboard-response","66","263655","0.0-6.0-4.8","2479692","co38035","norming","","","","","","",""
"null","../img/tt/1290tt.jpg","null","mooney2","image-keyboard-response","67","265661","0.0-6.0-5.8","2479692","co38035","norming","","","","","","",""
"4243.889999808744","","","post_reveal_questions","survey-likert","68","269908","0.0-6.0-6.8","2479692","co38035","norming","","","{""aha"":2}","[0]","../img/tt/1290tt.jpg","",""
"null","<div style=""font-size:60px;""> </div>","null","fixation","html-keyboard-response","69","270112","0.0-6.0-0.9","2479692","co38035","norming","","","","","","",""
"null","../img/tt/1279tt.jpg","null","mooney1","image-keyboard-response","70","273115","0.0-6.0-1.9","2479692","co38035","norming","","","","","","",""
"3779.9199998844415","","","post_mooney1_questions","survey-likert","71","276898","0.0-6.0-2.9","2479692","co38035","norming","","","{""curiosity"":5,""confidence"":6}","[0,1]","../img/tt/1279tt.jpg","",""
"2164.450000040233","","","recognition","survey-text","72","279066","0.0-6.0-3.9","2479692","co38035","norming","","","{""guess"":""Cow""}","","../img/tt/1279tt.jpg","",""
"null","../img/gs/1279gs.jpg","null","reveal","image-keyboard-response","73","281071","0.0-6.0-4.9","2479692","co38035","norming","","","","","","",""
"null","../img/tt/1279tt.jpg","null","mooney2","image-keyboard-response","74","283073","0.0-6.0-5.9","2479692","co38035","norming","","","","","","",""
"2815.364999929443","","","post_reveal_questions","survey-likert","75","285891","0.0-6.0-6.9","2479692","co38035","norming","","","{""aha"":0}","[0]","../img/tt/1279tt.jpg","",""
"null","<div style=""font-size:60px;""> </div>","null","fixation","html-keyboard-response","76","286093","0.0-6.0-0.10","2479692","co38035","norming","","","","","","",""
"null","../img/tt/1255tt.jpg","null","mooney1","image-keyboard-response","77","289096","0.0-6.0-1.10","2479692","co38035","norming","","","","","","",""
"3714.41000001505","","","post_mooney1_questions","survey-likert","78","292815","0.0-6.0-2.10","2479692","co38035","norming","","","{""curiosity"":2,""confidence"":2}","[0,1]","../img/tt/1255tt.jpg","",""
"3683.4500001277775","","","recognition","survey-text","79","296504","0.0-6.0-3.10","2479692","co38035","norming","","","{""guess"":""rabbit""}","","../img/tt/1255tt.jpg","",""
"null","../img/gs/1255gs.jpg","null","reveal","image-keyboard-response","80","298512","0.0-6.0-4.10","2479692","co38035","norming","","","","","","",""
"null","../img/tt/1255tt.jpg","null","mooney2","image-keyboard-response","81","300530","0.0-6.0-5.10","2479692","co38035","norming","","","","","","",""
"3110.9599999617785","","","post_reveal_questions","survey-likert","82","303643","0.0-6.0-6.10","2479692","co38035","norming","","","{""aha"":5}","[0]","../img/tt/1255tt.jpg","",""
"null","<div style=""font-size:60px;""> </div>","null","fixation","html-keyboard-response","83","303846","0.0-6.0-0.11","2479692","co38035","norming","","","","","","",""
"null","../img/tt/598tt.jpg","null","mooney1","image-keyboard-response","84","306857","0.0-6.0-1.11","2479692","co38035","norming","","","","","","",""
"4951.519999885932","","","post_mooney1_questions","survey-likert","85","311811","0.0-6.0-2.11","2479692","co38035","norming","","","{""curiosity"":2,""confidence"":2}","[0,1]","../img/tt/598tt.jpg","",""
"2268.0849998723716","","","recognition","survey-text","86","314082","0.0-6.0-3.11","2479692","co38035","norming","","","{""guess"":""Cat""}","","../img/tt/598tt.jpg","",""
"null","../img/gs/598gs.jpg","null","reveal","image-keyboard-response","87","316085","0.0-6.0-4.11","2479692","co38035","norming","","","","","","",""
"null","../img/tt/598tt.jpg","null","mooney2","image-keyboard-response","88","318087","0.0-6.0-5.11","2479692","co38035","norming","","","","","","",""
"3704.185000155121","","","post_reveal_questions","survey-likert","89","321794","0.0-6.0-6.11","2479692","co38035","norming","","","{""aha"":2}","[0]","../img/tt/598tt.jpg","",""
"null","<div style=""font-size:60px;""> </div>","null","fixation","html-keyboard-response","90","321996","0.0-6.0-0.12","2479692","co38035","norming","","","","","","",""
"null","../img/tt/1122tt.jpg","null","mooney1","image-keyboard-response","91","324999","0.0-6.0-1.12","2479692","co38035","norming","","","","","","",""
"4839.984999969602","","","post_mooney1_questions","survey-likert","92","329842","0.0-6.0-2.12","2479692","co38035","norming","","","{""curiosity"":5,""confidence"":4}","[0,1]","../img/tt/1122tt.jpg","",""
"4192.110000178218","","","recognition","survey-text","93","334037","0.0-6.0-3.12","2479692","co38035","norming","","","{""guess"":""Formula 1""}","","../img/tt/1122tt.jpg","",""
"null","../img/gs/1122gs.jpg","null","reveal","image-keyboard-response","94","336046","0.0-6.0-4.12","2479692","co38035","norming","","","","","","",""
"null","../img/tt/1122tt.jpg","null","mooney2","image-keyboard-response","95","338052","0.0-6.0-5.12","2479692","co38035","norming","","","","","","",""
"2978.4300001338124","","","post_reveal_questions","survey-likert","96","341031","0.0-6.0-6.12","2479692","co38035","norming","","","{""aha"":4}","[0]","../img/tt/1122tt.jpg","",""
"null","<div style=""font-size:60px;""> </div>","null","fixation","html-keyboard-response","97","341233","0.0-6.0-0.13","2479692","co38035","norming","","","","","","",""
"null","../img/tt/1002tt.jpg","null","mooney1","image-keyboard-response","98","344236","0.0-6.0-1.13","2479692","co38035","norming","","","","","","",""
"4960.595000069588","","","post_mooney1_questions","survey-likert","99","349199","0.0-6.0-2.13","2479692","co38035","norming","","","{""curiosity"":4,""confidence"":6}","[0,1]","../img/tt/1002tt.jpg","",""
"6529.115000041202","","","recognition","survey-text","100","355731","0.0-6.0-3.13","2479692","co38035","norming","","","{""guess"":""grizzly bear""}","","../img/tt/1002tt.jpg","",""
"null","../img/gs/1002gs.jpg","null","reveal","image-keyboard-response","101","357733","0.0-6.0-4.13","2479692","co38035","norming","","","","","","",""
"null","../img/tt/1002tt.jpg","null","mooney2","image-keyboard-response","102","359735","0.0-6.0-5.13","2479692","co38035","norming","","","","","","",""
"2127.5500000920147","","","post_reveal_questions","survey-likert","103","361850","0.0-6.0-6.13","2479692","co38035","norming","","","{""aha"":2}","[0]","../img/tt/1002tt.jpg","",""
"null","<div style=""font-size:60px;""> </div>","null","fixation","html-keyboard-response","104","362052","0.0-6.0-0.14","2479692","co38035","norming","","","","","","",""
"null","../img/tt/1043tt.jpg","null","mooney1","image-keyboard-response","105","365055","0.0-6.0-1.14","2479692","co38035","norming","","","","","","",""
"4721.675000153482","","","post_mooney1_questions","survey-likert","106","369779","0.0-6.0-2.14","2479692","co38035","norming","","","{""curiosity"":5,""confidence"":1}","[0,1]","../img/tt/1043tt.jpg","",""
"4239.460000069812","","","recognition","survey-text","107","374022","0.0-6.0-3.14","2479692","co38035","norming","","","{""guess"":""Plate food""}","","../img/tt/1043tt.jpg","",""
"null","../img/gs/1043gs.jpg","null","reveal","image-keyboard-response","108","376023","0.0-6.0-4.14","2479692","co38035","norming","","","","","","",""
"null","../img/tt/1043tt.jpg","null","mooney2","image-keyboard-response","109","378031","0.0-6.0-5.14","2479692","co38035","norming","","","","","","",""
"3798.160000005737","","","post_reveal_questions","survey-likert","110","381832","0.0-6.0-6.14","2479692","co38035","norming","","","{""aha"":4}","[0]","../img/tt/1043tt.jpg","",""
"null","<div style=""font-size:60px;""> </div>","null","fixation","html-keyboard-response","111","382035","0.0-6.0-0.15","2479692","co38035","norming","","","","","","",""
"null","../img/tt/1123tt.jpg","null","mooney1","image-keyboard-response","112","385044","0.0-6.0-1.15","2479692","co38035","norming","","","","","","",""
"4022.439999971539","","","post_mooney1_questions","survey-likert","113","389070","0.0-6.0-2.15","2479692","co38035","norming","","","{""curiosity"":4,""confidence"":4}","[0,1]","../img/tt/1123tt.jpg","",""
"6502.194999950007","","","recognition","survey-text","114","395575","0.0-6.0-3.15","2479692","co38035","norming","","","{""guess"":""Basketball player""}","","../img/tt/1123tt.jpg","",""
"null","../img/gs/1123gs.jpg","null","reveal","image-keyboard-response","115","397592","0.0-6.0-4.15","2479692","co38035","norming","","","","","","",""
"null","../img/tt/1123tt.jpg","null","mooney2","image-keyboard-response","116","399593","0.0-6.0-5.15","2479692","co38035","norming","","","","","","",""
"3266.435000114143","","","post_reveal_questions","survey-likert","117","402862","0.0-6.0-6.15","2479692","co38035","norming","","","{""aha"":5}","[0]","../img/tt/1123tt.jpg","",""
"null","<div style=""font-size:60px;""> </div>","null","fixation","html-keyboard-response","118","403064","0.0-6.0-0.16","2479692","co38035","norming","","","","","","",""
"null","../img/tt/412tt.jpg","null","mooney1","image-keyboard-response","119","406067","0.0-6.0-1.16","2479692","co38035","norming","","","","","","",""
"4756.285000126809","","","post_mooney1_questions","survey-likert","120","410825","0.0-6.0-2.16","2479692","co38035","norming","","","{""curiosity"":5,""confidence"":2}","[0,1]","../img/tt/412tt.jpg","",""
"2107.785000000149","","","recognition","survey-text","121","412935","0.0-6.0-3.16","2479692","co38035","norming","","","{""guess"":""Gun""}","","../img/tt/412tt.jpg","",""
"null","../img/gs/412gs.jpg","null","reveal","image-keyboard-response","122","414937","0.0-6.0-4.16","2479692","co38035","norming","","","","","","",""
"null","../img/tt/412tt.jpg","null","mooney2","image-keyboard-response","123","416938","0.0-6.0-5.16","2479692","co38035","norming","","","","","","",""
"2465.3300000354648","","","post_reveal_questions","survey-likert","124","419406","0.0-6.0-6.16","2479692","co38035","norming","","","{""aha"":1}","[0]","../img/tt/412tt.jpg","",""
"null","<div style=""font-size:60px;""> </div>","null","fixation","html-keyboard-response","125","419608","0.0-6.0-0.17","2479692","co38035","norming","","","","","","",""
"null","../img/tt/053tt.jpg","null","mooney1","image-keyboard-response","126","422627","0.0-6.0-1.17","2479692","co38035","norming","","","","","","",""
"4277.10000006482","","","post_mooney1_questions","survey-likert","127","426907","0.0-6.0-2.17","2479692","co38035","norming","","","{""curiosity"":4,""confidence"":3}","[0,1]","../img/tt/053tt.jpg","",""
"4122.839999850839","","","recognition","survey-text","128","431033","0.0-6.0-3.17","2479692","co38035","norming","","","{""guess"":""Kajac""}","","../img/tt/053tt.jpg","",""
"null","../img/gs/053gs.jpg","null","reveal","image-keyboard-response","129","433035","0.0-6.0-4.17","2479692","co38035","norming","","","","","","",""
"null","../img/tt/053tt.jpg","null","mooney2","image-keyboard-response","130","435036","0.0-6.0-5.17","2479692","co38035","norming","","","","","","",""
"2240.6249998603016","","","post_reveal_questions","survey-likert","131","437279","0.0-6.0-6.17","2479692","co38035","norming","","","{""aha"":4}","[0]","../img/tt/053tt.jpg","",""
"null","<div style=""font-size:60px;""> </div>","null","fixation","html-keyboard-response","132","437482","0.0-6.0-0.18","2479692","co38035","norming","","","","","","",""
"null","../img/tt/1125tt.jpg","null","mooney1","image-keyboard-response","133","440485","0.0-6.0-1.18","2479692","co38035","norming","","","","","","",""
"3970.505000092089","","","post_mooney1_questions","survey-likert","134","444458","0.0-6.0-2.18","2479692","co38035","norming","","","{""curiosity"":4,""confidence"":2}","[0,1]","../img/tt/1125tt.jpg","",""
"5779.185000108555","","","recognition","survey-text","135","450240","0.0-6.0-3.18","2479692","co38035","norming","","","{""guess"":""Baseball catcher""}","","../img/tt/1125tt.jpg","",""
"null","../img/gs/1125gs.jpg","null","reveal","image-keyboard-response","136","452255","0.0-6.0-4.18","2479692","co38035","norming","","","","","","",""
"null","../img/tt/1125tt.jpg","null","mooney2","image-keyboard-response","137","454258","0.0-6.0-5.18","2479692","co38035","norming","","","","","","",""
"1942.055000225082","","","post_reveal_questions","survey-likert","138","456202","0.0-6.0-6.18","2479692","co38035","norming","","","{""aha"":2}","[0]","../img/tt/1125tt.jpg","",""
"null","<div style=""font-size:60px;""> </div>","null","fixation","html-keyboard-response","139","456419","0.0-6.0-0.19","2479692","co38035","norming","","","","","","",""
"null","../img/tt/1278tt.jpg","null","mooney1","image-keyboard-response","140","459422","0.0-6.0-1.19","2479692","co38035","norming","","","","","","",""
"5589.625000022352","","","post_mooney1_questions","survey-likert","141","465015","0.0-6.0-2.19","2479692","co38035","norming","","","{""curiosity"":1,""confidence"":0}","[0,1]","../img/tt/1278tt.jpg","",""
"2506.939999992028","","","recognition","survey-text","142","467525","0.0-6.0-3.19","2479692","co38035","norming","","","{""guess"":""Cow""}","","../img/tt/1278tt.jpg","",""
"null","../img/gs/1278gs.jpg","null","reveal","image-keyboard-response","143","469526","0.0-6.0-4.19","2479692","co38035","norming","","","","","","",""
"null","../img/tt/1278tt.jpg","null","mooney2","image-keyboard-response","144","471528","0.0-6.0-5.19","2479692","co38035","norming","","","","","","",""
"4553.455000044778","","","post_reveal_questions","survey-likert","145","476084","0.0-6.0-6.19","2479692","co38035","norming","","","{""aha"":1}","[0]","../img/tt/1278tt.jpg","",""
"null","<div style=""font-size:60px;""> </div>","null","fixation","html-keyboard-response","146","476287","0.0-6.0-0.20","2479692","co38035","norming","","","","","","",""
"null","../img/tt/040tt.jpg","null","mooney1","image-keyboard-response","147","479289","0.0-6.0-1.20","2479692","co38035","norming","","","","","","",""
"4195.10000012815","","","post_mooney1_questions","survey-likert","148","483487","0.0-6.0-2.20","2479692","co38035","norming","","","{""curiosity"":4,""confidence"":2}","[0,1]","../img/tt/040tt.jpg","",""
"2173.014999832958","","","recognition","survey-text","149","485663","0.0-6.0-3.20","2479692","co38035","norming","","","{""guess"":""cat""}","","../img/tt/040tt.jpg","",""
"null","../img/gs/040gs.jpg","null","reveal","image-keyboard-response","150","487679","0.0-6.0-4.20","2479692","co38035","norming","","","","","","",""
"null","../img/tt/040tt.jpg","null","mooney2","image-keyboard-response","151","489681","0.0-6.0-5.20","2479692","co38035","norming","","","","","","",""
"1648.3850001823157","","","post_reveal_questions","survey-likert","152","491332","0.0-6.0-6.20","2479692","co38035","norming","","","{""aha"":6}","[0]","../img/tt/040tt.jpg","",""
"null","<div style=""font-size:60px;""> </div>","null","fixation","html-keyboard-response","153","491534","0.0-6.0-0.21","2479692","co38035","norming","","","","","","",""
"null","../img/tt/1366tt.jpg","null","mooney1","image-keyboard-response","154","494541","0.0-6.0-1.21","2479692","co38035","norming","","","","","","",""
"3921.6800001449883","","","post_mooney1_questions","survey-likert","155","498464","0.0-6.0-2.21","2479692","co38035","norming","","","{""curiosity"":5,""confidence"":4}","[0,1]","../img/tt/1366tt.jpg","",""
"4104.369999840856","","","recognition","survey-text","156","502570","0.0-6.0-3.21","2479692","co38035","norming","","","{""guess"":""Taco""}","","../img/tt/1366tt.jpg","",""
"null","../img/gs/1366gs.jpg","null","reveal","image-keyboard-response","157","504576","0.0-6.0-4.21","2479692","co38035","norming","","","","","","",""
"null","../img/tt/1366tt.jpg","null","mooney2","image-keyboard-response","158","506578","0.0-6.0-5.21","2479692","co38035","norming","","","","","","",""
"2159.650000045076","","","post_reveal_questions","survey-likert","159","508741","0.0-6.0-6.21","2479692","co38035","norming","","","{""aha"":6}","[0]","../img/tt/1366tt.jpg","",""
"null","<div style=""font-size:60px;""> </div>","null","fixation","html-keyboard-response","160","508942","0.0-6.0-0.22","2479692","co38035","norming","","","","","","",""
"null","../img/tt/436tt.jpg","null","mooney1","image-keyboard-response","161","511947","0.0-6.0-1.22","2479692","co38035","norming","","","","","","",""
"5407.684999983758","","","post_mooney1_questions","survey-likert","162","517357","0.0-6.0-2.22","2479692","co38035","norming","","","{""curiosity"":4,""confidence"":6}","[0,1]","../img/tt/436tt.jpg","",""
"4876.875000074506","","","recognition","survey-text","163","522237","0.0-6.0-3.22","2479692","co38035","norming","","","{""guess"":""Leguana""}","","../img/tt/436tt.jpg","",""
"null","../img/gs/436gs.jpg","null","reveal","image-keyboard-response","164","524242","0.0-6.0-4.22","2479692","co38035","norming","","","","","","",""
"null","../img/tt/436tt.jpg","null","mooney2","image-keyboard-response","165","526245","0.0-6.0-5.22","2479692","co38035","norming","","","","","","",""
"5450.184999965131","","","post_reveal_questions","survey-likert","166","531697","0.0-6.0-6.22","2479692","co38035","norming","","","{""aha"":2}","[0]","../img/tt/436tt.jpg","",""
"null","<div style=""font-size:60px;""> </div>","null","fixation","html-keyboard-response","167","531899","0.0-6.0-0.23","2479692","co38035","norming","","","","","","",""
"null","../img/tt/1186tt.jpg","null","mooney1","image-keyboard-response","168","534902","0.0-6.0-1.23","2479692","co38035","norming","","","","","","",""
"6377.07499996759","","","post_mooney1_questions","survey-likert","169","541282","0.0-6.0-2.23","2479692","co38035","norming","","","{""curiosity"":3,""confidence"":3}","[0,1]","../img/tt/1186tt.jpg","",""
"4192.520000040531","","","recognition","survey-text","170","545479","0.0-6.0-3.23","2479692","co38035","norming","","","{""guess"":""Roller blader""}","","../img/tt/1186tt.jpg","",""
"null","../img/gs/1186gs.jpg","null","reveal","image-keyboard-response","171","547495","0.0-6.0-4.23","2479692","co38035","norming","","","","","","",""
"null","../img/tt/1186tt.jpg","null","mooney2","image-keyboard-response","172","549510","0.0-6.0-5.23","2479692","co38035","norming","","","","","","",""
"2331.9300001021475","","","post_reveal_questions","survey-likert","173","551843","0.0-6.0-6.23","2479692","co38035","norming","","","{""aha"":3}","[0]","../img/tt/1186tt.jpg","",""
"null","<div style=""font-size:60px;""> </div>","null","fixation","html-keyboard-response","174","552045","0.0-6.0-0.24","2479692","co38035","norming","","","","","","",""
"null","../img/tt/438tt.jpg","null","mooney1","image-keyboard-response","175","555062","0.0-6.0-1.24","2479692","co38035","norming","","","","","","",""
"2936.6400002036244","","","post_mooney1_questions","survey-likert","176","558001","0.0-6.0-2.24","2479692","co38035","norming","","","{""curiosity"":1,""confidence"":0}","[0,1]","../img/tt/438tt.jpg","",""
"6385.909999953583","","","recognition","survey-text","177","564390","0.0-6.0-3.24","2479692","co38035","norming","","","{""guess"":""dragonfly""}","","../img/tt/438tt.jpg","",""
"null","../img/gs/438gs.jpg","null","reveal","image-keyboard-response","178","566408","0.0-6.0-4.24","2479692","co38035","norming","","","","","","",""
"null","../img/tt/438tt.jpg","null","mooney2","image-keyboard-response","179","568410","0.0-6.0-5.24","2479692","co38035","norming","","","","","","",""
"3373.0550000909716","","","post_reveal_questions","survey-likert","180","571786","0.0-6.0-6.24","2479692","co38035","norming","","","{""aha"":4}","[0]","../img/tt/438tt.jpg","",""
"null","<div style=""font-size:60px;""> </div>","null","fixation","html-keyboard-response","181","571989","0.0-6.0-0.25","2479692","co38035","norming","","","","","","",""
"null","../img/tt/273tt.jpg","null","mooney1","image-keyboard-response","182","574991","0.0-6.0-1.25","2479692","co38035","norming","","","","","","",""
"5896.710000000894","","","post_mooney1_questions","survey-likert","183","580891","0.0-6.0-2.25","2479692","co38035","norming","","","{""curiosity"":6,""confidence"":2}","[0,1]","../img/tt/273tt.jpg","",""
"2415.5950001440942","","","recognition","survey-text","184","583310","0.0-6.0-3.25","2479692","co38035","norming","","","{""guess"":""worm""}","","../img/tt/273tt.jpg","",""
"null","../img/gs/273gs.jpg","null","reveal","image-keyboard-response","185","585312","0.0-6.0-4.25","2479692","co38035","norming","","","","","","",""
"null","../img/tt/273tt.jpg","null","mooney2","image-keyboard-response","186","587314","0.0-6.0-5.25","2479692","co38035","norming","","","","","","",""
"1959.3750000931323","","","post_reveal_questions","survey-likert","187","589276","0.0-6.0-6.25","2479692","co38035","norming","","","{""aha"":6}","[0]","../img/tt/273tt.jpg","",""
"null","<div style=""font-size:60px;""> </div>","null","fixation","html-keyboard-response","188","589495","0.0-6.0-0.26","2479692","co38035","norming","","","","","","",""
"null","../img/tt/1116tt.jpg","null","mooney1","image-keyboard-response","189","592498","0.0-6.0-1.26","2479692","co38035","norming","","","","","","",""
"3652.7749998494983","","","post_mooney1_questions","survey-likert","190","596154","0.0-6.0-2.26","2479692","co38035","norming","","","{""curiosity"":4,""confidence"":3}","[0,1]","../img/tt/1116tt.jpg","",""
"2828.8650000467896","","","recognition","survey-text","191","598985","0.0-6.0-3.26","2479692","co38035","norming","","","{""guess"":""Boat""}","","../img/tt/1116tt.jpg","",""
"null","../img/gs/1116gs.jpg","null","reveal","image-keyboard-response","192","600988","0.0-6.0-4.26","2479692","co38035","norming","","","","","","",""
"null","../img/tt/1116tt.jpg","null","mooney2","image-keyboard-response","193","602991","0.0-6.0-5.26","2479692","co38035","norming","","","","","","",""
"2834.8399999085814","","","post_reveal_questions","survey-likert","194","605828","0.0-6.0-6.26","2479692","co38035","norming","","","{""aha"":5}","[0]","../img/tt/1116tt.jpg","",""
"null","<div style=""font-size:60px;""> </div>","null","fixation","html-keyboard-response","195","606030","0.0-6.0-0.27","2479692","co38035","norming","","","","","","",""
"null","../img/tt/060tt.jpg","null","mooney1","image-keyboard-response","196","609033","0.0-6.0-1.27","2479692","co38035","norming","","","","","","",""
"5079.195000231266","","","post_mooney1_questions","survey-likert","197","614116","0.0-6.0-2.27","2479692","co38035","norming","","","{""curiosity"":5,""confidence"":4}","[0,1]","../img/tt/060tt.jpg","",""
"2666.5550000034273","","","recognition","survey-text","198","616785","0.0-6.0-3.27","2479692","co38035","norming","","","{""guess"":""Food ""}","","../img/tt/060tt.jpg","",""
"null","../img/gs/060gs.jpg","null","reveal","image-keyboard-response","199","618786","0.0-6.0-4.27","2479692","co38035","norming","","","","","","",""
"null","../img/tt/060tt.jpg","null","mooney2","image-keyboard-response","200","620789","0.0-6.0-5.27","2479692","co38035","norming","","","","","","",""
"2841.0600000061095","","","post_reveal_questions","survey-likert","201","623633","0.0-6.0-6.27","2479692","co38035","norming","","","{""aha"":6}","[0]","../img/tt/060tt.jpg","",""
"null","<div style=""font-size:60px;""> </div>","null","fixation","html-keyboard-response","202","623846","0.0-6.0-0.28","2479692","co38035","norming","","","","","","",""
"null","../img/tt/1107tt.jpg","null","mooney1","image-keyboard-response","203","626848","0.0-6.0-1.28","2479692","co38035","norming","","","","","","",""
"4237.029999960214","","","post_mooney1_questions","survey-likert","204","631088","0.0-6.0-2.28","2479692","co38035","norming","","","{""curiosity"":5,""confidence"":2}","[0,1]","../img/tt/1107tt.jpg","",""
"5728.644999908283","","","recognition","survey-text","205","636820","0.0-6.0-3.28","2479692","co38035","norming","","","{""guess"":""Baseball glove""}","","../img/tt/1107tt.jpg","",""
"null","../img/gs/1107gs.jpg","null","reveal","image-keyboard-response","206","638829","0.0-6.0-4.28","2479692","co38035","norming","","","","","","",""
"null","../img/tt/1107tt.jpg","null","mooney2","image-keyboard-response","207","640831","0.0-6.0-5.28","2479692","co38035","norming","","","","","","",""
"1893.7650001607835","","","post_reveal_questions","survey-likert","208","642728","0.0-6.0-6.28","2479692","co38035","norming","","","{""aha"":5}","[0]","../img/tt/1107tt.jpg","",""
"null","<div style=""font-size:60px;""> </div>","null","fixation","html-keyboard-response","209","642930","0.0-6.0-0.29","2479692","co38035","norming","","","","","","",""
"null","../img/tt/1241tt.jpg","null","mooney1","image-keyboard-response","210","645934","0.0-6.0-1.29","2479692","co38035","norming","","","","","","",""
"3818.7350002117455","","","post_mooney1_questions","survey-likert","211","649756","0.0-6.0-2.29","2479692","co38035","norming","","","{""curiosity"":4,""confidence"":0}","[0,1]","../img/tt/1241tt.jpg","",""
"2725.069999927655","","","recognition","survey-text","212","652484","0.0-6.0-3.29","2479692","co38035","norming","","","{""guess"":""Animal""}","","../img/tt/1241tt.jpg","",""
"null","../img/gs/1241gs.jpg","null","reveal","image-keyboard-response","213","654486","0.0-6.0-4.29","2479692","co38035","norming","","","","","","",""
"null","../img/tt/1241tt.jpg","null","mooney2","image-keyboard-response","214","656488","0.0-6.0-5.29","2479692","co38035","norming","","","","","","",""
"2242.379999952391","","","post_reveal_questions","survey-likert","215","658733","0.0-6.0-6.29","2479692","co38035","norming","","","{""aha"":5}","[0]","../img/tt/1241tt.jpg","",""
"null","<div style=""font-size:60px;""> </div>","null","fixation","html-keyboard-response","216","658935","0.0-6.0-0.30","2479692","co38035","norming","","","","","","",""
"null","../img/tt/1148tt.jpg","null","mooney1","image-keyboard-response","217","661939","0.0-6.0-1.30","2479692","co38035","norming","","","","","","",""
"3877.7549997903407","","","post_mooney1_questions","survey-likert","218","665819","0.0-6.0-2.30","2479692","co38035","norming","","","{""curiosity"":4,""confidence"":5}","[0,1]","../img/tt/1148tt.jpg","",""
"4194.36000008136","","","recognition","survey-text","219","670017","0.0-6.0-3.30","2479692","co38035","norming","","","{""guess"":""Duck Chicken""}","","../img/tt/1148tt.jpg","",""
"null","../img/gs/1148gs.jpg","null","reveal","image-keyboard-response","220","672019","0.0-6.0-4.30","2479692","co38035","norming","","","","","","",""
"null","../img/tt/1148tt.jpg","null","mooney2","image-keyboard-response","221","674021","0.0-6.0-5.30","2479692","co38035","norming","","","","","","",""
"1870.7000000867993","","","post_reveal_questions","survey-likert","222","675894","0.0-6.0-6.30","2479692","co38035","norming","","","{""aha"":3}","[0]","../img/tt/1148tt.jpg","",""
"null","<div style=""font-size:60px;""> </div>","null","fixation","html-keyboard-response","223","676096","0.0-6.0-0.31","2479692","co38035","norming","","","","","","",""
"null","../img/tt/082tt.jpg","null","mooney1","image-keyboard-response","224","679098","0.0-6.0-1.31","2479692","co38035","norming","","","","","","",""
"4555.514999898151","","","post_mooney1_questions","survey-likert","225","683657","0.0-6.0-2.31","2479692","co38035","norming","","","{""curiosity"":5,""confidence"":4}","[0,1]","../img/tt/082tt.jpg","",""
"2881.5750000067055","","","recognition","survey-text","226","686541","0.0-6.0-3.31","2479692","co38035","norming","","","{""guess"":""papegaai""}","","../img/tt/082tt.jpg","",""
"null","../img/gs/082gs.jpg","null","reveal","image-keyboard-response","227","688543","0.0-6.0-4.31","2479692","co38035","norming","","","","","","",""
"null","../img/tt/082tt.jpg","null","mooney2","image-keyboard-response","228","690545","0.0-6.0-5.31","2479692","co38035","norming","","","","","","",""
"1733.4949998185039","","","post_reveal_questions","survey-likert","229","692282","0.0-6.0-6.31","2479692","co38035","norming","","","{""aha"":4}","[0]","../img/tt/082tt.jpg","",""
"null","<div style=""font-size:60px;""> </div>","null","fixation","html-keyboard-response","230","692484","0.0-6.0-0.32","2479692","co38035","norming","","","","","","",""
"null","../img/tt/1101tt.jpg","null","mooney1","image-keyboard-response","231","695487","0.0-6.0-1.32","2479692","co38035","norming","","","","","","",""
"2979.5950001571327","","","post_mooney1_questions","survey-likert","232","698470","0.0-6.0-2.32","2479692","co38035","norming","","","{""curiosity"":3,""confidence"":4}","[0,1]","../img/tt/1101tt.jpg","",""
"5515.644999919459","","","recognition","survey-text","233","703988","0.0-6.0-3.32","2479692","co38035","norming","","","{""guess"":""baseball player""}","","../img/tt/1101tt.jpg","",""
"null","../img/gs/1101gs.jpg","null","reveal","image-keyboard-response","234","706010","0.0-6.0-4.32","2479692","co38035","norming","","","","","","",""
"null","../img/tt/1101tt.jpg","null","mooney2","image-keyboard-response","235","708015","0.0-6.0-5.32","2479692","co38035","norming","","","","","","",""
"3022.2300000023097","","","post_reveal_questions","survey-likert","236","711039","0.0-6.0-6.32","2479692","co38035","norming","","","{""aha"":4}","[0]","../img/tt/1101tt.jpg","",""
"null","<div style=""font-size:60px;""> </div>","null","fixation","html-keyboard-response","237","711241","0.0-6.0-0.33","2479692","co38035","norming","","","","","","",""
"null","../img/tt/111tt.jpg","null","mooney1","image-keyboard-response","238","714244","0.0-6.0-1.33","2479692","co38035","norming","","","","","","",""
"5934.9450001027435","","","post_mooney1_questions","survey-likert","239","720182","0.0-6.0-2.33","2479692","co38035","norming","","","{""curiosity"":6,""confidence"":1}","[0,1]","../img/tt/111tt.jpg","",""
"3568.0549999233335","","","recognition","survey-text","240","723753","0.0-6.0-3.33","2479692","co38035","norming","","","{""guess"":""flower""}","","../img/tt/111tt.jpg","",""
"null","../img/gs/111gs.jpg","null","reveal","image-keyboard-response","241","725777","0.0-6.0-4.33","2479692","co38035","norming","","","","","","",""
"null","../img/tt/111tt.jpg","null","mooney2","image-keyboard-response","242","727778","0.0-6.0-5.33","2479692","co38035","norming","","","","","","",""
"3523.2000001706183","","","post_reveal_questions","survey-likert","243","731303","0.0-6.0-6.33","2479692","co38035","norming","","","{""aha"":4}","[0]","../img/tt/111tt.jpg","",""
"null","<div style=""font-size:60px;""> </div>","null","fixation","html-keyboard-response","244","731505","0.0-6.0-0.34","2479692","co38035","norming","","","","","","",""
"null","../img/tt/056tt.jpg","null","mooney1","image-keyboard-response","245","734523","0.0-6.0-1.34","2479692","co38035","norming","","","","","","",""
"3063.9299999456853","","","post_mooney1_questions","survey-likert","246","737590","0.0-6.0-2.34","2479692","co38035","norming","","","{""curiosity"":0,""confidence"":0}","[0,1]","../img/tt/056tt.jpg","",""
"3469.275000039488","","","recognition","survey-text","247","741062","0.0-6.0-3.34","2479692","co38035","norming","","","{""guess"":""Fox""}","","../img/tt/056tt.jpg","",""
"null","../img/gs/056gs.jpg","null","reveal","image-keyboard-response","248","743065","0.0-6.0-4.34","2479692","co38035","norming","","","","","","",""
"null","../img/tt/056tt.jpg","null","mooney2","image-keyboard-response","249","745068","0.0-6.0-5.34","2479692","co38035","norming","","","","","","",""
"4219.4699998945","","","post_reveal_questions","survey-likert","250","749289","0.0-6.0-6.34","2479692","co38035","norming","","","{""aha"":1}","[0]","../img/tt/056tt.jpg","",""
"null","<div style=""font-size:60px;""> </div>","null","fixation","html-keyboard-response","251","749491","0.0-6.0-0.35","2479692","co38035","norming","","","","","","",""
"null","../img/tt/507tt.jpg","null","mooney1","image-keyboard-response","252","752494","0.0-6.0-1.35","2479692","co38035","norming","","","","","","",""
"4802.345000207424","","","post_mooney1_questions","survey-likert","253","757299","0.0-6.0-2.35","2479692","co38035","norming","","","{""curiosity"":5,""confidence"":1}","[0,1]","../img/tt/507tt.jpg","",""
"2994.375000009313","","","recognition","survey-text","254","760297","0.0-6.0-3.35","2479692","co38035","norming","","","{""guess"":""stripper""}","","../img/tt/507tt.jpg","",""
"null","../img/gs/507gs.jpg","null","reveal","image-keyboard-response","255","762298","0.0-6.0-4.35","2479692","co38035","norming","","","","","","",""
"null","../img/tt/507tt.jpg","null","mooney2","image-keyboard-response","256","764300","0.0-6.0-5.35","2479692","co38035","norming","","","","","","",""
"2191.5199998766184","","","post_reveal_questions","survey-likert","257","766493","0.0-6.0-6.35","2479692","co38035","norming","","","{""aha"":4}","[0]","../img/tt/507tt.jpg","",""
"null","<div style=""font-size:60px;""> </div>","null","fixation","html-keyboard-response","258","766695","0.0-6.0-0.36","2479692","co38035","norming","","","","","","",""
"null","../img/tt/300tt.jpg","null","mooney1","image-keyboard-response","259","769698","0.0-6.0-1.36","2479692","co38035","norming","","","","","","",""
"3475.6599999964237","","","post_mooney1_questions","survey-likert","260","773177","0.0-6.0-2.36","2479692","co38035","norming","","","{""curiosity"":5,""confidence"":4}","[0,1]","../img/tt/300tt.jpg","",""
"5029.9199998844415","","","recognition","survey-text","261","778210","0.0-6.0-3.36","2479692","co38035","norming","","","{""guess"":""Native american""}","","../img/tt/300tt.jpg","",""
"null","../img/gs/300gs.jpg","null","reveal","image-keyboard-response","262","780212","0.0-6.0-4.36","2479692","co38035","norming","","","","","","",""
"null","../img/tt/300tt.jpg","null","mooney2","image-keyboard-response","263","782214","0.0-6.0-5.36","2479692","co38035","norming","","","","","","",""
"3448.365000076592","","","post_reveal_questions","survey-likert","264","785665","0.0-6.0-6.36","2479692","co38035","norming","","","{""aha"":1}","[0]","../img/tt/300tt.jpg","",""
"null","<div style=""font-size:60px;""> </div>","null","fixation","html-keyboard-response","265","785867","0.0-6.0-0.37","2479692","co38035","norming","","","","","","",""
"null","../img/tt/052tt.jpg","null","mooney1","image-keyboard-response","266","788869","0.0-6.0-1.37","2479692","co38035","norming","","","","","","",""
"3760.1899998262525","","","post_mooney1_questions","survey-likert","267","792633","0.0-6.0-2.37","2479692","co38035","norming","","","{""curiosity"":4,""confidence"":2}","[0,1]","../img/tt/052tt.jpg","",""
"4359.570000087842","","","recognition","survey-text","268","796995","0.0-6.0-3.37","2479692","co38035","norming","","","{""guess"":""pancakes""}","","../img/tt/052tt.jpg","",""
"null","../img/gs/052gs.jpg","null","reveal","image-keyboard-response","269","798997","0.0-6.0-4.37","2479692","co38035","norming","","","","","","",""
"null","../img/tt/052tt.jpg","null","mooney2","image-keyboard-response","270","801000","0.0-6.0-5.37","2479692","co38035","norming","","","","","","",""
"2729.6249999199063","","","post_reveal_questions","survey-likert","271","803732","0.0-6.0-6.37","2479692","co38035","norming","","","{""aha"":6}","[0]","../img/tt/052tt.jpg","",""
"null","<div style=""font-size:60px;""> </div>","null","fixation","html-keyboard-response","272","803942","0.0-6.0-0.38","2479692","co38035","norming","","","","","","",""
"null","../img/tt/105tt.jpg","null","mooney1","image-keyboard-response","273","806946","0.0-6.0-1.38","2479692","co38035","norming","","","","","","",""
"3113.324999809265","","","post_mooney1_questions","survey-likert","274","810062","0.0-6.0-2.38","2479692","co38035","norming","","","{""curiosity"":5,""confidence"":5}","[0,1]","../img/tt/105tt.jpg","",""
"3847.615000093356","","","recognition","survey-text","275","813913","0.0-6.0-3.38","2479692","co38035","norming","","","{""guess"":""paperclips""}","","../img/tt/105tt.jpg","",""
"null","../img/gs/105gs.jpg","null","reveal","image-keyboard-response","276","815915","0.0-6.0-4.38","2479692","co38035","norming","","","","","","",""
"null","../img/tt/105tt.jpg","null","mooney2","image-keyboard-response","277","817922","0.0-6.0-5.38","2479692","co38035","norming","","","","","","",""
"1602.0649999845773","","","post_reveal_questions","survey-likert","278","819527","0.0-6.0-6.38","2479692","co38035","norming","","","{""aha"":3}","[0]","../img/tt/105tt.jpg","",""
"null","<div style=""font-size:60px;""> </div>","null","fixation","html-keyboard-response","279","819730","0.0-6.0-0.39","2479692","co38035","norming","","","","","","",""
"null","../img/tt/1024tt.jpg","null","mooney1","image-keyboard-response","280","822733","0.0-6.0-1.39","2479692","co38035","norming","","","","","","",""
"4021.815000101924","","","post_mooney1_questions","survey-likert","281","826758","0.0-6.0-2.39","2479692","co38035","norming","","","{""curiosity"":3,""confidence"":4}","[0,1]","../img/tt/1024tt.jpg","",""
"3492.8699999582022","","","recognition","survey-text","282","830254","0.0-6.0-3.39","2479692","co38035","norming","","","{""guess"":""tennis""}","","../img/tt/1024tt.jpg","",""
"null","../img/gs/1024gs.jpg","null","reveal","image-keyboard-response","283","832256","0.0-6.0-4.39","2479692","co38035","norming","","","","","","",""
"null","../img/tt/1024tt.jpg","null","mooney2","image-keyboard-response","284","834268","0.0-6.0-5.39","2479692","co38035","norming","","","","","","",""
"2041.874999878928","","","post_reveal_questions","survey-likert","285","836312","0.0-6.0-6.39","2479692","co38035","norming","","","{""aha"":0}","[0]","../img/tt/1024tt.jpg","",""
"null","<div style=""font-size:60px;""> </div>","null","fixation","html-keyboard-response","286","836526","0.0-6.0-0.40","2479692","co38035","norming","","","","","","",""
"null","../img/tt/013tt.jpg","null","mooney1","image-keyboard-response","287","839529","0.0-6.0-1.40","2479692","co38035","norming","","","","","","",""
"5803.034999873489","","","post_mooney1_questions","survey-likert","288","845335","0.0-6.0-2.40","2479692","co38035","norming","","","{""curiosity"":2,""confidence"":2}","[0,1]","../img/tt/013tt.jpg","",""
"2702.7300000190735","","","recognition","survey-text","289","848041","0.0-6.0-3.40","2479692","co38035","norming","","","{""guess"":""monkey""}","","../img/tt/013tt.jpg","",""
"null","../img/gs/013gs.jpg","null","reveal","image-keyboard-response","290","850056","0.0-6.0-4.40","2479692","co38035","norming","","","","","","",""
"null","../img/tt/013tt.jpg","null","mooney2","image-keyboard-response","291","852058","0.0-6.0-5.40","2479692","co38035","norming","","","","","","",""
"1644.5149998180568","","","post_reveal_questions","survey-likert","292","853705","0.0-6.0-6.40","2479692","co38035","norming","","","{""aha"":4}","[0]","../img/tt/013tt.jpg","",""
"null","<div style=""font-size:60px;""> </div>","null","fixation","html-keyboard-response","293","853907","0.0-6.0-0.41","2479692","co38035","norming","","","","","","",""
"null","../img/tt/1309tt.jpg","null","mooney1","image-keyboard-response","294","856912","0.0-6.0-1.41","2479692","co38035","norming","","","","","","",""
"4403.595000039786","","","post_mooney1_questions","survey-likert","295","861318","0.0-6.0-2.41","2479692","co38035","norming","","","{""curiosity"":6,""confidence"":0}","[0,1]","../img/tt/1309tt.jpg","",""
"6119.064999977127","","","recognition","survey-text","296","867440","0.0-6.0-3.41","2479692","co38035","norming","","","{""guess"":""building""}","","../img/tt/1309tt.jpg","",""
"null","../img/gs/1309gs.jpg","null","reveal","image-keyboard-response","297","869442","0.0-6.0-4.41","2479692","co38035","norming","","","","","","",""
"null","../img/tt/1309tt.jpg","null","mooney2","image-keyboard-response","298","871444","0.0-6.0-5.41","2479692","co38035","norming","","","","","","",""
"1728.7049998994917","","","post_reveal_questions","survey-likert","299","873175","0.0-6.0-6.41","2479692","co38035","norming","","","{""aha"":2}","[0]","../img/tt/1309tt.jpg","",""
"null","<div style=""font-size:60px;""> </div>","null","fixation","html-keyboard-response","300","873378","0.0-6.0-0.42","2479692","co38035","norming","","","","","","",""
"null","../img/tt/1276tt.jpg","null","mooney1","image-keyboard-response","301","876380","0.0-6.0-1.42","2479692","co38035","norming","","","","","","",""
"5514.509999891743","","","post_mooney1_questions","survey-likert","302","881897","0.0-6.0-2.42","2479692","co38035","norming","","","{""curiosity"":5,""confidence"":4}","[0,1]","../img/tt/1276tt.jpg","",""
"2436.815000139177","","","recognition","survey-text","303","884336","0.0-6.0-3.42","2479692","co38035","norming","","","{""guess"":""Swine""}","","../img/tt/1276tt.jpg","",""
"null","../img/gs/1276gs.jpg","null","reveal","image-keyboard-response","304","886338","0.0-6.0-4.42","2479692","co38035","norming","","","","","","",""
"null","../img/tt/1276tt.jpg","null","mooney2","image-keyboard-response","305","888349","0.0-6.0-5.42","2479692","co38035","norming","","","","","","",""
"1293.9199998509139","","","post_reveal_questions","survey-likert","306","889646","0.0-6.0-6.42","2479692","co38035","norming","","","{""aha"":0}","[0]","../img/tt/1276tt.jpg","",""
"null","<div style=""font-size:60px;""> </div>","null","fixation","html-keyboard-response","307","889848","0.0-6.0-0.43","2479692","co38035","norming","","","","","","",""
"null","../img/tt/135tt.jpg","null","mooney1","image-keyboard-response","308","892854","0.0-6.0-1.43","2479692","co38035","norming","","","","","","",""
"3770.9999999497086","","","post_mooney1_questions","survey-likert","309","896628","0.0-6.0-2.43","2479692","co38035","norming","","","{""curiosity"":5,""confidence"":4}","[0,1]","../img/tt/135tt.jpg","",""
"2287.694999948144","","","recognition","survey-text","310","898919","0.0-6.0-3.43","2479692","co38035","norming","","","{""guess"":""plane""}","","../img/tt/135tt.jpg","",""
"null","../img/gs/135gs.jpg","null","reveal","image-keyboard-response","311","900928","0.0-6.0-4.43","2479692","co38035","norming","","","","","","",""
"null","../img/tt/135tt.jpg","null","mooney2","image-keyboard-response","312","902930","0.0-6.0-5.43","2479692","co38035","norming","","","","","","",""
"2830.809999955818","","","post_reveal_questions","survey-likert","313","905763","0.0-6.0-6.43","2479692","co38035","norming","","","{""aha"":6}","[0]","../img/tt/135tt.jpg","",""
"null","<div style=""font-size:60px;""> </div>","null","fixation","html-keyboard-response","314","905965","0.0-6.0-0.44","2479692","co38035","norming","","","","","","",""
"null","../img/tt/096tt.jpg","null","mooney1","image-keyboard-response","315","908968","0.0-6.0-1.44","2479692","co38035","norming","","","","","","",""
"2830.0050001125783","","","post_mooney1_questions","survey-likert","316","911801","0.0-6.0-2.44","2479692","co38035","norming","","","{""curiosity"":6,""confidence"":6}","[0,1]","../img/tt/096tt.jpg","",""
"6079.7200000379235","","","recognition","survey-text","317","917883","0.0-6.0-3.44","2479692","co38035","norming","","","{""guess"":""Piano""}","","../img/tt/096tt.jpg","",""
"null","../img/gs/096gs.jpg","null","reveal","image-keyboard-response","318","919888","0.0-6.0-4.44","2479692","co38035","norming","","","","","","",""
"null","../img/tt/096tt.jpg","null","mooney2","image-keyboard-response","319","921890","0.0-6.0-5.44","2479692","co38035","norming","","","","","","",""
"1457.7099999878556","","","post_reveal_questions","survey-likert","320","923350","0.0-6.0-6.44","2479692","co38035","norming","","","{""aha"":0}","[0]","../img/tt/096tt.jpg","",""
"null","<div style=""font-size:60px;""> </div>","null","fixation","html-keyboard-response","321","923553","0.0-6.0-0.45","2479692","co38035","norming","","","","","","",""
"null","../img/tt/406tt.jpg","null","mooney1","image-keyboard-response","322","926555","0.0-6.0-1.45","2479692","co38035","norming","","","","","","",""
"6107.710000127554","","","post_mooney1_questions","survey-likert","323","932666","0.0-6.0-2.45","2479692","co38035","norming","","","{""curiosity"":5,""confidence"":0}","[0,1]","../img/tt/406tt.jpg","",""
"4900.474999798462","","","recognition","survey-text","324","937569","0.0-6.0-3.45","2479692","co38035","norming","","","{""guess"":""Ski goggles""}","","../img/tt/406tt.jpg","",""
"null","../img/gs/406gs.jpg","null","reveal","image-keyboard-response","325","939572","0.0-6.0-4.45","2479692","co38035","norming","","","","","","",""
"null","../img/tt/406tt.jpg","null","mooney2","image-keyboard-response","326","941575","0.0-6.0-5.45","2479692","co38035","norming","","","","","","",""
"2442.3450001049787","","","post_reveal_questions","survey-likert","327","944020","0.0-6.0-6.45","2479692","co38035","norming","","","{""aha"":1}","[0]","../img/tt/406tt.jpg","",""
"null","<div style=""font-size:60px;""> </div>","null","fixation","html-keyboard-response","328","944222","0.0-6.0-0.46","2479692","co38035","norming","","","","","","",""
"null","../img/tt/1097tt.jpg","null","mooney1","image-keyboard-response","329","947225","0.0-6.0-1.46","2479692","co38035","norming","","","","","","",""
"5612.694999901578","","","post_mooney1_questions","survey-likert","330","952841","0.0-6.0-2.46","2479692","co38035","norming","","","{""curiosity"":1,""confidence"":6}","[0,1]","../img/tt/1097tt.jpg","",""
"2595.580000197515","","","recognition","survey-text","331","955439","0.0-6.0-3.46","2479692","co38035","norming","","","{""guess"":""surfer""}","","../img/tt/1097tt.jpg","",""
"null","../img/gs/1097gs.jpg","null","reveal","image-keyboard-response","332","957441","0.0-6.0-4.46","2479692","co38035","norming","","","","","","",""
"null","../img/tt/1097tt.jpg","null","mooney2","image-keyboard-response","333","959455","0.0-6.0-5.46","2479692","co38035","norming","","","","","","",""
"1857.3450001422316","","","post_reveal_questions","survey-likert","334","961315","0.0-6.0-6.46","2479692","co38035","norming","","","{""aha"":0}","[0]","../img/tt/1097tt.jpg","",""
"null","<div style=""font-size:60px;""> </div>","null","fixation","html-keyboard-response","335","961518","0.0-6.0-0.47","2479692","co38035","norming","","","","","","",""
"null","../img/tt/1268tt.jpg","null","mooney1","image-keyboard-response","336","964523","0.0-6.0-1.47","2479692","co38035","norming","","","","","","",""
"3721.5899999719113","","","post_mooney1_questions","survey-likert","337","968246","0.0-6.0-2.47","2479692","co38035","norming","","","{""curiosity"":3,""confidence"":6}","[0,1]","../img/tt/1268tt.jpg","",""
"2817.7900000009686","","","recognition","survey-text","338","971067","0.0-6.0-3.47","2479692","co38035","norming","","","{""guess"":""squirrel""}","","../img/tt/1268tt.jpg","",""
"null","../img/gs/1268gs.jpg","null","reveal","image-keyboard-response","339","973069","0.0-6.0-4.47","2479692","co38035","norming","","","","","","",""
"null","../img/tt/1268tt.jpg","null","mooney2","image-keyboard-response","340","975079","0.0-6.0-5.47","2479692","co38035","norming","","","","","","",""
"3152.6450000237674","","","post_reveal_questions","survey-likert","341","978236","0.0-6.0-6.47","2479692","co38035","norming","","","{""aha"":1}","[0]","../img/tt/1268tt.jpg","",""
"null","<div style=""font-size:60px;""> </div>","null","fixation","html-keyboard-response","342","978452","0.0-6.0-0.48","2479692","co38035","norming","","","","","","",""
"null","../img/tt/1175tt.jpg","null","mooney1","image-keyboard-response","343","981454","0.0-6.0-1.48","2479692","co38035","norming","","","","","","",""
"5425.929999910295","","","post_mooney1_questions","survey-likert","344","986883","0.0-6.0-2.48","2479692","co38035","norming","","","{""curiosity"":6,""confidence"":1}","[0,1]","../img/tt/1175tt.jpg","",""
"2798.799999989569","","","recognition","survey-text","345","989685","0.0-6.0-3.48","2479692","co38035","norming","","","{""guess"":""chicken""}","","../img/tt/1175tt.jpg","",""
"null","../img/gs/1175gs.jpg","null","reveal","image-keyboard-response","346","991688","0.0-6.0-4.48","2479692","co38035","norming","","","","","","",""
"null","../img/tt/1175tt.jpg","null","mooney2","image-keyboard-response","347","993694","0.0-6.0-5.48","2479692","co38035","norming","","","","","","",""
"2425.66499998793","","","post_reveal_questions","survey-likert","348","996122","0.0-6.0-6.48","2479692","co38035","norming","","","{""aha"":2}","[0]","../img/tt/1175tt.jpg","",""
"null","<div style=""font-size:60px;""> </div>","null","fixation","html-keyboard-response","349","996324","0.0-6.0-0.49","2479692","co38035","norming","","","","","","",""
"null","../img/tt/094tt.jpg","null","mooney1","image-keyboard-response","350","999326","0.0-6.0-1.49","2479692","co38035","norming","","","","","","",""
"4159.089999971911","","","post_mooney1_questions","survey-likert","351","1003489","0.0-6.0-2.49","2479692","co38035","norming","","","{""curiosity"":6,""confidence"":0}","[0,1]","../img/tt/094tt.jpg","",""
"813.9499998651445","","","recognition","survey-text","352","1004305","0.0-6.0-3.49","2479692","co38035","norming","","","{""guess"":""""}","","../img/tt/094tt.jpg","",""
"null","../img/gs/094gs.jpg","null","reveal","image-keyboard-response","353","1006308","0.0-6.0-4.49","2479692","co38035","norming","","","","","","",""
"null","../img/tt/094tt.jpg","null","mooney2","image-keyboard-response","354","1008319","0.0-6.0-5.49","2479692","co38035","norming","","","","","","",""
"1766.1900001112372","","","post_reveal_questions","survey-likert","355","1010088","0.0-6.0-6.49","2479692","co38035","norming","","","{""aha"":2}","[0]","../img/tt/094tt.jpg","",""
"null","<div style=""font-size:60px;""> </div>","null","fixation","html-keyboard-response","356","1010290","0.0-6.0-0.50","2479692","co38035","norming","","","","","","",""
"null","../img/tt/296tt.jpg","null","mooney1","image-keyboard-response","357","1013293","0.0-6.0-1.50","2479692","co38035","norming","","","","","","",""
"3002.7300000656396","","","post_mooney1_questions","survey-likert","358","1016299","0.0-6.0-2.50","2479692","co38035","norming","","","{""curiosity"":6,""confidence"":5}","[0,1]","../img/tt/296tt.jpg","",""
"7571.510000154376","","","recognition","survey-text","359","1023873","0.0-6.0-3.50","2479692","co38035","norming","","","{""guess"":""doctors office""}","","../img/tt/296tt.jpg","",""
"null","../img/gs/296gs.jpg","null","reveal","image-keyboard-response","360","1025878","0.0-6.0-4.50","2479692","co38035","norming","","","","","","",""
"null","../img/tt/296tt.jpg","null","mooney2","image-keyboard-response","361","1027885","0.0-6.0-5.50","2479692","co38035","norming","","","","","","",""
"5443.659999873489","","","post_reveal_questions","survey-likert","362","1033331","0.0-6.0-6.50","2479692","co38035","norming","","","{""aha"":4}","[0]","../img/tt/296tt.jpg","",""
"null","<div style=""font-size:60px;""> </div>","null","fixation","html-keyboard-response","363","1033532","0.0-6.0-0.51","2479692","co38035","norming","","","","","","",""
"null","../img/tt/019tt.jpg","null","mooney1","image-keyboard-response","364","1036538","0.0-6.0-1.51","2479692","co38035","norming","","","","","","",""
"6735.245000105351","","","post_mooney1_questions","survey-likert","365","1043276","0.0-6.0-2.51","2479692","co38035","norming","","","{""curiosity"":4,""confidence"":0}","[0,1]","../img/tt/019tt.jpg","",""
"791.4899999741465","","","recognition","survey-text","366","1044070","0.0-6.0-3.51","2479692","co38035","norming","","","{""guess"":""""}","","../img/tt/019tt.jpg","",""
"null","../img/gs/019gs.jpg","null","reveal","image-keyboard-response","367","1046083","0.0-6.0-4.51","2479692","co38035","norming","","","","","","",""
"null","../img/tt/019tt.jpg","null","mooney2","image-keyboard-response","368","1048096","0.0-6.0-5.51","2479692","co38035","norming","","","","","","",""
"3209.4750001560897","","","post_reveal_questions","survey-likert","369","1051308","0.0-6.0-6.51","2479692","co38035","norming","","","{""aha"":5}","[0]","../img/tt/019tt.jpg","",""
"null","<div style=""font-size:60px;""> </div>","null","fixation","html-keyboard-response","370","1051528","0.0-6.0-0.52","2479692","co38035","norming","","","","","","",""
"null","../img/tt/121tt.jpg","null","mooney1","image-keyboard-response","371","1054532","0.0-6.0-1.52","2479692","co38035","norming","","","","","","",""
"4161.360000027344","","","post_mooney1_questions","survey-likert","372","1058696","0.0-6.0-2.52","2479692","co38035","norming","","","{""curiosity"":6,""confidence"":5}","[0,1]","../img/tt/121tt.jpg","",""
"4990.135000087321","","","recognition","survey-text","373","1063689","0.0-6.0-3.52","2479692","co38035","norming","","","{""guess"":""bird fishing""}","","../img/tt/121tt.jpg","",""
"null","../img/gs/121gs.jpg","null","reveal","image-keyboard-response","374","1065704","0.0-6.0-4.52","2479692","co38035","norming","","","","","","",""
"null","../img/tt/121tt.jpg","null","mooney2","image-keyboard-response","375","1067713","0.0-6.0-5.52","2479692","co38035","norming","","","","","","",""
"14005.709999939427","","","post_reveal_questions","survey-likert","376","1081721","0.0-6.0-6.52","2479692","co38035","norming","","","{""aha"":4}","[0]","../img/tt/121tt.jpg","",""
"null","<div style=""font-size:60px;""> </div>","null","fixation","html-keyboard-response","377","1081923","0.0-6.0-0.53","2479692","co38035","norming","","","","","","",""
"null","../img/tt/1127tt.jpg","null","mooney1","image-keyboard-response","378","1084941","0.0-6.0-1.53","2479692","co38035","norming","","","","","","",""
"13495.864999946207","","","post_mooney1_questions","survey-likert","379","1098439","0.0-6.0-2.53","2479692","co38035","norming","","","{""curiosity"":1,""confidence"":5}","[0,1]","../img/tt/1127tt.jpg","",""
"3615.9200000111014","","","recognition","survey-text","380","1102058","0.0-6.0-3.53","2479692","co38035","norming","","","{""guess"":""Orchestra""}","","../img/tt/1127tt.jpg","",""
"null","../img/gs/1127gs.jpg","null","reveal","image-keyboard-response","381","1104060","0.0-6.0-4.53","2479692","co38035","norming","","","","","","",""
"null","../img/tt/1127tt.jpg","null","mooney2","image-keyboard-response","382","1106062","0.0-6.0-5.53","2479692","co38035","norming","","","","","","",""
"2064.005000051111","","","post_reveal_questions","survey-likert","383","1108129","0.0-6.0-6.53","2479692","co38035","norming","","","{""aha"":0}","[0]","../img/tt/1127tt.jpg","",""
"null","<div style=""font-size:60px;""> </div>","null","fixation","html-keyboard-response","384","1108333","0.0-6.0-0.54","2479692","co38035","norming","","","","","","",""
"null","../img/tt/020tt.jpg","null","mooney1","image-keyboard-response","385","1111337","0.0-6.0-1.54","2479692","co38035","norming","","","","","","",""
"4401.675000088289","","","post_mooney1_questions","survey-likert","386","1115742","0.0-6.0-2.54","2479692","co38035","norming","","","{""curiosity"":3,""confidence"":5}","[0,1]","../img/tt/020tt.jpg","",""
"3337.650000117719","","","recognition","survey-text","387","1119083","0.0-6.0-3.54","2479692","co38035","norming","","","{""guess"":""Black man""}","","../img/tt/020tt.jpg","",""
"null","../img/gs/020gs.jpg","null","reveal","image-keyboard-response","388","1121084","0.0-6.0-4.54","2479692","co38035","norming","","","","","","",""
"null","../img/tt/020tt.jpg","null","mooney2","image-keyboard-response","389","1123092","0.0-6.0-5.54","2479692","co38035","norming","","","","","","",""
"1789.6199999377131","","","post_reveal_questions","survey-likert","390","1124884","0.0-6.0-6.54","2479692","co38035","norming","","","{""aha"":5}","[0]","../img/tt/020tt.jpg","",""
"null","<div style=""font-size:60px;""> </div>","null","fixation","html-keyboard-response","391","1125086","0.0-6.0-0.55","2479692","co38035","norming","","","","","","",""
"null","../img/tt/049tt.jpg","null","mooney1","image-keyboard-response","392","1128090","0.0-6.0-1.55","2479692","co38035","norming","","","","","","",""
"3105.659999884665","","","post_mooney1_questions","survey-likert","393","1131198","0.0-6.0-2.55","2479692","co38035","norming","","","{""curiosity"":1,""confidence"":3}","[0,1]","../img/tt/049tt.jpg","",""
"2453.239999944344","","","recognition","survey-text","394","1133653","0.0-6.0-3.55","2479692","co38035","norming","","","{""guess"":""hippo""}","","../img/tt/049tt.jpg","",""
"null","../img/gs/049gs.jpg","null","reveal","image-keyboard-response","395","1135656","0.0-6.0-4.55","2479692","co38035","norming","","","","","","",""
"null","../img/tt/049tt.jpg","null","mooney2","image-keyboard-response","396","1137660","0.0-6.0-5.55","2479692","co38035","norming","","","","","","",""
"1876.8050000071526","","","post_reveal_questions","survey-likert","397","1139539","0.0-6.0-6.55","2479692","co38035","norming","","","{""aha"":2}","[0]","../img/tt/049tt.jpg","",""
"null","<div style=""font-size:60px;""> </div>","null","fixation","html-keyboard-response","398","1139742","0.0-6.0-0.56","2479692","co38035","norming","","","","","","",""
"null","../img/tt/1151tt.jpg","null","mooney1","image-keyboard-response","399","1142746","0.0-6.0-1.56","2479692","co38035","norming","","","","","","",""
"5513.749999925494","","","post_mooney1_questions","survey-likert","400","1148262","0.0-6.0-2.56","2479692","co38035","norming","","","{""curiosity"":6,""confidence"":0}","[0,1]","../img/tt/1151tt.jpg","",""
"964.1150000970811","","","recognition","survey-text","401","1149229","0.0-6.0-3.56","2479692","co38035","norming","","","{""guess"":""""}","","../img/tt/1151tt.jpg","",""
"null","../img/gs/1151gs.jpg","null","reveal","image-keyboard-response","402","1151232","0.0-6.0-4.56","2479692","co38035","norming","","","","","","",""
"null","../img/tt/1151tt.jpg","null","mooney2","image-keyboard-response","403","1153233","0.0-6.0-5.56","2479692","co38035","norming","","","","","","",""
"2294.149999972433","","","post_reveal_questions","survey-likert","404","1155530","0.0-6.0-6.56","2479692","co38035","norming","","","{""aha"":0}","[0]","../img/tt/1151tt.jpg","",""
"null","<div style=""font-size:60px;""> </div>","null","fixation","html-keyboard-response","405","1155731","0.0-6.0-0.57","2479692","co38035","norming","","","","","","",""
"null","../img/tt/1362tt.jpg","null","mooney1","image-keyboard-response","406","1158734","0.0-6.0-1.57","2479692","co38035","norming","","","","","","",""
"4030.060000019148","","","post_mooney1_questions","survey-likert","407","1162767","0.0-6.0-2.57","2479692","co38035","norming","","","{""curiosity"":6,""confidence"":1}","[0,1]","../img/tt/1362tt.jpg","",""
"3675.109999952838","","","recognition","survey-text","408","1166444","0.0-6.0-3.57","2479692","co38035","norming","","","{""guess"":""tophats""}","","../img/tt/1362tt.jpg","",""
"null","../img/gs/1362gs.jpg","null","reveal","image-keyboard-response","409","1168446","0.0-6.0-4.57","2479692","co38035","norming","","","","","","",""
"null","../img/tt/1362tt.jpg","null","mooney2","image-keyboard-response","410","1170459","0.0-6.0-5.57","2479692","co38035","norming","","","","","","",""
"1852.784999879077","","","post_reveal_questions","survey-likert","411","1172314","0.0-6.0-6.57","2479692","co38035","norming","","","{""aha"":6}","[0]","../img/tt/1362tt.jpg","",""
"null","<div style=""font-size:60px;""> </div>","null","fixation","html-keyboard-response","412","1172535","0.0-6.0-0.58","2479692","co38035","norming","","","","","","",""
"null","../img/tt/1234tt.jpg","null","mooney1","image-keyboard-response","413","1175550","0.0-6.0-1.58","2479692","co38035","norming","","","","","","",""
"3391.2050002254546","","","post_mooney1_questions","survey-likert","414","1178945","0.0-6.0-2.58","2479692","co38035","norming","","","{""curiosity"":5,""confidence"":4}","[0,1]","../img/tt/1234tt.jpg","",""
"2139.720000093803","","","recognition","survey-text","415","1181087","0.0-6.0-3.58","2479692","co38035","norming","","","{""guess"":""duck""}","","../img/tt/1234tt.jpg","",""
"null","../img/gs/1234gs.jpg","null","reveal","image-keyboard-response","416","1183104","0.0-6.0-4.58","2479692","co38035","norming","","","","","","",""
"null","../img/tt/1234tt.jpg","null","mooney2","image-keyboard-response","417","1185116","0.0-6.0-5.58","2479692","co38035","norming","","","","","","",""
"1857.395000057295","","","post_reveal_questions","survey-likert","418","1186976","0.0-6.0-6.58","2479692","co38035","norming","","","{""aha"":4}","[0]","../img/tt/1234tt.jpg","",""
"null","<div style=""font-size:60px;""> </div>","null","fixation","html-keyboard-response","419","1187182","0.0-6.0-0.59","2479692","co38035","norming","","","","","","",""
"null","../img/tt/1270tt.jpg","null","mooney1","image-keyboard-response","420","1190194","0.0-6.0-1.59","2479692","co38035","norming","","","","","","",""
"4069.3599998485297","","","post_mooney1_questions","survey-likert","421","1194267","0.0-6.0-2.59","2479692","co38035","norming","","","{""curiosity"":2,""confidence"":4}","[0,1]","../img/tt/1270tt.jpg","",""
"2592.810000060126","","","recognition","survey-text","422","1196863","0.0-6.0-3.59","2479692","co38035","norming","","","{""guess"":""cavia""}","","../img/tt/1270tt.jpg","",""
"null","../img/gs/1270gs.jpg","null","reveal","image-keyboard-response","423","1198865","0.0-6.0-4.59","2479692","co38035","norming","","","","","","",""
"null","../img/tt/1270tt.jpg","null","mooney2","image-keyboard-response","424","1200867","0.0-6.0-5.59","2479692","co38035","norming","","","","","","",""
"2314.9399999529123","","","post_reveal_questions","survey-likert","425","1203184","0.0-6.0-6.59","2479692","co38035","norming","","","{""aha"":4}","[0]","../img/tt/1270tt.jpg","",""
"null","<div style=""font-size:60px;""> </div>","null","fixation","html-keyboard-response","426","1203386","0.0-6.0-0.60","2479692","co38035","norming","","","","","","",""
"null","../img/tt/1143tt.jpg","null","mooney1","image-keyboard-response","427","1206388","0.0-6.0-1.60","2479692","co38035","norming","","","","","","",""
"4151.164999930188","","","post_mooney1_questions","survey-likert","428","1210542","0.0-6.0-2.60","2479692","co38035","norming","","","{""curiosity"":2,""confidence"":5}","[0,1]","../img/tt/1143tt.jpg","",""
"5582.499999785796","","","recognition","survey-text","429","1216128","0.0-6.0-3.60","2479692","co38035","norming","","","{""guess"":""fitness bike""}","","../img/tt/1143tt.jpg","",""
"null","../img/gs/1143gs.jpg","null","reveal","image-keyboard-response","430","1218140","0.0-6.0-4.60","2479692","co38035","norming","","","","","","",""
"null","../img/tt/1143tt.jpg","null","mooney2","image-keyboard-response","431","1220147","0.0-6.0-5.60","2479692","co38035","norming","","","","","","",""
"2969.160000095144","","","post_reveal_questions","survey-likert","432","1223119","0.0-6.0-6.60","2479692","co38035","norming","","","{""aha"":2}","[0]","../img/tt/1143tt.jpg","",""
"null","<div style=""font-size:60px;""> </div>","null","fixation","html-keyboard-response","433","1223321","0.0-6.0-0.61","2479692","co38035","norming","","","","","","",""
"null","../img/tt/603tt.jpg","null","mooney1","image-keyboard-response","434","1226322","0.0-6.0-1.61","2479692","co38035","norming","","","","","","",""
"3792.4550001043826","","","post_mooney1_questions","survey-likert","435","1230118","0.0-6.0-2.61","2479692","co38035","norming","","","{""curiosity"":6,""confidence"":0}","[0,1]","../img/tt/603tt.jpg","",""
"716.190000064671","","","recognition","survey-text","436","1230836","0.0-6.0-3.61","2479692","co38035","norming","","","{""guess"":""""}","","../img/tt/603tt.jpg","",""
"null","../img/gs/603gs.jpg","null","reveal","image-keyboard-response","437","1232855","0.0-6.0-4.61","2479692","co38035","norming","","","","","","",""
"null","../img/tt/603tt.jpg","null","mooney2","image-keyboard-response","438","1234858","0.0-6.0-5.61","2479692","co38035","norming","","","","","","",""
"1789.6350000519305","","","post_reveal_questions","survey-likert","439","1236650","0.0-6.0-6.61","2479692","co38035","norming","","","{""aha"":3}","[0]","../img/tt/603tt.jpg","",""
"null","<div style=""font-size:60px;""> </div>","null","fixation","html-keyboard-response","440","1236852","0.0-6.0-0.62","2479692","co38035","norming","","","","","","",""
"null","../img/tt/1226tt.jpg","null","mooney1","image-keyboard-response","441","1239866","0.0-6.0-1.62","2479692","co38035","norming","","","","","","",""
"3020.424999995157","","","post_mooney1_questions","survey-likert","442","1242890","0.0-6.0-2.62","2479692","co38035","norming","","","{""curiosity"":4,""confidence"":3}","[0,1]","../img/tt/1226tt.jpg","",""
"3383.2900000270456","","","recognition","survey-text","443","1246276","0.0-6.0-3.62","2479692","co38035","norming","","","{""guess"":""chickens""}","","../img/tt/1226tt.jpg","",""
"null","../img/gs/1226gs.jpg","null","reveal","image-keyboard-response","444","1248281","0.0-6.0-4.62","2479692","co38035","norming","","","","","","",""
"null","../img/tt/1226tt.jpg","null","mooney2","image-keyboard-response","445","1250287","0.0-6.0-5.62","2479692","co38035","norming","","","","","","",""
"2462.220000103116","","","post_reveal_questions","survey-likert","446","1252752","0.0-6.0-6.62","2479692","co38035","norming","","","{""aha"":3}","[0]","../img/tt/1226tt.jpg","",""
"null","<div style=""font-size:60px;""> </div>","null","fixation","html-keyboard-response","447","1252954","0.0-6.0-0.63","2479692","co38035","norming","","","","","","",""
"null","../img/tt/357tt.jpg","null","mooney1","image-keyboard-response","448","1255965","0.0-6.0-1.63","2479692","co38035","norming","","","","","","",""
"3991.230000043288","","","post_mooney1_questions","survey-likert","449","1259960","0.0-6.0-2.63","2479692","co38035","norming","","","{""curiosity"":4,""confidence"":1}","[0,1]","../img/tt/357tt.jpg","",""
"4009.9100000225008","","","recognition","survey-text","450","1263973","0.0-6.0-3.63","2479692","co38035","norming","","","{""guess"":""dragon fruit""}","","../img/tt/357tt.jpg","",""
"null","../img/gs/357gs.jpg","null","reveal","image-keyboard-response","451","1265977","0.0-6.0-4.63","2479692","co38035","norming","","","","","","",""
"null","../img/tt/357tt.jpg","null","mooney2","image-keyboard-response","452","1267981","0.0-6.0-5.63","2479692","co38035","norming","","","","","","",""
"2559.3250000383705","","","post_reveal_questions","survey-likert","453","1270542","0.0-6.0-6.63","2479692","co38035","norming","","","{""aha"":1}","[0]","../img/tt/357tt.jpg","",""
"null","<div style=""font-size:60px;""> </div>","null","fixation","html-keyboard-response","454","1270745","0.0-6.0-0.64","2479692","co38035","norming","","","","","","",""
"null","../img/tt/1146tt.jpg","null","mooney1","image-keyboard-response","455","1273748","0.0-6.0-1.64","2479692","co38035","norming","","","","","","",""
"6122.585000004619","","","post_mooney1_questions","survey-likert","456","1279872","0.0-6.0-2.64","2479692","co38035","norming","","","{""curiosity"":5,""confidence"":2}","[0,1]","../img/tt/1146tt.jpg","",""
"3306.7650001030415","","","recognition","survey-text","457","1283182","0.0-6.0-3.64","2479692","co38035","norming","","","{""guess"":""bow""}","","../img/tt/1146tt.jpg","",""
"null","../img/gs/1146gs.jpg","null","reveal","image-keyboard-response","458","1285187","0.0-6.0-4.64","2479692","co38035","norming","","","","","","",""
"null","../img/tt/1146tt.jpg","null","mooney2","image-keyboard-response","459","1287194","0.0-6.0-5.64","2479692","co38035","norming","","","","","","",""
"4308.4500001277775","","","post_reveal_questions","survey-likert","460","1291505","0.0-6.0-6.64","2479692","co38035","norming","","","{""aha"":4}","[0]","../img/tt/1146tt.jpg","",""
"null","<div style=""font-size:60px;""> </div>","null","fixation","html-keyboard-response","461","1291714","0.0-6.0-0.65","2479692","co38035","norming","","","","","","",""
"null","../img/tt/416tt.jpg","null","mooney1","image-keyboard-response","462","1294717","0.0-6.0-1.65","2479692","co38035","norming","","","","","","",""
"4750.159999821335","","","post_mooney1_questions","survey-likert","463","1299470","0.0-6.0-2.65","2479692","co38035","norming","","","{""curiosity"":6,""confidence"":2}","[0,1]","../img/tt/416tt.jpg","",""
"6244.010000023991","","","recognition","survey-text","464","1305717","0.0-6.0-3.65","2479692","co38035","norming","","","{""guess"":""ostrich emu""}","","../img/tt/416tt.jpg","",""
"null","../img/gs/416gs.jpg","null","reveal","image-keyboard-response","465","1307720","0.0-6.0-4.65","2479692","co38035","norming","","","","","","",""
"null","../img/tt/416tt.jpg","null","mooney2","image-keyboard-response","466","1309728","0.0-6.0-5.65","2479692","co38035","norming","","","","","","",""
"3090.4350001364946","","","post_reveal_questions","survey-likert","467","1312821","0.0-6.0-6.65","2479692","co38035","norming","","","{""aha"":4}","[0]","../img/tt/416tt.jpg","",""
"null","<div style=""font-size:60px;""> </div>","null","fixation","html-keyboard-response","468","1313033","0.0-6.0-0.66","2479692","co38035","norming","","","","","","",""
"null","../img/tt/080tt.jpg","null","mooney1","image-keyboard-response","469","1316045","0.0-6.0-1.66","2479692","co38035","norming","","","","","","",""
"5712.295000208542","","","post_mooney1_questions","survey-likert","470","1321760","0.0-6.0-2.66","2479692","co38035","norming","","","{""curiosity"":3,""confidence"":5}","[0,1]","../img/tt/080tt.jpg","",""
"3437.364999903366","","","recognition","survey-text","471","1325201","0.0-6.0-3.66","2479692","co38035","norming","","","{""guess"":""Mushroom""}","","../img/tt/080tt.jpg","",""
"null","../img/gs/080gs.jpg","null","reveal","image-keyboard-response","472","1327203","0.0-6.0-4.66","2479692","co38035","norming","","","","","","",""
"null","../img/tt/080tt.jpg","null","mooney2","image-keyboard-response","473","1329207","0.0-6.0-5.66","2479692","co38035","norming","","","","","","",""
"3546.529999934137","","","post_reveal_questions","survey-likert","474","1332756","0.0-6.0-6.66","2479692","co38035","norming","","","{""aha"":6}","[0]","../img/tt/080tt.jpg","",""
"null","<div style=""font-size:60px;""> </div>","null","fixation","html-keyboard-response","475","1332967","0.0-6.0-0.67","2479692","co38035","norming","","","","","","",""
"null","../img/tt/1069tt.jpg","null","mooney1","image-keyboard-response","476","1335973","0.0-6.0-1.67","2479692","co38035","norming","","","","","","",""
"3957.02000008896","","","post_mooney1_questions","survey-likert","477","1339934","0.0-6.0-2.67","2479692","co38035","norming","","","{""curiosity"":1,""confidence"":6}","[0,1]","../img/tt/1069tt.jpg","",""
"4454.954999964684","","","recognition","survey-text","478","1344392","0.0-6.0-3.67","2479692","co38035","norming","","","{""guess"":""berggeit""}","","../img/tt/1069tt.jpg","",""
"null","../img/gs/1069gs.jpg","null","reveal","image-keyboard-response","479","1346401","0.0-6.0-4.67","2479692","co38035","norming","","","","","","",""
"null","../img/tt/1069tt.jpg","null","mooney2","image-keyboard-response","480","1348405","0.0-6.0-5.67","2479692","co38035","norming","","","","","","",""
"3135.2500000502914","","","post_reveal_questions","survey-likert","481","1351543","0.0-6.0-6.67","2479692","co38035","norming","","","{""aha"":0}","[0]","../img/tt/1069tt.jpg","",""
"null","<div style=""font-size:60px;""> </div>","null","fixation","html-keyboard-response","482","1351746","0.0-6.0-0.68","2479692","co38035","norming","","","","","","",""
"null","../img/tt/118tt.jpg","null","mooney1","image-keyboard-response","483","1354749","0.0-6.0-1.68","2479692","co38035","norming","","","","","","",""
"3353.859999915585","","","post_mooney1_questions","survey-likert","484","1358106","0.0-6.0-2.68","2479692","co38035","norming","","","{""curiosity"":1,""confidence"":4}","[0,1]","../img/tt/118tt.jpg","",""
"3003.220000071451","","","recognition","survey-text","485","1361112","0.0-6.0-3.68","2479692","co38035","norming","","","{""guess"":""stairwell""}","","../img/tt/118tt.jpg","",""
"null","../img/gs/118gs.jpg","null","reveal","image-keyboard-response","486","1363123","0.0-6.0-4.68","2479692","co38035","norming","","","","","","",""
"null","../img/tt/118tt.jpg","null","mooney2","image-keyboard-response","487","1365125","0.0-6.0-5.68","2479692","co38035","norming","","","","","","",""
"2165.2800000738353","","","post_reveal_questions","survey-likert","488","1367293","0.0-6.0-6.68","2479692","co38035","norming","","","{""aha"":6}","[0]","../img/tt/118tt.jpg","",""
"null","<div style=""font-size:60px;""> </div>","null","fixation","html-keyboard-response","489","1367508","0.0-6.0-0.69","2479692","co38035","norming","","","","","","",""
"null","../img/tt/184tt.jpg","null","mooney1","image-keyboard-response","490","1370518","0.0-6.0-1.69","2479692","co38035","norming","","","","","","",""
"2871.4699998963624","","","post_mooney1_questions","survey-likert","491","1373392","0.0-6.0-2.69","2479692","co38035","norming","","","{""curiosity"":0,""confidence"":5}","[0,1]","../img/tt/184tt.jpg","",""
"1937.1650000102818","","","recognition","survey-text","492","1375332","0.0-6.0-3.69","2479692","co38035","norming","","","{""guess"":""food""}","","../img/tt/184tt.jpg","",""
"null","../img/gs/184gs.jpg","null","reveal","image-keyboard-response","493","1377334","0.0-6.0-4.69","2479692","co38035","norming","","","","","","",""
"null","../img/tt/184tt.jpg","null","mooney2","image-keyboard-response","494","1379338","0.0-6.0-5.69","2479692","co38035","norming","","","","","","",""
"1798.6050001345575","","","post_reveal_questions","survey-likert","495","1381139","0.0-6.0-6.69","2479692","co38035","norming","","","{""aha"":4}","[0]","../img/tt/184tt.jpg","",""
"null","<div style=""font-size:60px;""> </div>","null","fixation","html-keyboard-response","496","1381341","0.0-6.0-0.70","2479692","co38035","norming","","","","","","",""
"null","../img/tt/524tt.jpg","null","mooney1","image-keyboard-response","497","1384356","0.0-6.0-1.70","2479692","co38035","norming","","","","","","",""
"5855.31000001356","","","post_mooney1_questions","survey-likert","498","1390214","0.0-6.0-2.70","2479692","co38035","norming","","","{""curiosity"":4,""confidence"":5}","[0,1]","../img/tt/524tt.jpg","",""
"3105.195000069216","","","recognition","survey-text","499","1393322","0.0-6.0-3.70","2479692","co38035","norming","","","{""guess"":""elephant""}","","../img/tt/524tt.jpg","",""
"null","../img/gs/524gs.jpg","null","reveal","image-keyboard-response","500","1395332","0.0-6.0-4.70","2479692","co38035","norming","","","","","","",""
"null","../img/tt/524tt.jpg","null","mooney2","image-keyboard-response","501","1397348","0.0-6.0-5.70","2479692","co38035","norming","","","","","","",""
"2207.715000025928","","","post_reveal_questions","survey-likert","502","1399559","0.0-6.0-6.70","2479692","co38035","norming","","","{""aha"":1}","[0]","../img/tt/524tt.jpg","",""
"null","<div style=""font-size:60px;""> </div>","null","fixation","html-keyboard-response","503","1399765","0.0-6.0-0.71","2479692","co38035","norming","","","","","","",""
"null","../img/tt/584tt.jpg","null","mooney1","image-keyboard-response","504","1402778","0.0-6.0-1.71","2479692","co38035","norming","","","","","","",""
"8785.279999952763","","","post_mooney1_questions","survey-likert","505","1411566","0.0-6.0-2.71","2479692","co38035","norming","","","{""curiosity"":2,""confidence"":5}","[0,1]","../img/tt/584tt.jpg","",""
"2791.250000009313","","","recognition","survey-text","506","1414360","0.0-6.0-3.71","2479692","co38035","norming","","","{""guess"":""Tools""}","","../img/tt/584tt.jpg","",""
"null","../img/gs/584gs.jpg","null","reveal","image-keyboard-response","507","1416374","0.0-6.0-4.71","2479692","co38035","norming","","","","","","",""
"null","../img/tt/584tt.jpg","null","mooney2","image-keyboard-response","508","1418377","0.0-6.0-5.71","2479692","co38035","norming","","","","","","",""
"4473.784999921918","","","post_reveal_questions","survey-likert","509","1422853","0.0-6.0-6.71","2479692","co38035","norming","","","{""aha"":1}","[0]","../img/tt/584tt.jpg","",""
"null","<div style=""font-size:60px;""> </div>","null","fixation","html-keyboard-response","510","1423068","0.0-6.0-0.72","2479692","co38035","norming","","","","","","",""
"null","../img/tt/1247tt.jpg","null","mooney1","image-keyboard-response","511","1426073","0.0-6.0-1.72","2479692","co38035","norming","","","","","","",""
"9910.094999941066","","","post_mooney1_questions","survey-likert","512","1435986","0.0-6.0-2.72","2479692","co38035","norming","","","{""curiosity"":3,""confidence"":4}","[0,1]","../img/tt/1247tt.jpg","",""
"3160.7399999629706","","","recognition","survey-text","513","1439150","0.0-6.0-3.72","2479692","co38035","norming","","","{""guess"":""Panther""}","","../img/tt/1247tt.jpg","",""
"null","../img/gs/1247gs.jpg","null","reveal","image-keyboard-response","514","1441152","0.0-6.0-4.72","2479692","co38035","norming","","","","","","",""
"null","../img/tt/1247tt.jpg","null","mooney2","image-keyboard-response","515","1443153","0.0-6.0-5.72","2479692","co38035","norming","","","","","","",""
"1928.1649999320507","","","post_reveal_questions","survey-likert","516","1445083","0.0-6.0-6.72","2479692","co38035","norming","","","{""aha"":1}","[0]","../img/tt/1247tt.jpg","",""
"null","<div style=""font-size:60px;""> </div>","null","fixation","html-keyboard-response","517","1445285","0.0-6.0-0.73","2479692","co38035","norming","","","","","","",""
"null","../img/tt/1055tt.jpg","null","mooney1","image-keyboard-response","518","1448289","0.0-6.0-1.73","2479692","co38035","norming","","","","","","",""
"4366.429999936372","","","post_mooney1_questions","survey-likert","519","1452658","0.0-6.0-2.73","2479692","co38035","norming","","","{""curiosity"":6,""confidence"":0}","[0,1]","../img/tt/1055tt.jpg","",""
"574.2750000208616","","","recognition","survey-text","520","1453235","0.0-6.0-3.73","2479692","co38035","norming","","","{""guess"":""""}","","../img/tt/1055tt.jpg","",""
"null","../img/gs/1055gs.jpg","null","reveal","image-keyboard-response","521","1455239","0.0-6.0-4.73","2479692","co38035","norming","","","","","","",""
"null","../img/tt/1055tt.jpg","null","mooney2","image-keyboard-response","522","1457241","0.0-6.0-5.73","2479692","co38035","norming","","","","","","",""
"2022.4800000432879","","","post_reveal_questions","survey-likert","523","1459266","0.0-6.0-6.73","2479692","co38035","norming","","","{""aha"":4}","[0]","../img/tt/1055tt.jpg","",""
"null","<div style=""font-size:60px;""> </div>","null","fixation","html-keyboard-response","524","1459468","0.0-6.0-0.74","2479692","co38035","norming","","","","","","",""
"null","../img/tt/599tt.jpg","null","mooney1","image-keyboard-response","525","1462472","0.0-6.0-1.74","2479692","co38035","norming","","","","","","",""
"2963.6650001630187","","","post_mooney1_questions","survey-likert","526","1465439","0.0-6.0-2.74","2479692","co38035","norming","","","{""curiosity"":5,""confidence"":2}","[0,1]","../img/tt/599tt.jpg","",""
"2141.234999988228","","","recognition","survey-text","527","1467583","0.0-6.0-3.74","2479692","co38035","norming","","","{""guess"":""duck""}","","../img/tt/599tt.jpg","",""
"null","../img/gs/599gs.jpg","null","reveal","image-keyboard-response","528","1469585","0.0-6.0-4.74","2479692","co38035","norming","","","","","","",""
"null","../img/tt/599tt.jpg","null","mooney2","image-keyboard-response","529","1471589","0.0-6.0-5.74","2479692","co38035","norming","","","","","","",""
"1632.3750000447035","","","post_reveal_questions","survey-likert","530","1473224","0.0-6.0-6.74","2479692","co38035","norming","","","{""aha"":2}","[0]","../img/tt/599tt.jpg","",""
"null","<div style=""font-size:60px;""> </div>","null","fixation","html-keyboard-response","531","1473426","0.0-6.0-0.75","2479692","co38035","norming","","","","","","",""
"null","../img/tt/590tt.jpg","null","mooney1","image-keyboard-response","532","1476429","0.0-6.0-1.75","2479692","co38035","norming","","","","","","",""
"3676.875000121072","","","post_mooney1_questions","survey-likert","533","1480110","0.0-6.0-2.75","2479692","co38035","norming","","","{""curiosity"":6,""confidence"":1}","[0,1]","../img/tt/590tt.jpg","",""
"4161.079999990761","","","recognition","survey-text","534","1484273","0.0-6.0-3.75","2479692","co38035","norming","","","{""guess"":""school table""}","","../img/tt/590tt.jpg","",""
"null","../img/gs/590gs.jpg","null","reveal","image-keyboard-response","535","1486275","0.0-6.0-4.75","2479692","co38035","norming","","","","","","",""
"null","../img/tt/590tt.jpg","null","mooney2","image-keyboard-response","536","1488282","0.0-6.0-5.75","2479692","co38035","norming","","","","","","",""
"2249.874999979511","","","post_reveal_questions","survey-likert","537","1490534","0.0-6.0-6.75","2479692","co38035","norming","","","{""aha"":5}","[0]","../img/tt/590tt.jpg","",""
"null","<div style=""font-size:60px;""> </div>","null","fixation","html-keyboard-response","538","1490746","0.0-6.0-0.76","2479692","co38035","norming","","","","","","",""
"null","../img/tt/163tt.jpg","null","mooney1","image-keyboard-response","539","1493749","0.0-6.0-1.76","2479692","co38035","norming","","","","","","",""
"3494.734999956563","","","post_mooney1_questions","survey-likert","540","1497247","0.0-6.0-2.76","2479692","co38035","norming","","","{""curiosity"":4,""confidence"":1}","[0,1]","../img/tt/163tt.jpg","",""
"2982.9150000587106","","","recognition","survey-text","541","1500233","0.0-6.0-3.76","2479692","co38035","norming","","","{""guess"":""shrimp""}","","../img/tt/163tt.jpg","",""
"null","../img/gs/163gs.jpg","null","reveal","image-keyboard-response","542","1502239","0.0-6.0-4.76","2479692","co38035","norming","","","","","","",""
"null","../img/tt/163tt.jpg","null","mooney2","image-keyboard-response","543","1504245","0.0-6.0-5.76","2479692","co38035","norming","","","","","","",""
"3049.8500000685453","","","post_reveal_questions","survey-likert","544","1507297","0.0-6.0-6.76","2479692","co38035","norming","","","{""aha"":2}","[0]","../img/tt/163tt.jpg","",""
"null","<div style=""font-size:60px;""> </div>","null","fixation","html-keyboard-response","545","1507513","0.0-6.0-0.77","2479692","co38035","norming","","","","","","",""
"null","../img/tt/1272tt.jpg","null","mooney1","image-keyboard-response","546","1510516","0.0-6.0-1.77","2479692","co38035","norming","","","","","","",""
"3354.0600000414997","","","post_mooney1_questions","survey-likert","547","1513874","0.0-6.0-2.77","2479692","co38035","norming","","","{""curiosity"":5,""confidence"":5}","[0,1]","../img/tt/1272tt.jpg","",""
"2790.5399999581277","","","recognition","survey-text","548","1516666","0.0-6.0-3.77","2479692","co38035","norming","","","{""guess"":""Lion""}","","../img/tt/1272tt.jpg","",""
"null","../img/gs/1272gs.jpg","null","reveal","image-keyboard-response","549","1518669","0.0-6.0-4.77","2479692","co38035","norming","","","","","","",""
"null","../img/tt/1272tt.jpg","null","mooney2","image-keyboard-response","550","1520672","0.0-6.0-5.77","2479692","co38035","norming","","","","","","",""
"2251.6600000672042","","","post_reveal_questions","survey-likert","551","1522926","0.0-6.0-6.77","2479692","co38035","norming","","","{""aha"":1}","[0]","../img/tt/1272tt.jpg","",""
