"rt","stimulus","key_press","test_part","trial_type","trial_index","time_elapsed","internal_node_id","totalTime","subject","experiment_name","button_pressed","success","responses","question_order","currentStim","old","correct"
"37338","Welcome to the experiment. This is an online experiment so please don't close the tab/window until we say goodbye.  Press any key to begin.","32","instructions","html-keyboard-response","0","37343","0.0-0.0","3695578","co38527","norming","","","","","","",""
"37100","<div style='word-wrap: break-word; width: 900px'><h3>Please consider this information carefully before deciding whether to participate in this research</h3><ul style='text-align: left; font-size: .8em;'><li><b>Purpose of the research</b>: To examine how people process images.</li><li><b>What you will do in this research</b>:  Stimuli (images) will be presented on the computer and you will be asked different questions about them.</li><li><b>Time required</b>: Participation will take between 45 and 60 minutes to complete.</li><li><b>Risks</b>:  There are no anticipated risks associated with participating in this study. The effects of participating should be comparable to those you would experience from viewing a computer monitor for 30 minutes and using a mouse or keyboard.</li><li><b>Benefits</b>:  This study provides no benefits to you individually except for the credit. The study provides important information about the nature of perception and learning.</li><li><b>Confidentiality</b>:  Your participation in this study will remain confidential. No personally identifiable information will be associated with your data. Your de-identified data may be shared with other researchers and used in future projects.</li><li><b>Participation and withdrawal</b>:  Your participation in this study is completely voluntary and you may refuse to participate or you may choose to withdraw at any time without penalty.</li><li><b>How to contact the researchers</b>: If you have questions or concerns about your participation or payment, or want to request a summary of research findings, please contact Sander Van de Cruys (KU Leuven), at sander.vandecruys@kuleuven.be.</li></ul><p>The nature and purpose of this research have been sufficiently explained and I agree to participate in this study.  I understand that I am free to withdraw at any time without incurring any penalty.</p><p>Please consent by clicking the button below to continue. Otherwise, please exit the study at this time.</p></div>","","instructions","html-button-response","1","74445","0.0-1.0","3695578","co38527","norming","0","","","","","",""
"","","","instructions","fullscreen","2","94412","0.0-2.0","3695578","co38527","norming","","true","","","","",""
"64422","","","sona","survey-html-form","3","158835","0.0-3.0","3695578","co38527","norming","","","[{""name"":""sonaid"",""value"":""38527""},{""name"":""debrief"",""value"":""no""},{""name"":""datajoin"",""value"":""yes""}]","","","",""
"85291","<div style='word-wrap: break-word; width: 900px'><h3>Instructions</h3><p>This experiment will have 3 parts. In the first part you will see a series of distorted images like the one below on the left. As you can see in the righthand image, the distorted images are derived from actual photographs. In what follows, you will <strong>briefly</strong> be presented with <strong>only</strong> the distorted image.</p> <div style='float: left; margin-right: 20px;'><img src='../img/018tt.jpg' height='250' width='250'></img></div><div style='float: right; margin-left: 20px;'><img src='../img/018gs.jpg' height='250' width='250'></img></div><p>Subsequently you will be asked a few questions about the image: One question on how <strong>curious</strong> you are about the solution and one on how <strong>confident</strong> you are that you know the solution.</p>Next, we ask you to make a guess on what is in the image. Note that it is OK to name just the <strong>basic level category</strong>. For example when you see a parrot in the image, 'parrot' will obviously be a correct answer but also correct is 'bird'. However, 'animal' will <strong>not</strong> be counted as a correct response. For the example above, 'rose' would be correct or 'flower', but not 'plant'. When soccer players are depicted, 'soccer', 'football', 'soccer players' will be correct, but not 'humans', 'outdoors', or 'sports'. You do not need to describe the image in full, just name the main object in it <strong>in one or two words</strong>. All images depict objects from one of the following broad level categories: animals, inanimate objects, plants, sports, vehicles, and food. Recognizing means knowing <strong>more</strong> than these broad labels for a given image. But we always encourage you to <strong>make a guess</strong> if you can. Note that you are allowed to use <strong>Dutch and English</strong> in your answers, whatever comes easiest for you.</p><p>Press any key to continue.</p></div>","32","instructions","html-keyboard-response","4","244126","0.0-4.0","3695578","co38527","norming","","","","","","",""
"19137","<div style='word-wrap: break-word; width: 900px'><h3>Instructions</h3> <p>Next, the solution image will be revealed to you and you'll be asked to indicate how strong your <strong>aha-experience</strong> was after seeing the solution. This describes the positive feeling of the 'click' you sometimes experience, when the pieces of the 'puzzle' fall together and you suddenly have 'insight' in the image.</p><img src='aha.jpg' height='188' width='250'></img><p>Note that there are no right or wrong answers. We are interested in what <strong>you</strong> see in the image and how <strong>you</strong> feel about it.</p><p>Press any key to start the experiment.</p></div>","32","instructions","html-keyboard-response","5","263266","0.0-5.0","3695578","co38527","norming","","","","","","",""
"null","<div style=""font-size:60px;""> </div>","null","fixation","html-keyboard-response","6","263470","0.0-6.0-0.0","3695578","co38527","norming","","","","","","",""
"null","../img/tt/036tt.jpg","null","mooney1","image-keyboard-response","7","266475","0.0-6.0-1.0","3695578","co38527","norming","","","","","","",""
"10961","","","post_mooney1_questions","survey-likert","8","277438","0.0-6.0-2.0","3695578","co38527","norming","","","{""curiosity"":1,""confidence"":0}","[0,1]","../img/tt/036tt.jpg","",""
"4153","","","recognition","survey-text","9","281594","0.0-6.0-3.0","3695578","co38527","norming","","","{""guess"":""""}","","../img/tt/036tt.jpg","",""
"null","../img/gs/036gs.jpg","null","reveal","image-keyboard-response","10","283595","0.0-6.0-4.0","3695578","co38527","norming","","","","","","",""
"null","../img/tt/036tt.jpg","null","mooney2","image-keyboard-response","11","285601","0.0-6.0-5.0","3695578","co38527","norming","","","","","","",""
"4912","","","post_reveal_questions","survey-likert","12","290515","0.0-6.0-6.0","3695578","co38527","norming","","","{""aha"":1}","[0]","../img/tt/036tt.jpg","",""
"null","<div style=""font-size:60px;""> </div>","null","fixation","html-keyboard-response","13","290718","0.0-6.0-0.1","3695578","co38527","norming","","","","","","",""
"null","../img/tt/1125tt.jpg","null","mooney1","image-keyboard-response","14","293722","0.0-6.0-1.1","3695578","co38527","norming","","","","","","",""
"6264","","","post_mooney1_questions","survey-likert","15","299987","0.0-6.0-2.1","3695578","co38527","norming","","","{""curiosity"":1,""confidence"":1}","[0,1]","../img/tt/1125tt.jpg","",""
"8546","","","recognition","survey-text","16","308536","0.0-6.0-3.1","3695578","co38527","norming","","","{""guess"":""""}","","../img/tt/1125tt.jpg","",""
"null","../img/gs/1125gs.jpg","null","reveal","image-keyboard-response","17","310538","0.0-6.0-4.1","3695578","co38527","norming","","","","","","",""
"null","../img/tt/1125tt.jpg","null","mooney2","image-keyboard-response","18","312542","0.0-6.0-5.1","3695578","co38527","norming","","","","","","",""
"5412","","","post_reveal_questions","survey-likert","19","317955","0.0-6.0-6.1","3695578","co38527","norming","","","{""aha"":3}","[0]","../img/tt/1125tt.jpg","",""
"null","<div style=""font-size:60px;""> </div>","null","fixation","html-keyboard-response","20","318160","0.0-6.0-0.2","3695578","co38527","norming","","","","","","",""
"null","../img/tt/163tt.jpg","null","mooney1","image-keyboard-response","21","321165","0.0-6.0-1.2","3695578","co38527","norming","","","","","","",""
"7105","","","post_mooney1_questions","survey-likert","22","328271","0.0-6.0-2.2","3695578","co38527","norming","","","{""curiosity"":1,""confidence"":2}","[0,1]","../img/tt/163tt.jpg","",""
"4610","","","recognition","survey-text","23","332883","0.0-6.0-3.2","3695578","co38527","norming","","","{""guess"":""cheetah""}","","../img/tt/163tt.jpg","",""
"null","../img/gs/163gs.jpg","null","reveal","image-keyboard-response","24","334885","0.0-6.0-4.2","3695578","co38527","norming","","","","","","",""
"null","../img/tt/163tt.jpg","null","mooney2","image-keyboard-response","25","336888","0.0-6.0-5.2","3695578","co38527","norming","","","","","","",""
"3413","","","post_reveal_questions","survey-likert","26","340302","0.0-6.0-6.2","3695578","co38527","norming","","","{""aha"":4}","[0]","../img/tt/163tt.jpg","",""
"null","<div style=""font-size:60px;""> </div>","null","fixation","html-keyboard-response","27","340503","0.0-6.0-0.3","3695578","co38527","norming","","","","","","",""
"null","../img/tt/1143tt.jpg","null","mooney1","image-keyboard-response","28","343505","0.0-6.0-1.3","3695578","co38527","norming","","","","","","",""
"6054","","","post_mooney1_questions","survey-likert","29","349559","0.0-6.0-2.3","3695578","co38527","norming","","","{""curiosity"":2,""confidence"":2}","[0,1]","../img/tt/1143tt.jpg","",""
"6039","","","recognition","survey-text","30","355601","0.0-6.0-3.3","3695578","co38527","norming","","","{""guess"":""arcade game room""}","","../img/tt/1143tt.jpg","",""
"null","../img/gs/1143gs.jpg","null","reveal","image-keyboard-response","31","357605","0.0-6.0-4.3","3695578","co38527","norming","","","","","","",""
"null","../img/tt/1143tt.jpg","null","mooney2","image-keyboard-response","32","359608","0.0-6.0-5.3","3695578","co38527","norming","","","","","","",""
"4310","","","post_reveal_questions","survey-likert","33","363919","0.0-6.0-6.3","3695578","co38527","norming","","","{""aha"":1}","[0]","../img/tt/1143tt.jpg","",""
"null","<div style=""font-size:60px;""> </div>","null","fixation","html-keyboard-response","34","364124","0.0-6.0-0.4","3695578","co38527","norming","","","","","","",""
"null","../img/tt/1186tt.jpg","null","mooney1","image-keyboard-response","35","367125","0.0-6.0-1.4","3695578","co38527","norming","","","","","","",""
"4310","","","post_mooney1_questions","survey-likert","36","371435","0.0-6.0-2.4","3695578","co38527","norming","","","{""curiosity"":0,""confidence"":2}","[0,1]","../img/tt/1186tt.jpg","",""
"5571","","","recognition","survey-text","37","377008","0.0-6.0-3.4","3695578","co38527","norming","","","{""guess"":""soldier walking""}","","../img/tt/1186tt.jpg","",""
"null","../img/gs/1186gs.jpg","null","reveal","image-keyboard-response","38","379011","0.0-6.0-4.4","3695578","co38527","norming","","","","","","",""
"null","../img/tt/1186tt.jpg","null","mooney2","image-keyboard-response","39","381013","0.0-6.0-5.4","3695578","co38527","norming","","","","","","",""
"4130","","","post_reveal_questions","survey-likert","40","385145","0.0-6.0-6.4","3695578","co38527","norming","","","{""aha"":1}","[0]","../img/tt/1186tt.jpg","",""
"null","<div style=""font-size:60px;""> </div>","null","fixation","html-keyboard-response","41","385346","0.0-6.0-0.5","3695578","co38527","norming","","","","","","",""
"null","../img/tt/055tt.jpg","null","mooney1","image-keyboard-response","42","388350","0.0-6.0-1.5","3695578","co38527","norming","","","","","","",""
"4093","","","post_mooney1_questions","survey-likert","43","392446","0.0-6.0-2.5","3695578","co38527","norming","","","{""curiosity"":0,""confidence"":0}","[0,1]","../img/tt/055tt.jpg","",""
"781","","","recognition","survey-text","44","393229","0.0-6.0-3.5","3695578","co38527","norming","","","{""guess"":""""}","","../img/tt/055tt.jpg","",""
"null","../img/gs/055gs.jpg","null","reveal","image-keyboard-response","45","395232","0.0-6.0-4.5","3695578","co38527","norming","","","","","","",""
"null","../img/tt/055tt.jpg","null","mooney2","image-keyboard-response","46","397235","0.0-6.0-5.5","3695578","co38527","norming","","","","","","",""
"2407","","","post_reveal_questions","survey-likert","47","399643","0.0-6.0-6.5","3695578","co38527","norming","","","{""aha"":0}","[0]","../img/tt/055tt.jpg","",""
"null","<div style=""font-size:60px;""> </div>","null","fixation","html-keyboard-response","48","399844","0.0-6.0-0.6","3695578","co38527","norming","","","","","","",""
"null","../img/tt/080tt.jpg","null","mooney1","image-keyboard-response","49","402845","0.0-6.0-1.6","3695578","co38527","norming","","","","","","",""
"7548","","","post_mooney1_questions","survey-likert","50","410394","0.0-6.0-2.6","3695578","co38527","norming","","","{""curiosity"":0,""confidence"":1}","[0,1]","../img/tt/080tt.jpg","",""
"2750","","","recognition","survey-text","51","413147","0.0-6.0-3.6","3695578","co38527","norming","","","{""guess"":""egg""}","","../img/tt/080tt.jpg","",""
"null","../img/gs/080gs.jpg","null","reveal","image-keyboard-response","52","415152","0.0-6.0-4.6","3695578","co38527","norming","","","","","","",""
"null","../img/tt/080tt.jpg","null","mooney2","image-keyboard-response","53","417155","0.0-6.0-5.6","3695578","co38527","norming","","","","","","",""
"2422","","","post_reveal_questions","survey-likert","54","419577","0.0-6.0-6.6","3695578","co38527","norming","","","{""aha"":0}","[0]","../img/tt/080tt.jpg","",""
"null","<div style=""font-size:60px;""> </div>","null","fixation","html-keyboard-response","55","419778","0.0-6.0-0.7","3695578","co38527","norming","","","","","","",""
"null","../img/tt/1046tt.jpg","null","mooney1","image-keyboard-response","56","422779","0.0-6.0-1.7","3695578","co38527","norming","","","","","","",""
"3490","","","post_mooney1_questions","survey-likert","57","426269","0.0-6.0-2.7","3695578","co38527","norming","","","{""curiosity"":0,""confidence"":1}","[0,1]","../img/tt/1046tt.jpg","",""
"5082","","","recognition","survey-text","58","431354","0.0-6.0-3.7","3695578","co38527","norming","","","{""guess"":""food plate""}","","../img/tt/1046tt.jpg","",""
"null","../img/gs/1046gs.jpg","null","reveal","image-keyboard-response","59","433358","0.0-6.0-4.7","3695578","co38527","norming","","","","","","",""
"null","../img/tt/1046tt.jpg","null","mooney2","image-keyboard-response","60","435361","0.0-6.0-5.7","3695578","co38527","norming","","","","","","",""
"2397","","","post_reveal_questions","survey-likert","61","437761","0.0-6.0-6.7","3695578","co38527","norming","","","{""aha"":3}","[0]","../img/tt/1046tt.jpg","",""
"null","<div style=""font-size:60px;""> </div>","null","fixation","html-keyboard-response","62","437965","0.0-6.0-0.8","3695578","co38527","norming","","","","","","",""
"null","../img/tt/1053tt.jpg","null","mooney1","image-keyboard-response","63","440966","0.0-6.0-1.8","3695578","co38527","norming","","","","","","",""
"6167","","","post_mooney1_questions","survey-likert","64","447135","0.0-6.0-2.8","3695578","co38527","norming","","","{""curiosity"":1,""confidence"":1}","[0,1]","../img/tt/1053tt.jpg","",""
"3474","","","recognition","survey-text","65","450612","0.0-6.0-3.8","3695578","co38527","norming","","","{""guess"":""dog""}","","../img/tt/1053tt.jpg","",""
"null","../img/gs/1053gs.jpg","null","reveal","image-keyboard-response","66","452613","0.0-6.0-4.8","3695578","co38527","norming","","","","","","",""
"null","../img/tt/1053tt.jpg","null","mooney2","image-keyboard-response","67","454614","0.0-6.0-5.8","3695578","co38527","norming","","","","","","",""
"2600","","","post_reveal_questions","survey-likert","68","457215","0.0-6.0-6.8","3695578","co38527","norming","","","{""aha"":1}","[0]","../img/tt/1053tt.jpg","",""
"null","<div style=""font-size:60px;""> </div>","null","fixation","html-keyboard-response","69","457417","0.0-6.0-0.9","3695578","co38527","norming","","","","","","",""
"null","../img/tt/507tt.jpg","null","mooney1","image-keyboard-response","70","460418","0.0-6.0-1.9","3695578","co38527","norming","","","","","","",""
"3817","","","post_mooney1_questions","survey-likert","71","464238","0.0-6.0-2.9","3695578","co38527","norming","","","{""curiosity"":0,""confidence"":1}","[0,1]","../img/tt/507tt.jpg","",""
"6631","","","recognition","survey-text","72","470872","0.0-6.0-3.9","3695578","co38527","norming","","","{""guess"":""een non""}","","../img/tt/507tt.jpg","",""
"null","../img/gs/507gs.jpg","null","reveal","image-keyboard-response","73","472872","0.0-6.0-4.9","3695578","co38527","norming","","","","","","",""
"null","../img/tt/507tt.jpg","null","mooney2","image-keyboard-response","74","474875","0.0-6.0-5.9","3695578","co38527","norming","","","","","","",""
"4043","","","post_reveal_questions","survey-likert","75","478920","0.0-6.0-6.9","3695578","co38527","norming","","","{""aha"":0}","[0]","../img/tt/507tt.jpg","",""
"null","<div style=""font-size:60px;""> </div>","null","fixation","html-keyboard-response","76","479122","0.0-6.0-0.10","3695578","co38527","norming","","","","","","",""
"null","../img/tt/358tt.jpg","null","mooney1","image-keyboard-response","77","482123","0.0-6.0-1.10","3695578","co38527","norming","","","","","","",""
"4212","","","post_mooney1_questions","survey-likert","78","486335","0.0-6.0-2.10","3695578","co38527","norming","","","{""curiosity"":1,""confidence"":1}","[0,1]","../img/tt/358tt.jpg","",""
"2683","","","recognition","survey-text","79","489021","0.0-6.0-3.10","3695578","co38527","norming","","","{""guess"":""cow""}","","../img/tt/358tt.jpg","",""
"null","../img/gs/358gs.jpg","null","reveal","image-keyboard-response","80","491022","0.0-6.0-4.10","3695578","co38527","norming","","","","","","",""
"null","../img/tt/358tt.jpg","null","mooney2","image-keyboard-response","81","493024","0.0-6.0-5.10","3695578","co38527","norming","","","","","","",""
"3058","","","post_reveal_questions","survey-likert","82","496084","0.0-6.0-6.10","3695578","co38527","norming","","","{""aha"":1}","[0]","../img/tt/358tt.jpg","",""
"null","<div style=""font-size:60px;""> </div>","null","fixation","html-keyboard-response","83","496290","0.0-6.0-0.11","3695578","co38527","norming","","","","","","",""
"null","../img/tt/515tt.jpg","null","mooney1","image-keyboard-response","84","499291","0.0-6.0-1.11","3695578","co38527","norming","","","","","","",""
"3988","","","post_mooney1_questions","survey-likert","85","503281","0.0-6.0-2.11","3695578","co38527","norming","","","{""curiosity"":0,""confidence"":0}","[0,1]","../img/tt/515tt.jpg","",""
"1088","","","recognition","survey-text","86","504370","0.0-6.0-3.11","3695578","co38527","norming","","","{""guess"":""""}","","../img/tt/515tt.jpg","",""
"null","../img/gs/515gs.jpg","null","reveal","image-keyboard-response","87","506372","0.0-6.0-4.11","3695578","co38527","norming","","","","","","",""
"null","../img/tt/515tt.jpg","null","mooney2","image-keyboard-response","88","508376","0.0-6.0-5.11","3695578","co38527","norming","","","","","","",""
"1762","","","post_reveal_questions","survey-likert","89","510138","0.0-6.0-6.11","3695578","co38527","norming","","","{""aha"":0}","[0]","../img/tt/515tt.jpg","",""
"null","<div style=""font-size:60px;""> </div>","null","fixation","html-keyboard-response","90","510340","0.0-6.0-0.12","3695578","co38527","norming","","","","","","",""
"null","../img/tt/1048tt.jpg","null","mooney1","image-keyboard-response","91","513344","0.0-6.0-1.12","3695578","co38527","norming","","","","","","",""
"3649","","","post_mooney1_questions","survey-likert","92","516994","0.0-6.0-2.12","3695578","co38527","norming","","","{""curiosity"":0,""confidence"":0}","[0,1]","../img/tt/1048tt.jpg","",""
"1292","","","recognition","survey-text","93","518289","0.0-6.0-3.12","3695578","co38527","norming","","","{""guess"":""""}","","../img/tt/1048tt.jpg","",""
"null","../img/gs/1048gs.jpg","null","reveal","image-keyboard-response","94","520290","0.0-6.0-4.12","3695578","co38527","norming","","","","","","",""
"null","../img/tt/1048tt.jpg","null","mooney2","image-keyboard-response","95","522293","0.0-6.0-5.12","3695578","co38527","norming","","","","","","",""
"2031","","","post_reveal_questions","survey-likert","96","524325","0.0-6.0-6.12","3695578","co38527","norming","","","{""aha"":0}","[0]","../img/tt/1048tt.jpg","",""
"null","<div style=""font-size:60px;""> </div>","null","fixation","html-keyboard-response","97","524530","0.0-6.0-0.13","3695578","co38527","norming","","","","","","",""
"null","../img/tt/353tt.jpg","null","mooney1","image-keyboard-response","98","527531","0.0-6.0-1.13","3695578","co38527","norming","","","","","","",""
"3444","","","post_mooney1_questions","survey-likert","99","530977","0.0-6.0-2.13","3695578","co38527","norming","","","{""curiosity"":1,""confidence"":1}","[0,1]","../img/tt/353tt.jpg","",""
"3923","","","recognition","survey-text","100","534903","0.0-6.0-3.13","3695578","co38527","norming","","","{""guess"":""penguin""}","","../img/tt/353tt.jpg","",""
"null","../img/gs/353gs.jpg","null","reveal","image-keyboard-response","101","536903","0.0-6.0-4.13","3695578","co38527","norming","","","","","","",""
"null","../img/tt/353tt.jpg","null","mooney2","image-keyboard-response","102","538904","0.0-6.0-5.13","3695578","co38527","norming","","","","","","",""
"1545","","","post_reveal_questions","survey-likert","103","540451","0.0-6.0-6.13","3695578","co38527","norming","","","{""aha"":0}","[0]","../img/tt/353tt.jpg","",""
"null","<div style=""font-size:60px;""> </div>","null","fixation","html-keyboard-response","104","540655","0.0-6.0-0.14","3695578","co38527","norming","","","","","","",""
"null","../img/tt/031tt.jpg","null","mooney1","image-keyboard-response","105","543657","0.0-6.0-1.14","3695578","co38527","norming","","","","","","",""
"3711","","","post_mooney1_questions","survey-likert","106","547369","0.0-6.0-2.14","3695578","co38527","norming","","","{""curiosity"":1,""confidence"":3}","[0,1]","../img/tt/031tt.jpg","",""
"2823","","","recognition","survey-text","107","550194","0.0-6.0-3.14","3695578","co38527","norming","","","{""guess"":""bear""}","","../img/tt/031tt.jpg","",""
"null","../img/gs/031gs.jpg","null","reveal","image-keyboard-response","108","552196","0.0-6.0-4.14","3695578","co38527","norming","","","","","","",""
"null","../img/tt/031tt.jpg","null","mooney2","image-keyboard-response","109","554199","0.0-6.0-5.14","3695578","co38527","norming","","","","","","",""
"2883","","","post_reveal_questions","survey-likert","110","557083","0.0-6.0-6.14","3695578","co38527","norming","","","{""aha"":0}","[0]","../img/tt/031tt.jpg","",""
"null","<div style=""font-size:60px;""> </div>","null","fixation","html-keyboard-response","111","557285","0.0-6.0-0.15","3695578","co38527","norming","","","","","","",""
"null","../img/tt/405tt.jpg","null","mooney1","image-keyboard-response","112","560289","0.0-6.0-1.15","3695578","co38527","norming","","","","","","",""
"5178","","","post_mooney1_questions","survey-likert","113","565467","0.0-6.0-2.15","3695578","co38527","norming","","","{""curiosity"":2,""confidence"":3}","[0,1]","../img/tt/405tt.jpg","",""
"4089","","","recognition","survey-text","114","569558","0.0-6.0-3.15","3695578","co38527","norming","","","{""guess"":""koala""}","","../img/tt/405tt.jpg","",""
"null","../img/gs/405gs.jpg","null","reveal","image-keyboard-response","115","571562","0.0-6.0-4.15","3695578","co38527","norming","","","","","","",""
"null","../img/tt/405tt.jpg","null","mooney2","image-keyboard-response","116","573564","0.0-6.0-5.15","3695578","co38527","norming","","","","","","",""
"2771","","","post_reveal_questions","survey-likert","117","576337","0.0-6.0-6.15","3695578","co38527","norming","","","{""aha"":0}","[0]","../img/tt/405tt.jpg","",""
"null","<div style=""font-size:60px;""> </div>","null","fixation","html-keyboard-response","118","576539","0.0-6.0-0.16","3695578","co38527","norming","","","","","","",""
"null","../img/tt/222tt.jpg","null","mooney1","image-keyboard-response","119","579540","0.0-6.0-1.16","3695578","co38527","norming","","","","","","",""
"3398","","","post_mooney1_questions","survey-likert","120","582940","0.0-6.0-2.16","3695578","co38527","norming","","","{""curiosity"":0,""confidence"":0}","[0,1]","../img/tt/222tt.jpg","",""
"922","","","recognition","survey-text","121","583864","0.0-6.0-3.16","3695578","co38527","norming","","","{""guess"":""""}","","../img/tt/222tt.jpg","",""
"null","../img/gs/222gs.jpg","null","reveal","image-keyboard-response","122","585868","0.0-6.0-4.16","3695578","co38527","norming","","","","","","",""
"null","../img/tt/222tt.jpg","null","mooney2","image-keyboard-response","123","587870","0.0-6.0-5.16","3695578","co38527","norming","","","","","","",""
"8737","","","post_reveal_questions","survey-likert","124","596607","0.0-6.0-6.16","3695578","co38527","norming","","","{""aha"":0}","[0]","../img/tt/222tt.jpg","",""
"null","<div style=""font-size:60px;""> </div>","null","fixation","html-keyboard-response","125","596808","0.0-6.0-0.17","3695578","co38527","norming","","","","","","",""
"null","../img/tt/438tt.jpg","null","mooney1","image-keyboard-response","126","599811","0.0-6.0-1.17","3695578","co38527","norming","","","","","","",""
"6039","","","post_mooney1_questions","survey-likert","127","605851","0.0-6.0-2.17","3695578","co38527","norming","","","{""curiosity"":1,""confidence"":1}","[0,1]","../img/tt/438tt.jpg","",""
"3840","","","recognition","survey-text","128","609695","0.0-6.0-3.17","3695578","co38527","norming","","","{""guess"":""snake""}","","../img/tt/438tt.jpg","",""
"null","../img/gs/438gs.jpg","null","reveal","image-keyboard-response","129","611697","0.0-6.0-4.17","3695578","co38527","norming","","","","","","",""
"null","../img/tt/438tt.jpg","null","mooney2","image-keyboard-response","130","613699","0.0-6.0-5.17","3695578","co38527","norming","","","","","","",""
"2137","","","post_reveal_questions","survey-likert","131","615836","0.0-6.0-6.17","3695578","co38527","norming","","","{""aha"":0}","[0]","../img/tt/438tt.jpg","",""
"null","<div style=""font-size:60px;""> </div>","null","fixation","html-keyboard-response","132","616041","0.0-6.0-0.18","3695578","co38527","norming","","","","","","",""
"null","../img/tt/1027tt.jpg","null","mooney1","image-keyboard-response","133","619046","0.0-6.0-1.18","3695578","co38527","norming","","","","","","",""
"3389","","","post_mooney1_questions","survey-likert","134","622436","0.0-6.0-2.18","3695578","co38527","norming","","","{""curiosity"":2,""confidence"":3}","[0,1]","../img/tt/1027tt.jpg","",""
"3865","","","recognition","survey-text","135","626303","0.0-6.0-3.18","3695578","co38527","norming","","","{""guess"":""baby cow""}","","../img/tt/1027tt.jpg","",""
"null","../img/gs/1027gs.jpg","null","reveal","image-keyboard-response","136","628304","0.0-6.0-4.18","3695578","co38527","norming","","","","","","",""
"null","../img/tt/1027tt.jpg","null","mooney2","image-keyboard-response","137","630307","0.0-6.0-5.18","3695578","co38527","norming","","","","","","",""
"2996","","","post_reveal_questions","survey-likert","138","633306","0.0-6.0-6.18","3695578","co38527","norming","","","{""aha"":0}","[0]","../img/tt/1027tt.jpg","",""
"null","<div style=""font-size:60px;""> </div>","null","fixation","html-keyboard-response","139","633511","0.0-6.0-0.19","3695578","co38527","norming","","","","","","",""
"null","../img/tt/1171tt.jpg","null","mooney1","image-keyboard-response","140","636512","0.0-6.0-1.19","3695578","co38527","norming","","","","","","",""
"3707","","","post_mooney1_questions","survey-likert","141","640221","0.0-6.0-2.19","3695578","co38527","norming","","","{""curiosity"":0,""confidence"":0}","[0,1]","../img/tt/1171tt.jpg","",""
"902","","","recognition","survey-text","142","641125","0.0-6.0-3.19","3695578","co38527","norming","","","{""guess"":""""}","","../img/tt/1171tt.jpg","",""
"null","../img/gs/1171gs.jpg","null","reveal","image-keyboard-response","143","643129","0.0-6.0-4.19","3695578","co38527","norming","","","","","","",""
"null","../img/tt/1171tt.jpg","null","mooney2","image-keyboard-response","144","645136","0.0-6.0-5.19","3695578","co38527","norming","","","","","","",""
"2106","","","post_reveal_questions","survey-likert","145","647242","0.0-6.0-6.19","3695578","co38527","norming","","","{""aha"":0}","[0]","../img/tt/1171tt.jpg","",""
"null","<div style=""font-size:60px;""> </div>","null","fixation","html-keyboard-response","146","647446","0.0-6.0-0.20","3695578","co38527","norming","","","","","","",""
"null","../img/tt/084tt.jpg","null","mooney1","image-keyboard-response","147","650450","0.0-6.0-1.20","3695578","co38527","norming","","","","","","",""
"4904","","","post_mooney1_questions","survey-likert","148","655354","0.0-6.0-2.20","3695578","co38527","norming","","","{""curiosity"":1,""confidence"":5}","[0,1]","../img/tt/084tt.jpg","",""
"3833","","","recognition","survey-text","149","659189","0.0-6.0-3.20","3695578","co38527","norming","","","{""guess"":""duck""}","","../img/tt/084tt.jpg","",""
"null","../img/gs/084gs.jpg","null","reveal","image-keyboard-response","150","661190","0.0-6.0-4.20","3695578","co38527","norming","","","","","","",""
"null","../img/tt/084tt.jpg","null","mooney2","image-keyboard-response","151","663194","0.0-6.0-5.20","3695578","co38527","norming","","","","","","",""
"2200","","","post_reveal_questions","survey-likert","152","665396","0.0-6.0-6.20","3695578","co38527","norming","","","{""aha"":0}","[0]","../img/tt/084tt.jpg","",""
"null","<div style=""font-size:60px;""> </div>","null","fixation","html-keyboard-response","153","665600","0.0-6.0-0.21","3695578","co38527","norming","","","","","","",""
"null","../img/tt/140tt.jpg","null","mooney1","image-keyboard-response","154","668604","0.0-6.0-1.21","3695578","co38527","norming","","","","","","",""
"4012","","","post_mooney1_questions","survey-likert","155","672617","0.0-6.0-2.21","3695578","co38527","norming","","","{""curiosity"":1,""confidence"":5}","[0,1]","../img/tt/140tt.jpg","",""
"3190","","","recognition","survey-text","156","675809","0.0-6.0-3.21","3695578","co38527","norming","","","{""guess"":""two forks""}","","../img/tt/140tt.jpg","",""
"null","../img/gs/140gs.jpg","null","reveal","image-keyboard-response","157","677810","0.0-6.0-4.21","3695578","co38527","norming","","","","","","",""
"null","../img/tt/140tt.jpg","null","mooney2","image-keyboard-response","158","679814","0.0-6.0-5.21","3695578","co38527","norming","","","","","","",""
"2238","","","post_reveal_questions","survey-likert","159","682052","0.0-6.0-6.21","3695578","co38527","norming","","","{""aha"":0}","[0]","../img/tt/140tt.jpg","",""
"null","<div style=""font-size:60px;""> </div>","null","fixation","html-keyboard-response","160","682257","0.0-6.0-0.22","3695578","co38527","norming","","","","","","",""
"null","../img/tt/270tt.jpg","null","mooney1","image-keyboard-response","161","685259","0.0-6.0-1.22","3695578","co38527","norming","","","","","","",""
"3960","","","post_mooney1_questions","survey-likert","162","689221","0.0-6.0-2.22","3695578","co38527","norming","","","{""curiosity"":1,""confidence"":1}","[0,1]","../img/tt/270tt.jpg","",""
"6655","","","recognition","survey-text","163","695877","0.0-6.0-3.22","3695578","co38527","norming","","","{""guess"":""person with sombrero hat""}","","../img/tt/270tt.jpg","",""
"null","../img/gs/270gs.jpg","null","reveal","image-keyboard-response","164","697879","0.0-6.0-4.22","3695578","co38527","norming","","","","","","",""
"null","../img/tt/270tt.jpg","null","mooney2","image-keyboard-response","165","699881","0.0-6.0-5.22","3695578","co38527","norming","","","","","","",""
"3295","","","post_reveal_questions","survey-likert","166","703178","0.0-6.0-6.22","3695578","co38527","norming","","","{""aha"":1}","[0]","../img/tt/270tt.jpg","",""
"null","<div style=""font-size:60px;""> </div>","null","fixation","html-keyboard-response","167","703382","0.0-6.0-0.23","3695578","co38527","norming","","","","","","",""
"null","../img/tt/1175tt.jpg","null","mooney1","image-keyboard-response","168","706383","0.0-6.0-1.23","3695578","co38527","norming","","","","","","",""
"2897","","","post_mooney1_questions","survey-likert","169","709281","0.0-6.0-2.23","3695578","co38527","norming","","","{""curiosity"":0,""confidence"":0}","[0,1]","../img/tt/1175tt.jpg","",""
"1177","","","recognition","survey-text","170","710460","0.0-6.0-3.23","3695578","co38527","norming","","","{""guess"":""""}","","../img/tt/1175tt.jpg","",""
"null","../img/gs/1175gs.jpg","null","reveal","image-keyboard-response","171","712466","0.0-6.0-4.23","3695578","co38527","norming","","","","","","",""
"null","../img/tt/1175tt.jpg","null","mooney2","image-keyboard-response","172","714468","0.0-6.0-5.23","3695578","co38527","norming","","","","","","",""
"4538","","","post_reveal_questions","survey-likert","173","719009","0.0-6.0-6.23","3695578","co38527","norming","","","{""aha"":0}","[0]","../img/tt/1175tt.jpg","",""
"null","<div style=""font-size:60px;""> </div>","null","fixation","html-keyboard-response","174","719211","0.0-6.0-0.24","3695578","co38527","norming","","","","","","",""
"null","../img/tt/1260tt.jpg","null","mooney1","image-keyboard-response","175","722215","0.0-6.0-1.24","3695578","co38527","norming","","","","","","",""
"4977","","","post_mooney1_questions","survey-likert","176","727194","0.0-6.0-2.24","3695578","co38527","norming","","","{""curiosity"":1,""confidence"":0}","[0,1]","../img/tt/1260tt.jpg","",""
"996","","","recognition","survey-text","177","728191","0.0-6.0-3.24","3695578","co38527","norming","","","{""guess"":""""}","","../img/tt/1260tt.jpg","",""
"null","../img/gs/1260gs.jpg","null","reveal","image-keyboard-response","178","730194","0.0-6.0-4.24","3695578","co38527","norming","","","","","","",""
"null","../img/tt/1260tt.jpg","null","mooney2","image-keyboard-response","179","732198","0.0-6.0-5.24","3695578","co38527","norming","","","","","","",""
"27822","","","post_reveal_questions","survey-likert","180","760022","0.0-6.0-6.24","3695578","co38527","norming","","","{""aha"":0}","[0]","../img/tt/1260tt.jpg","",""
"null","<div style=""font-size:60px;""> </div>","null","fixation","html-keyboard-response","181","760226","0.0-6.0-0.25","3695578","co38527","norming","","","","","","",""
"null","../img/tt/1224tt.jpg","null","mooney1","image-keyboard-response","182","763230","0.0-6.0-1.25","3695578","co38527","norming","","","","","","",""
"6104","","","post_mooney1_questions","survey-likert","183","769335","0.0-6.0-2.25","3695578","co38527","norming","","","{""curiosity"":5,""confidence"":1}","[0,1]","../img/tt/1224tt.jpg","",""
"7616","","","recognition","survey-text","184","776953","0.0-6.0-3.25","3695578","co38527","norming","","","{""guess"":""person standing (screaming)""}","","../img/tt/1224tt.jpg","",""
"null","../img/gs/1224gs.jpg","null","reveal","image-keyboard-response","185","778955","0.0-6.0-4.25","3695578","co38527","norming","","","","","","",""
"null","../img/tt/1224tt.jpg","null","mooney2","image-keyboard-response","186","780958","0.0-6.0-5.25","3695578","co38527","norming","","","","","","",""
"2923","","","post_reveal_questions","survey-likert","187","783881","0.0-6.0-6.25","3695578","co38527","norming","","","{""aha"":1}","[0]","../img/tt/1224tt.jpg","",""
"null","<div style=""font-size:60px;""> </div>","null","fixation","html-keyboard-response","188","784084","0.0-6.0-0.26","3695578","co38527","norming","","","","","","",""
"null","../img/tt/079tt.jpg","null","mooney1","image-keyboard-response","189","787085","0.0-6.0-1.26","3695578","co38527","norming","","","","","","",""
"4412","","","post_mooney1_questions","survey-likert","190","791498","0.0-6.0-2.26","3695578","co38527","norming","","","{""curiosity"":1,""confidence"":1}","[0,1]","../img/tt/079tt.jpg","",""
"2981","","","recognition","survey-text","191","794482","0.0-6.0-3.26","3695578","co38527","norming","","","{""guess"":""bear""}","","../img/tt/079tt.jpg","",""
"null","../img/gs/079gs.jpg","null","reveal","image-keyboard-response","192","796486","0.0-6.0-4.26","3695578","co38527","norming","","","","","","",""
"null","../img/tt/079tt.jpg","null","mooney2","image-keyboard-response","193","798489","0.0-6.0-5.26","3695578","co38527","norming","","","","","","",""
"3086","","","post_reveal_questions","survey-likert","194","801576","0.0-6.0-6.26","3695578","co38527","norming","","","{""aha"":0}","[0]","../img/tt/079tt.jpg","",""
"null","<div style=""font-size:60px;""> </div>","null","fixation","html-keyboard-response","195","801779","0.0-6.0-0.27","3695578","co38527","norming","","","","","","",""
"null","../img/tt/082tt.jpg","null","mooney1","image-keyboard-response","196","804784","0.0-6.0-1.27","3695578","co38527","norming","","","","","","",""
"5105","","","post_mooney1_questions","survey-likert","197","809893","0.0-6.0-2.27","3695578","co38527","norming","","","{""curiosity"":0,""confidence"":1}","[0,1]","../img/tt/082tt.jpg","",""
"3832","","","recognition","survey-text","198","813727","0.0-6.0-3.27","3695578","co38527","norming","","","{""guess"":""parrot""}","","../img/tt/082tt.jpg","",""
"null","../img/gs/082gs.jpg","null","reveal","image-keyboard-response","199","815729","0.0-6.0-4.27","3695578","co38527","norming","","","","","","",""
"null","../img/tt/082tt.jpg","null","mooney2","image-keyboard-response","200","817734","0.0-6.0-5.27","3695578","co38527","norming","","","","","","",""
"3306","","","post_reveal_questions","survey-likert","201","821043","0.0-6.0-6.27","3695578","co38527","norming","","","{""aha"":1}","[0]","../img/tt/082tt.jpg","",""
"null","<div style=""font-size:60px;""> </div>","null","fixation","html-keyboard-response","202","821247","0.0-6.0-0.28","3695578","co38527","norming","","","","","","",""
"null","../img/tt/126tt.jpg","null","mooney1","image-keyboard-response","203","824252","0.0-6.0-1.28","3695578","co38527","norming","","","","","","",""
"3550","","","post_mooney1_questions","survey-likert","204","827805","0.0-6.0-2.28","3695578","co38527","norming","","","{""curiosity"":0,""confidence"":0}","[0,1]","../img/tt/126tt.jpg","",""
"1808","","","recognition","survey-text","205","829615","0.0-6.0-3.28","3695578","co38527","norming","","","{""guess"":""""}","","../img/tt/126tt.jpg","",""
"null","../img/gs/126gs.jpg","null","reveal","image-keyboard-response","206","831617","0.0-6.0-4.28","3695578","co38527","norming","","","","","","",""
"null","../img/tt/126tt.jpg","null","mooney2","image-keyboard-response","207","833620","0.0-6.0-5.28","3695578","co38527","norming","","","","","","",""
"3487","","","post_reveal_questions","survey-likert","208","837107","0.0-6.0-6.28","3695578","co38527","norming","","","{""aha"":2}","[0]","../img/tt/126tt.jpg","",""
"null","<div style=""font-size:60px;""> </div>","null","fixation","html-keyboard-response","209","837309","0.0-6.0-0.29","3695578","co38527","norming","","","","","","",""
"null","../img/tt/1154tt.jpg","null","mooney1","image-keyboard-response","210","840310","0.0-6.0-1.29","3695578","co38527","norming","","","","","","",""
"4186","","","post_mooney1_questions","survey-likert","211","844500","0.0-6.0-2.29","3695578","co38527","norming","","","{""curiosity"":0,""confidence"":0}","[0,1]","../img/tt/1154tt.jpg","",""
"3557","","","recognition","survey-text","212","848060","0.0-6.0-3.29","3695578","co38527","norming","","","{""guess"":""lake""}","","../img/tt/1154tt.jpg","",""
"null","../img/gs/1154gs.jpg","null","reveal","image-keyboard-response","213","850062","0.0-6.0-4.29","3695578","co38527","norming","","","","","","",""
"null","../img/tt/1154tt.jpg","null","mooney2","image-keyboard-response","214","852066","0.0-6.0-5.29","3695578","co38527","norming","","","","","","",""
"4488","","","post_reveal_questions","survey-likert","215","856555","0.0-6.0-6.29","3695578","co38527","norming","","","{""aha"":3}","[0]","../img/tt/1154tt.jpg","",""
"null","<div style=""font-size:60px;""> </div>","null","fixation","html-keyboard-response","216","856760","0.0-6.0-0.30","3695578","co38527","norming","","","","","","",""
"null","../img/tt/135tt.jpg","null","mooney1","image-keyboard-response","217","859762","0.0-6.0-1.30","3695578","co38527","norming","","","","","","",""
"3097","","","post_mooney1_questions","survey-likert","218","862861","0.0-6.0-2.30","3695578","co38527","norming","","","{""curiosity"":0,""confidence"":5}","[0,1]","../img/tt/135tt.jpg","",""
"7718","","","recognition","survey-text","219","870582","0.0-6.0-3.30","3695578","co38527","norming","","","{""guess"":""toilet""}","","../img/tt/135tt.jpg","",""
"null","../img/gs/135gs.jpg","null","reveal","image-keyboard-response","220","872587","0.0-6.0-4.30","3695578","co38527","norming","","","","","","",""
"null","../img/tt/135tt.jpg","null","mooney2","image-keyboard-response","221","874592","0.0-6.0-5.30","3695578","co38527","norming","","","","","","",""
"2360","","","post_reveal_questions","survey-likert","222","876953","0.0-6.0-6.30","3695578","co38527","norming","","","{""aha"":0}","[0]","../img/tt/135tt.jpg","",""
"null","<div style=""font-size:60px;""> </div>","null","fixation","html-keyboard-response","223","877155","0.0-6.0-0.31","3695578","co38527","norming","","","","","","",""
"null","../img/tt/010tt.jpg","null","mooney1","image-keyboard-response","224","880156","0.0-6.0-1.31","3695578","co38527","norming","","","","","","",""
"3571","","","post_mooney1_questions","survey-likert","225","883729","0.0-6.0-2.31","3695578","co38527","norming","","","{""curiosity"":0,""confidence"":1}","[0,1]","../img/tt/010tt.jpg","",""
"4443","","","recognition","survey-text","226","888175","0.0-6.0-3.31","3695578","co38527","norming","","","{""guess"":""trophee""}","","../img/tt/010tt.jpg","",""
"null","../img/gs/010gs.jpg","null","reveal","image-keyboard-response","227","890178","0.0-6.0-4.31","3695578","co38527","norming","","","","","","",""
"null","../img/tt/010tt.jpg","null","mooney2","image-keyboard-response","228","892184","0.0-6.0-5.31","3695578","co38527","norming","","","","","","",""
"3433","","","post_reveal_questions","survey-likert","229","895619","0.0-6.0-6.31","3695578","co38527","norming","","","{""aha"":1}","[0]","../img/tt/010tt.jpg","",""
"null","<div style=""font-size:60px;""> </div>","null","fixation","html-keyboard-response","230","895822","0.0-6.0-0.32","3695578","co38527","norming","","","","","","",""
"null","../img/tt/549tt.jpg","null","mooney1","image-keyboard-response","231","898823","0.0-6.0-1.32","3695578","co38527","norming","","","","","","",""
"2754","","","post_mooney1_questions","survey-likert","232","901580","0.0-6.0-2.32","3695578","co38527","norming","","","{""curiosity"":0,""confidence"":0}","[0,1]","../img/tt/549tt.jpg","",""
"855","","","recognition","survey-text","233","902438","0.0-6.0-3.32","3695578","co38527","norming","","","{""guess"":""""}","","../img/tt/549tt.jpg","",""
"null","../img/gs/549gs.jpg","null","reveal","image-keyboard-response","234","904441","0.0-6.0-4.32","3695578","co38527","norming","","","","","","",""
"null","../img/tt/549tt.jpg","null","mooney2","image-keyboard-response","235","906444","0.0-6.0-5.32","3695578","co38527","norming","","","","","","",""
"1694","","","post_reveal_questions","survey-likert","236","908140","0.0-6.0-6.32","3695578","co38527","norming","","","{""aha"":0}","[0]","../img/tt/549tt.jpg","",""
"null","<div style=""font-size:60px;""> </div>","null","fixation","html-keyboard-response","237","908342","0.0-6.0-0.33","3695578","co38527","norming","","","","","","",""
"null","../img/tt/301tt.jpg","null","mooney1","image-keyboard-response","238","911346","0.0-6.0-1.33","3695578","co38527","norming","","","","","","",""
"4248","","","post_mooney1_questions","survey-likert","239","915596","0.0-6.0-2.33","3695578","co38527","norming","","","{""curiosity"":0,""confidence"":0}","[0,1]","../img/tt/301tt.jpg","",""
"873","","","recognition","survey-text","240","916471","0.0-6.0-3.33","3695578","co38527","norming","","","{""guess"":""""}","","../img/tt/301tt.jpg","",""
"null","../img/gs/301gs.jpg","null","reveal","image-keyboard-response","241","918474","0.0-6.0-4.33","3695578","co38527","norming","","","","","","",""
"null","../img/tt/301tt.jpg","null","mooney2","image-keyboard-response","242","920476","0.0-6.0-5.33","3695578","co38527","norming","","","","","","",""
"2144","","","post_reveal_questions","survey-likert","243","922622","0.0-6.0-6.33","3695578","co38527","norming","","","{""aha"":1}","[0]","../img/tt/301tt.jpg","",""
"null","<div style=""font-size:60px;""> </div>","null","fixation","html-keyboard-response","244","922825","0.0-6.0-0.34","3695578","co38527","norming","","","","","","",""
"null","../img/tt/412tt.jpg","null","mooney1","image-keyboard-response","245","925826","0.0-6.0-1.34","3695578","co38527","norming","","","","","","",""
"3586","","","post_mooney1_questions","survey-likert","246","929414","0.0-6.0-2.34","3695578","co38527","norming","","","{""curiosity"":0,""confidence"":1}","[0,1]","../img/tt/412tt.jpg","",""
"4343","","","recognition","survey-text","247","933758","0.0-6.0-3.34","3695578","co38527","norming","","","{""guess"":""perfume bottle""}","","../img/tt/412tt.jpg","",""
"null","../img/gs/412gs.jpg","null","reveal","image-keyboard-response","248","935762","0.0-6.0-4.34","3695578","co38527","norming","","","","","","",""
"null","../img/tt/412tt.jpg","null","mooney2","image-keyboard-response","249","937767","0.0-6.0-5.34","3695578","co38527","norming","","","","","","",""
"3013","","","post_reveal_questions","survey-likert","250","940783","0.0-6.0-6.34","3695578","co38527","norming","","","{""aha"":2}","[0]","../img/tt/412tt.jpg","",""
"null","<div style=""font-size:60px;""> </div>","null","fixation","html-keyboard-response","251","940989","0.0-6.0-0.35","3695578","co38527","norming","","","","","","",""
"null","../img/tt/1190tt.jpg","null","mooney1","image-keyboard-response","252","943990","0.0-6.0-1.35","3695578","co38527","norming","","","","","","",""
"4952","","","post_mooney1_questions","survey-likert","253","948943","0.0-6.0-2.35","3695578","co38527","norming","","","{""curiosity"":0,""confidence"":1}","[0,1]","../img/tt/1190tt.jpg","",""
"3621","","","recognition","survey-text","254","952566","0.0-6.0-3.35","3695578","co38527","norming","","","{""guess"":""woods""}","","../img/tt/1190tt.jpg","",""
"null","../img/gs/1190gs.jpg","null","reveal","image-keyboard-response","255","954569","0.0-6.0-4.35","3695578","co38527","norming","","","","","","",""
"null","../img/tt/1190tt.jpg","null","mooney2","image-keyboard-response","256","956572","0.0-6.0-5.35","3695578","co38527","norming","","","","","","",""
"3021","","","post_reveal_questions","survey-likert","257","959595","0.0-6.0-6.35","3695578","co38527","norming","","","{""aha"":2}","[0]","../img/tt/1190tt.jpg","",""
"null","<div style=""font-size:60px;""> </div>","null","fixation","html-keyboard-response","258","959796","0.0-6.0-0.36","3695578","co38527","norming","","","","","","",""
"null","../img/tt/1227tt.jpg","null","mooney1","image-keyboard-response","259","962798","0.0-6.0-1.36","3695578","co38527","norming","","","","","","",""
"3990","","","post_mooney1_questions","survey-likert","260","966789","0.0-6.0-2.36","3695578","co38527","norming","","","{""curiosity"":1,""confidence"":1}","[0,1]","../img/tt/1227tt.jpg","",""
"6369","","","recognition","survey-text","261","973162","0.0-6.0-3.36","3695578","co38527","norming","","","{""guess"":""row of ducks""}","","../img/tt/1227tt.jpg","",""
"null","../img/gs/1227gs.jpg","null","reveal","image-keyboard-response","262","975162","0.0-6.0-4.36","3695578","co38527","norming","","","","","","",""
"null","../img/tt/1227tt.jpg","null","mooney2","image-keyboard-response","263","977165","0.0-6.0-5.36","3695578","co38527","norming","","","","","","",""
"2846","","","post_reveal_questions","survey-likert","264","980013","0.0-6.0-6.36","3695578","co38527","norming","","","{""aha"":3}","[0]","../img/tt/1227tt.jpg","",""
"null","<div style=""font-size:60px;""> </div>","null","fixation","html-keyboard-response","265","980216","0.0-6.0-0.37","3695578","co38527","norming","","","","","","",""
"null","../img/tt/1037tt.jpg","null","mooney1","image-keyboard-response","266","983216","0.0-6.0-1.37","3695578","co38527","norming","","","","","","",""
"3651","","","post_mooney1_questions","survey-likert","267","986870","0.0-6.0-2.37","3695578","co38527","norming","","","{""curiosity"":1,""confidence"":2}","[0,1]","../img/tt/1037tt.jpg","",""
"3010","","","recognition","survey-text","268","989882","0.0-6.0-3.37","3695578","co38527","norming","","","{""guess"":""dog""}","","../img/tt/1037tt.jpg","",""
"null","../img/gs/1037gs.jpg","null","reveal","image-keyboard-response","269","991888","0.0-6.0-4.37","3695578","co38527","norming","","","","","","",""
"null","../img/tt/1037tt.jpg","null","mooney2","image-keyboard-response","270","993892","0.0-6.0-5.37","3695578","co38527","norming","","","","","","",""
"3335","","","post_reveal_questions","survey-likert","271","997229","0.0-6.0-6.37","3695578","co38527","norming","","","{""aha"":0}","[0]","../img/tt/1037tt.jpg","",""
"null","<div style=""font-size:60px;""> </div>","null","fixation","html-keyboard-response","272","997433","0.0-6.0-0.38","3695578","co38527","norming","","","","","","",""
"null","../img/tt/580tt.jpg","null","mooney1","image-keyboard-response","273","1000434","0.0-6.0-1.38","3695578","co38527","norming","","","","","","",""
"2581","","","post_mooney1_questions","survey-likert","274","1003016","0.0-6.0-2.38","3695578","co38527","norming","","","{""curiosity"":0,""confidence"":0}","[0,1]","../img/tt/580tt.jpg","",""
"1501","","","recognition","survey-text","275","1004519","0.0-6.0-3.38","3695578","co38527","norming","","","{""guess"":""""}","","../img/tt/580tt.jpg","",""
"null","../img/gs/580gs.jpg","null","reveal","image-keyboard-response","276","1006520","0.0-6.0-4.38","3695578","co38527","norming","","","","","","",""
"null","../img/tt/580tt.jpg","null","mooney2","image-keyboard-response","277","1008526","0.0-6.0-5.38","3695578","co38527","norming","","","","","","",""
"9002","","","post_reveal_questions","survey-likert","278","1017529","0.0-6.0-6.38","3695578","co38527","norming","","","{""aha"":0}","[0]","../img/tt/580tt.jpg","",""
"null","<div style=""font-size:60px;""> </div>","null","fixation","html-keyboard-response","279","1017732","0.0-6.0-0.39","3695578","co38527","norming","","","","","","",""
"null","../img/tt/1130tt.jpg","null","mooney1","image-keyboard-response","280","1020733","0.0-6.0-1.39","3695578","co38527","norming","","","","","","",""
"4466","","","post_mooney1_questions","survey-likert","281","1025200","0.0-6.0-2.39","3695578","co38527","norming","","","{""curiosity"":1,""confidence"":2}","[0,1]","../img/tt/1130tt.jpg","",""
"15580","","","recognition","survey-text","282","1040781","0.0-6.0-3.39","3695578","co38527","norming","","","{""guess"":""person practacing sports""}","","../img/tt/1130tt.jpg","",""
"null","../img/gs/1130gs.jpg","null","reveal","image-keyboard-response","283","1042784","0.0-6.0-4.39","3695578","co38527","norming","","","","","","",""
"null","../img/tt/1130tt.jpg","null","mooney2","image-keyboard-response","284","1044787","0.0-6.0-5.39","3695578","co38527","norming","","","","","","",""
"120956","","","post_reveal_questions","survey-likert","285","1165743","0.0-6.0-6.39","3695578","co38527","norming","","","{""aha"":0}","[0]","../img/tt/1130tt.jpg","",""
"null","<div style=""font-size:60px;""> </div>","null","fixation","html-keyboard-response","286","1165948","0.0-6.0-0.40","3695578","co38527","norming","","","","","","",""
"null","../img/tt/1270tt.jpg","null","mooney1","image-keyboard-response","287","1168950","0.0-6.0-1.40","3695578","co38527","norming","","","","","","",""
"3882","","","post_mooney1_questions","survey-likert","288","1172835","0.0-6.0-2.40","3695578","co38527","norming","","","{""curiosity"":0,""confidence"":2}","[0,1]","../img/tt/1270tt.jpg","",""
"5426","","","recognition","survey-text","289","1178262","0.0-6.0-3.40","3695578","co38527","norming","","","{""guess"":""mouse""}","","../img/tt/1270tt.jpg","",""
"null","../img/gs/1270gs.jpg","null","reveal","image-keyboard-response","290","1180267","0.0-6.0-4.40","3695578","co38527","norming","","","","","","",""
"null","../img/tt/1270tt.jpg","null","mooney2","image-keyboard-response","291","1182269","0.0-6.0-5.40","3695578","co38527","norming","","","","","","",""
"4873","","","post_reveal_questions","survey-likert","292","1187143","0.0-6.0-6.40","3695578","co38527","norming","","","{""aha"":0}","[0]","../img/tt/1270tt.jpg","",""
"null","<div style=""font-size:60px;""> </div>","null","fixation","html-keyboard-response","293","1187346","0.0-6.0-0.41","3695578","co38527","norming","","","","","","",""
"null","../img/tt/1061tt.jpg","null","mooney1","image-keyboard-response","294","1190347","0.0-6.0-1.41","3695578","co38527","norming","","","","","","",""
"3669","","","post_mooney1_questions","survey-likert","295","1194017","0.0-6.0-2.41","3695578","co38527","norming","","","{""curiosity"":0,""confidence"":1}","[0,1]","../img/tt/1061tt.jpg","",""
"10039","","","recognition","survey-text","296","1204058","0.0-6.0-3.41","3695578","co38527","norming","","","{""guess"":""people or animals running""}","","../img/tt/1061tt.jpg","",""
"null","../img/gs/1061gs.jpg","null","reveal","image-keyboard-response","297","1206063","0.0-6.0-4.41","3695578","co38527","norming","","","","","","",""
"null","../img/tt/1061tt.jpg","null","mooney2","image-keyboard-response","298","1208066","0.0-6.0-5.41","3695578","co38527","norming","","","","","","",""
"2708","","","post_reveal_questions","survey-likert","299","1210775","0.0-6.0-6.41","3695578","co38527","norming","","","{""aha"":1}","[0]","../img/tt/1061tt.jpg","",""
"null","<div style=""font-size:60px;""> </div>","null","fixation","html-keyboard-response","300","1210980","0.0-6.0-0.42","3695578","co38527","norming","","","","","","",""
"null","../img/tt/044tt.jpg","null","mooney1","image-keyboard-response","301","1213981","0.0-6.0-1.42","3695578","co38527","norming","","","","","","",""
"8693","","","post_mooney1_questions","survey-likert","302","1222676","0.0-6.0-2.42","3695578","co38527","norming","","","{""curiosity"":0,""confidence"":0}","[0,1]","../img/tt/044tt.jpg","",""
"838","","","recognition","survey-text","303","1223517","0.0-6.0-3.42","3695578","co38527","norming","","","{""guess"":""""}","","../img/tt/044tt.jpg","",""
"null","../img/gs/044gs.jpg","null","reveal","image-keyboard-response","304","1225519","0.0-6.0-4.42","3695578","co38527","norming","","","","","","",""
"null","../img/tt/044tt.jpg","null","mooney2","image-keyboard-response","305","1227522","0.0-6.0-5.42","3695578","co38527","norming","","","","","","",""
"2219","","","post_reveal_questions","survey-likert","306","1229741","0.0-6.0-6.42","3695578","co38527","norming","","","{""aha"":1}","[0]","../img/tt/044tt.jpg","",""
"null","<div style=""font-size:60px;""> </div>","null","fixation","html-keyboard-response","307","1229942","0.0-6.0-0.43","3695578","co38527","norming","","","","","","",""
"null","../img/tt/380tt.jpg","null","mooney1","image-keyboard-response","308","1232944","0.0-6.0-1.43","3695578","co38527","norming","","","","","","",""
"5706","","","post_mooney1_questions","survey-likert","309","1238650","0.0-6.0-2.43","3695578","co38527","norming","","","{""curiosity"":0,""confidence"":2}","[0,1]","../img/tt/380tt.jpg","",""
"3488","","","recognition","survey-text","310","1242140","0.0-6.0-3.43","3695578","co38527","norming","","","{""guess"":""bird""}","","../img/tt/380tt.jpg","",""
"null","../img/gs/380gs.jpg","null","reveal","image-keyboard-response","311","1244144","0.0-6.0-4.43","3695578","co38527","norming","","","","","","",""
"null","../img/tt/380tt.jpg","null","mooney2","image-keyboard-response","312","1246146","0.0-6.0-5.43","3695578","co38527","norming","","","","","","",""
"2705","","","post_reveal_questions","survey-likert","313","1248852","0.0-6.0-6.43","3695578","co38527","norming","","","{""aha"":3}","[0]","../img/tt/380tt.jpg","",""
"null","<div style=""font-size:60px;""> </div>","null","fixation","html-keyboard-response","314","1249054","0.0-6.0-0.44","3695578","co38527","norming","","","","","","",""
"null","../img/tt/076tt.jpg","null","mooney1","image-keyboard-response","315","1252056","0.0-6.0-1.44","3695578","co38527","norming","","","","","","",""
"3360","","","post_mooney1_questions","survey-likert","316","1255418","0.0-6.0-2.44","3695578","co38527","norming","","","{""curiosity"":0,""confidence"":1}","[0,1]","../img/tt/076tt.jpg","",""
"6761","","","recognition","survey-text","317","1262184","0.0-6.0-3.44","3695578","co38527","norming","","","{""guess"":""rollerskates""}","","../img/tt/076tt.jpg","",""
"null","../img/gs/076gs.jpg","null","reveal","image-keyboard-response","318","1264187","0.0-6.0-4.44","3695578","co38527","norming","","","","","","",""
"null","../img/tt/076tt.jpg","null","mooney2","image-keyboard-response","319","1266190","0.0-6.0-5.44","3695578","co38527","norming","","","","","","",""
"2832","","","post_reveal_questions","survey-likert","320","1269025","0.0-6.0-6.44","3695578","co38527","norming","","","{""aha"":1}","[0]","../img/tt/076tt.jpg","",""
"null","<div style=""font-size:60px;""> </div>","null","fixation","html-keyboard-response","321","1269227","0.0-6.0-0.45","3695578","co38527","norming","","","","","","",""
"null","../img/tt/1217tt.jpg","null","mooney1","image-keyboard-response","322","1272231","0.0-6.0-1.45","3695578","co38527","norming","","","","","","",""
"3692","","","post_mooney1_questions","survey-likert","323","1275926","0.0-6.0-2.45","3695578","co38527","norming","","","{""curiosity"":0,""confidence"":1}","[0,1]","../img/tt/1217tt.jpg","",""
"6818","","","recognition","survey-text","324","1282746","0.0-6.0-3.45","3695578","co38527","norming","","","{""guess"":""rugby  players""}","","../img/tt/1217tt.jpg","",""
"null","../img/gs/1217gs.jpg","null","reveal","image-keyboard-response","325","1284749","0.0-6.0-4.45","3695578","co38527","norming","","","","","","",""
"null","../img/tt/1217tt.jpg","null","mooney2","image-keyboard-response","326","1286755","0.0-6.0-5.45","3695578","co38527","norming","","","","","","",""
"2658","","","post_reveal_questions","survey-likert","327","1289415","0.0-6.0-6.45","3695578","co38527","norming","","","{""aha"":1}","[0]","../img/tt/1217tt.jpg","",""
"null","<div style=""font-size:60px;""> </div>","null","fixation","html-keyboard-response","328","1289617","0.0-6.0-0.46","3695578","co38527","norming","","","","","","",""
"null","../img/tt/1055tt.jpg","null","mooney1","image-keyboard-response","329","1292618","0.0-6.0-1.46","3695578","co38527","norming","","","","","","",""
"3775","","","post_mooney1_questions","survey-likert","330","1296393","0.0-6.0-2.46","3695578","co38527","norming","","","{""curiosity"":0,""confidence"":1}","[0,1]","../img/tt/1055tt.jpg","",""
"6104","","","recognition","survey-text","331","1302499","0.0-6.0-3.46","3695578","co38527","norming","","","{""guess"":""water tunnel""}","","../img/tt/1055tt.jpg","",""
"null","../img/gs/1055gs.jpg","null","reveal","image-keyboard-response","332","1304505","0.0-6.0-4.46","3695578","co38527","norming","","","","","","",""
"null","../img/tt/1055tt.jpg","null","mooney2","image-keyboard-response","333","1306509","0.0-6.0-5.46","3695578","co38527","norming","","","","","","",""
"2261","","","post_reveal_questions","survey-likert","334","1308772","0.0-6.0-6.46","3695578","co38527","norming","","","{""aha"":2}","[0]","../img/tt/1055tt.jpg","",""
"null","<div style=""font-size:60px;""> </div>","null","fixation","html-keyboard-response","335","1308973","0.0-6.0-0.47","3695578","co38527","norming","","","","","","",""
"null","../img/tt/1033tt.jpg","null","mooney1","image-keyboard-response","336","1311974","0.0-6.0-1.47","3695578","co38527","norming","","","","","","",""
"4216","","","post_mooney1_questions","survey-likert","337","1316192","0.0-6.0-2.47","3695578","co38527","norming","","","{""curiosity"":1,""confidence"":1}","[0,1]","../img/tt/1033tt.jpg","",""
"9784","","","recognition","survey-text","338","1325977","0.0-6.0-3.47","3695578","co38527","norming","","","{""guess"":""people playing sports""}","","../img/tt/1033tt.jpg","",""
"null","../img/gs/1033gs.jpg","null","reveal","image-keyboard-response","339","1327980","0.0-6.0-4.47","3695578","co38527","norming","","","","","","",""
"null","../img/tt/1033tt.jpg","null","mooney2","image-keyboard-response","340","1329984","0.0-6.0-5.47","3695578","co38527","norming","","","","","","",""
"4858","","","post_reveal_questions","survey-likert","341","1334844","0.0-6.0-6.47","3695578","co38527","norming","","","{""aha"":0}","[0]","../img/tt/1033tt.jpg","",""
"null","<div style=""font-size:60px;""> </div>","null","fixation","html-keyboard-response","342","1335046","0.0-6.0-0.48","3695578","co38527","norming","","","","","","",""
"null","../img/tt/477tt.jpg","null","mooney1","image-keyboard-response","343","1338047","0.0-6.0-1.48","3695578","co38527","norming","","","","","","",""
"3307","","","post_mooney1_questions","survey-likert","344","1341356","0.0-6.0-2.48","3695578","co38527","norming","","","{""curiosity"":0,""confidence"":0}","[0,1]","../img/tt/477tt.jpg","",""
"1046","","","recognition","survey-text","345","1342403","0.0-6.0-3.48","3695578","co38527","norming","","","{""guess"":""""}","","../img/tt/477tt.jpg","",""
"null","../img/gs/477gs.jpg","null","reveal","image-keyboard-response","346","1344406","0.0-6.0-4.48","3695578","co38527","norming","","","","","","",""
"null","../img/tt/477tt.jpg","null","mooney2","image-keyboard-response","347","1346408","0.0-6.0-5.48","3695578","co38527","norming","","","","","","",""
"65364","","","post_reveal_questions","survey-likert","348","1411774","0.0-6.0-6.48","3695578","co38527","norming","","","{""aha"":1}","[0]","../img/tt/477tt.jpg","",""
"null","<div style=""font-size:60px;""> </div>","null","fixation","html-keyboard-response","349","1411981","0.0-6.0-0.49","3695578","co38527","norming","","","","","","",""
"null","../img/tt/517tt.jpg","null","mooney1","image-keyboard-response","350","1414985","0.0-6.0-1.49","3695578","co38527","norming","","","","","","",""
"4996","","","post_mooney1_questions","survey-likert","351","1419984","0.0-6.0-2.49","3695578","co38527","norming","","","{""curiosity"":2,""confidence"":1}","[0,1]","../img/tt/517tt.jpg","",""
"3847","","","recognition","survey-text","352","1423835","0.0-6.0-3.49","3695578","co38527","norming","","","{""guess"":""panda""}","","../img/tt/517tt.jpg","",""
"null","../img/gs/517gs.jpg","null","reveal","image-keyboard-response","353","1425840","0.0-6.0-4.49","3695578","co38527","norming","","","","","","",""
"null","../img/tt/517tt.jpg","null","mooney2","image-keyboard-response","354","1427842","0.0-6.0-5.49","3695578","co38527","norming","","","","","","",""
"2323","","","post_reveal_questions","survey-likert","355","1430166","0.0-6.0-6.49","3695578","co38527","norming","","","{""aha"":2}","[0]","../img/tt/517tt.jpg","",""
"null","<div style=""font-size:60px;""> </div>","null","fixation","html-keyboard-response","356","1430368","0.0-6.0-0.50","3695578","co38527","norming","","","","","","",""
"null","../img/tt/1278tt.jpg","null","mooney1","image-keyboard-response","357","1433372","0.0-6.0-1.50","3695578","co38527","norming","","","","","","",""
"4733","","","post_mooney1_questions","survey-likert","358","1438107","0.0-6.0-2.50","3695578","co38527","norming","","","{""curiosity"":1,""confidence"":2}","[0,1]","../img/tt/1278tt.jpg","",""
"2725","","","recognition","survey-text","359","1440834","0.0-6.0-3.50","3695578","co38527","norming","","","{""guess"":""dog""}","","../img/tt/1278tt.jpg","",""
"null","../img/gs/1278gs.jpg","null","reveal","image-keyboard-response","360","1442837","0.0-6.0-4.50","3695578","co38527","norming","","","","","","",""
"null","../img/tt/1278tt.jpg","null","mooney2","image-keyboard-response","361","1444840","0.0-6.0-5.50","3695578","co38527","norming","","","","","","",""
"3621","","","post_reveal_questions","survey-likert","362","1448466","0.0-6.0-6.50","3695578","co38527","norming","","","{""aha"":1}","[0]","../img/tt/1278tt.jpg","",""
"null","<div style=""font-size:60px;""> </div>","null","fixation","html-keyboard-response","363","1448671","0.0-6.0-0.51","3695578","co38527","norming","","","","","","",""
"null","../img/tt/406tt.jpg","null","mooney1","image-keyboard-response","364","1451677","0.0-6.0-1.51","3695578","co38527","norming","","","","","","",""
"6073","","","post_mooney1_questions","survey-likert","365","1457753","0.0-6.0-2.51","3695578","co38527","norming","","","{""curiosity"":1,""confidence"":2}","[0,1]","../img/tt/406tt.jpg","",""
"6913","","","recognition","survey-text","366","1464669","0.0-6.0-3.51","3695578","co38527","norming","","","{""guess"":""cookie monster""}","","../img/tt/406tt.jpg","",""
"null","../img/gs/406gs.jpg","null","reveal","image-keyboard-response","367","1466675","0.0-6.0-4.51","3695578","co38527","norming","","","","","","",""
"null","../img/tt/406tt.jpg","null","mooney2","image-keyboard-response","368","1468677","0.0-6.0-5.51","3695578","co38527","norming","","","","","","",""
"30428","","","post_reveal_questions","survey-likert","369","1499106","0.0-6.0-6.51","3695578","co38527","norming","","","{""aha"":2}","[0]","../img/tt/406tt.jpg","",""
"null","<div style=""font-size:60px;""> </div>","null","fixation","html-keyboard-response","370","1499308","0.0-6.0-0.52","3695578","co38527","norming","","","","","","",""
"null","../img/tt/1123tt.jpg","null","mooney1","image-keyboard-response","371","1502312","0.0-6.0-1.52","3695578","co38527","norming","","","","","","",""
"5426","","","post_mooney1_questions","survey-likert","372","1507741","0.0-6.0-2.52","3695578","co38527","norming","","","{""curiosity"":1,""confidence"":2}","[0,1]","../img/tt/1123tt.jpg","",""
"7736","","","recognition","survey-text","373","1515482","0.0-6.0-3.52","3695578","co38527","norming","","","{""guess"":""dog catching ball""}","","../img/tt/1123tt.jpg","",""
"null","../img/gs/1123gs.jpg","null","reveal","image-keyboard-response","374","1517485","0.0-6.0-4.52","3695578","co38527","norming","","","","","","",""
"null","../img/tt/1123tt.jpg","null","mooney2","image-keyboard-response","375","1519488","0.0-6.0-5.52","3695578","co38527","norming","","","","","","",""
"3502","","","post_reveal_questions","survey-likert","376","1522992","0.0-6.0-6.52","3695578","co38527","norming","","","{""aha"":2}","[0]","../img/tt/1123tt.jpg","",""
"null","<div style=""font-size:60px;""> </div>","null","fixation","html-keyboard-response","377","1523197","0.0-6.0-0.53","3695578","co38527","norming","","","","","","",""
"null","../img/tt/1070tt.jpg","null","mooney1","image-keyboard-response","378","1526198","0.0-6.0-1.53","3695578","co38527","norming","","","","","","",""
"6249","","","post_mooney1_questions","survey-likert","379","1532448","0.0-6.0-2.53","3695578","co38527","norming","","","{""curiosity"":0,""confidence"":0}","[0,1]","../img/tt/1070tt.jpg","",""
"925","","","recognition","survey-text","380","1533377","0.0-6.0-3.53","3695578","co38527","norming","","","{""guess"":""""}","","../img/tt/1070tt.jpg","",""
"null","../img/gs/1070gs.jpg","null","reveal","image-keyboard-response","381","1535381","0.0-6.0-4.53","3695578","co38527","norming","","","","","","",""
"null","../img/tt/1070tt.jpg","null","mooney2","image-keyboard-response","382","1537387","0.0-6.0-5.53","3695578","co38527","norming","","","","","","",""
"116202","","","post_reveal_questions","survey-likert","383","1653593","0.0-6.0-6.53","3695578","co38527","norming","","","{""aha"":0}","[0]","../img/tt/1070tt.jpg","",""
"null","<div style=""font-size:60px;""> </div>","null","fixation","html-keyboard-response","384","1653795","0.0-6.0-0.54","3695578","co38527","norming","","","","","","",""
"null","../img/tt/418tt.jpg","null","mooney1","image-keyboard-response","385","1656800","0.0-6.0-1.54","3695578","co38527","norming","","","","","","",""
"12534","","","post_mooney1_questions","survey-likert","386","1669337","0.0-6.0-2.54","3695578","co38527","norming","","","{""curiosity"":0,""confidence"":0}","[0,1]","../img/tt/418tt.jpg","",""
"1582","","","recognition","survey-text","387","1670922","0.0-6.0-3.54","3695578","co38527","norming","","","{""guess"":""""}","","../img/tt/418tt.jpg","",""
"null","../img/gs/418gs.jpg","null","reveal","image-keyboard-response","388","1672925","0.0-6.0-4.54","3695578","co38527","norming","","","","","","",""
"null","../img/tt/418tt.jpg","null","mooney2","image-keyboard-response","389","1674929","0.0-6.0-5.54","3695578","co38527","norming","","","","","","",""
"3334","","","post_reveal_questions","survey-likert","390","1678264","0.0-6.0-6.54","3695578","co38527","norming","","","{""aha"":0}","[0]","../img/tt/418tt.jpg","",""
"null","<div style=""font-size:60px;""> </div>","null","fixation","html-keyboard-response","391","1678466","0.0-6.0-0.55","3695578","co38527","norming","","","","","","",""
"null","../img/tt/1069tt.jpg","null","mooney1","image-keyboard-response","392","1681471","0.0-6.0-1.55","3695578","co38527","norming","","","","","","",""
"5277","","","post_mooney1_questions","survey-likert","393","1686748","0.0-6.0-2.55","3695578","co38527","norming","","","{""curiosity"":0,""confidence"":3}","[0,1]","../img/tt/1069tt.jpg","",""
"4656","","","recognition","survey-text","394","1691406","0.0-6.0-3.55","3695578","co38527","norming","","","{""guess"":""goat""}","","../img/tt/1069tt.jpg","",""
"null","../img/gs/1069gs.jpg","null","reveal","image-keyboard-response","395","1693408","0.0-6.0-4.55","3695578","co38527","norming","","","","","","",""
"null","../img/tt/1069tt.jpg","null","mooney2","image-keyboard-response","396","1695414","0.0-6.0-5.55","3695578","co38527","norming","","","","","","",""
"10212","","","post_reveal_questions","survey-likert","397","1705627","0.0-6.0-6.55","3695578","co38527","norming","","","{""aha"":1}","[0]","../img/tt/1069tt.jpg","",""
"null","<div style=""font-size:60px;""> </div>","null","fixation","html-keyboard-response","398","1705831","0.0-6.0-0.56","3695578","co38527","norming","","","","","","",""
"null","../img/tt/329tt.jpg","null","mooney1","image-keyboard-response","399","1708835","0.0-6.0-1.56","3695578","co38527","norming","","","","","","",""
"3257","","","post_mooney1_questions","survey-likert","400","1712093","0.0-6.0-2.56","3695578","co38527","norming","","","{""curiosity"":0,""confidence"":0}","[0,1]","../img/tt/329tt.jpg","",""
"1352","","","recognition","survey-text","401","1713446","0.0-6.0-3.56","3695578","co38527","norming","","","{""guess"":""""}","","../img/tt/329tt.jpg","",""
"null","../img/gs/329gs.jpg","null","reveal","image-keyboard-response","402","1715452","0.0-6.0-4.56","3695578","co38527","norming","","","","","","",""
"null","../img/tt/329tt.jpg","null","mooney2","image-keyboard-response","403","1717455","0.0-6.0-5.56","3695578","co38527","norming","","","","","","",""
"5311","","","post_reveal_questions","survey-likert","404","1722768","0.0-6.0-6.56","3695578","co38527","norming","","","{""aha"":0}","[0]","../img/tt/329tt.jpg","",""
"null","<div style=""font-size:60px;""> </div>","null","fixation","html-keyboard-response","405","1722972","0.0-6.0-0.57","3695578","co38527","norming","","","","","","",""
"null","../img/tt/1236tt.jpg","null","mooney1","image-keyboard-response","406","1725973","0.0-6.0-1.57","3695578","co38527","norming","","","","","","",""
"4376","","","post_mooney1_questions","survey-likert","407","1730352","0.0-6.0-2.57","3695578","co38527","norming","","","{""curiosity"":0,""confidence"":1}","[0,1]","../img/tt/1236tt.jpg","",""
"3176","","","recognition","survey-text","408","1733529","0.0-6.0-3.57","3695578","co38527","norming","","","{""guess"":""bird""}","","../img/tt/1236tt.jpg","",""
"null","../img/gs/1236gs.jpg","null","reveal","image-keyboard-response","409","1735533","0.0-6.0-4.57","3695578","co38527","norming","","","","","","",""
"null","../img/tt/1236tt.jpg","null","mooney2","image-keyboard-response","410","1737537","0.0-6.0-5.57","3695578","co38527","norming","","","","","","",""
"4479","","","post_reveal_questions","survey-likert","411","1742018","0.0-6.0-6.57","3695578","co38527","norming","","","{""aha"":1}","[0]","../img/tt/1236tt.jpg","",""
"null","<div style=""font-size:60px;""> </div>","null","fixation","html-keyboard-response","412","1742221","0.0-6.0-0.58","3695578","co38527","norming","","","","","","",""
"null","../img/tt/1012tt.jpg","null","mooney1","image-keyboard-response","413","1745223","0.0-6.0-1.58","3695578","co38527","norming","","","","","","",""
"3490","","","post_mooney1_questions","survey-likert","414","1748715","0.0-6.0-2.58","3695578","co38527","norming","","","{""curiosity"":1,""confidence"":1}","[0,1]","../img/tt/1012tt.jpg","",""
"2712","","","recognition","survey-text","415","1751429","0.0-6.0-3.58","3695578","co38527","norming","","","{""guess"":""horse""}","","../img/tt/1012tt.jpg","",""
"null","../img/gs/1012gs.jpg","null","reveal","image-keyboard-response","416","1753434","0.0-6.0-4.58","3695578","co38527","norming","","","","","","",""
"null","../img/tt/1012tt.jpg","null","mooney2","image-keyboard-response","417","1755439","0.0-6.0-5.58","3695578","co38527","norming","","","","","","",""
"2749","","","post_reveal_questions","survey-likert","418","1758189","0.0-6.0-6.58","3695578","co38527","norming","","","{""aha"":2}","[0]","../img/tt/1012tt.jpg","",""
"null","<div style=""font-size:60px;""> </div>","null","fixation","html-keyboard-response","419","1758391","0.0-6.0-0.59","3695578","co38527","norming","","","","","","",""
"null","../img/tt/1156tt.jpg","null","mooney1","image-keyboard-response","420","1761395","0.0-6.0-1.59","3695578","co38527","norming","","","","","","",""
"2948","","","post_mooney1_questions","survey-likert","421","1764347","0.0-6.0-2.59","3695578","co38527","norming","","","{""curiosity"":0,""confidence"":0}","[0,1]","../img/tt/1156tt.jpg","",""
"731","","","recognition","survey-text","422","1765080","0.0-6.0-3.59","3695578","co38527","norming","","","{""guess"":""""}","","../img/tt/1156tt.jpg","",""
"null","../img/gs/1156gs.jpg","null","reveal","image-keyboard-response","423","1767082","0.0-6.0-4.59","3695578","co38527","norming","","","","","","",""
"null","../img/tt/1156tt.jpg","null","mooney2","image-keyboard-response","424","1769087","0.0-6.0-5.59","3695578","co38527","norming","","","","","","",""
"2430","","","post_reveal_questions","survey-likert","425","1771518","0.0-6.0-6.59","3695578","co38527","norming","","","{""aha"":0}","[0]","../img/tt/1156tt.jpg","",""
"null","<div style=""font-size:60px;""> </div>","null","fixation","html-keyboard-response","426","1771719","0.0-6.0-0.60","3695578","co38527","norming","","","","","","",""
"null","../img/tt/552tt.jpg","null","mooney1","image-keyboard-response","427","1774720","0.0-6.0-1.60","3695578","co38527","norming","","","","","","",""
"3271","","","post_mooney1_questions","survey-likert","428","1777993","0.0-6.0-2.60","3695578","co38527","norming","","","{""curiosity"":1,""confidence"":3}","[0,1]","../img/tt/552tt.jpg","",""
"8764","","","recognition","survey-text","429","1786758","0.0-6.0-3.60","3695578","co38527","norming","","","{""guess"":""stinkdier""}","","../img/tt/552tt.jpg","",""
"null","../img/gs/552gs.jpg","null","reveal","image-keyboard-response","430","1788759","0.0-6.0-4.60","3695578","co38527","norming","","","","","","",""
"null","../img/tt/552tt.jpg","null","mooney2","image-keyboard-response","431","1790760","0.0-6.0-5.60","3695578","co38527","norming","","","","","","",""
"2774","","","post_reveal_questions","survey-likert","432","1793536","0.0-6.0-6.60","3695578","co38527","norming","","","{""aha"":0}","[0]","../img/tt/552tt.jpg","",""
"null","<div style=""font-size:60px;""> </div>","null","fixation","html-keyboard-response","433","1793737","0.0-6.0-0.61","3695578","co38527","norming","","","","","","",""
"null","../img/tt/1087tt.jpg","null","mooney1","image-keyboard-response","434","1796741","0.0-6.0-1.61","3695578","co38527","norming","","","","","","",""
"3477","","","post_mooney1_questions","survey-likert","435","1800220","0.0-6.0-2.61","3695578","co38527","norming","","","{""curiosity"":0,""confidence"":1}","[0,1]","../img/tt/1087tt.jpg","",""
"3562","","","recognition","survey-text","436","1803784","0.0-6.0-3.61","3695578","co38527","norming","","","{""guess"":""cows""}","","../img/tt/1087tt.jpg","",""
"null","../img/gs/1087gs.jpg","null","reveal","image-keyboard-response","437","1805785","0.0-6.0-4.61","3695578","co38527","norming","","","","","","",""
"null","../img/tt/1087tt.jpg","null","mooney2","image-keyboard-response","438","1807787","0.0-6.0-5.61","3695578","co38527","norming","","","","","","",""
"3839","","","post_reveal_questions","survey-likert","439","1811626","0.0-6.0-6.61","3695578","co38527","norming","","","{""aha"":1}","[0]","../img/tt/1087tt.jpg","",""
"null","<div style=""font-size:60px;""> </div>","null","fixation","html-keyboard-response","440","1811831","0.0-6.0-0.62","3695578","co38527","norming","","","","","","",""
"null","../img/tt/1096tt.jpg","null","mooney1","image-keyboard-response","441","1814832","0.0-6.0-1.62","3695578","co38527","norming","","","","","","",""
"8266","","","post_mooney1_questions","survey-likert","442","1823100","0.0-6.0-2.62","3695578","co38527","norming","","","{""curiosity"":3,""confidence"":1}","[0,1]","../img/tt/1096tt.jpg","",""
"4556","","","recognition","survey-text","443","1827659","0.0-6.0-3.62","3695578","co38527","norming","","","{""guess"":""living room""}","","../img/tt/1096tt.jpg","",""
"null","../img/gs/1096gs.jpg","null","reveal","image-keyboard-response","444","1829661","0.0-6.0-4.62","3695578","co38527","norming","","","","","","",""
"null","../img/tt/1096tt.jpg","null","mooney2","image-keyboard-response","445","1831662","0.0-6.0-5.62","3695578","co38527","norming","","","","","","",""
"3763","","","post_reveal_questions","survey-likert","446","1835426","0.0-6.0-6.62","3695578","co38527","norming","","","{""aha"":1}","[0]","../img/tt/1096tt.jpg","",""
"null","<div style=""font-size:60px;""> </div>","null","fixation","html-keyboard-response","447","1835628","0.0-6.0-0.63","3695578","co38527","norming","","","","","","",""
"null","../img/tt/1228tt.jpg","null","mooney1","image-keyboard-response","448","1838632","0.0-6.0-1.63","3695578","co38527","norming","","","","","","",""
"4138","","","post_mooney1_questions","survey-likert","449","1842772","0.0-6.0-2.63","3695578","co38527","norming","","","{""curiosity"":0,""confidence"":0}","[0,1]","../img/tt/1228tt.jpg","",""
"1028","","","recognition","survey-text","450","1843802","0.0-6.0-3.63","3695578","co38527","norming","","","{""guess"":""""}","","../img/tt/1228tt.jpg","",""
"null","../img/gs/1228gs.jpg","null","reveal","image-keyboard-response","451","1845806","0.0-6.0-4.63","3695578","co38527","norming","","","","","","",""
"null","../img/tt/1228tt.jpg","null","mooney2","image-keyboard-response","452","1847809","0.0-6.0-5.63","3695578","co38527","norming","","","","","","",""
"2646","","","post_reveal_questions","survey-likert","453","1850457","0.0-6.0-6.63","3695578","co38527","norming","","","{""aha"":0}","[0]","../img/tt/1228tt.jpg","",""
"null","<div style=""font-size:60px;""> </div>","null","fixation","html-keyboard-response","454","1850659","0.0-6.0-0.64","3695578","co38527","norming","","","","","","",""
"null","../img/tt/1196tt.jpg","null","mooney1","image-keyboard-response","455","1853663","0.0-6.0-1.64","3695578","co38527","norming","","","","","","",""
"3099","","","post_mooney1_questions","survey-likert","456","1856765","0.0-6.0-2.64","3695578","co38527","norming","","","{""curiosity"":0,""confidence"":1}","[0,1]","../img/tt/1196tt.jpg","",""
"7455","","","recognition","survey-text","457","1864222","0.0-6.0-3.64","3695578","co38527","norming","","","{""guess"":""people building house""}","","../img/tt/1196tt.jpg","",""
"null","../img/gs/1196gs.jpg","null","reveal","image-keyboard-response","458","1866222","0.0-6.0-4.64","3695578","co38527","norming","","","","","","",""
"null","../img/tt/1196tt.jpg","null","mooney2","image-keyboard-response","459","1868226","0.0-6.0-5.64","3695578","co38527","norming","","","","","","",""
"2027","","","post_reveal_questions","survey-likert","460","1870255","0.0-6.0-6.64","3695578","co38527","norming","","","{""aha"":2}","[0]","../img/tt/1196tt.jpg","",""
"null","<div style=""font-size:60px;""> </div>","null","fixation","html-keyboard-response","461","1870456","0.0-6.0-0.65","3695578","co38527","norming","","","","","","",""
"null","../img/tt/524tt.jpg","null","mooney1","image-keyboard-response","462","1873459","0.0-6.0-1.65","3695578","co38527","norming","","","","","","",""
"4715","","","post_mooney1_questions","survey-likert","463","1878175","0.0-6.0-2.65","3695578","co38527","norming","","","{""curiosity"":1,""confidence"":0}","[0,1]","../img/tt/524tt.jpg","",""
"749","","","recognition","survey-text","464","1878926","0.0-6.0-3.65","3695578","co38527","norming","","","{""guess"":""""}","","../img/tt/524tt.jpg","",""
"null","../img/gs/524gs.jpg","null","reveal","image-keyboard-response","465","1880929","0.0-6.0-4.65","3695578","co38527","norming","","","","","","",""
"null","../img/tt/524tt.jpg","null","mooney2","image-keyboard-response","466","1882932","0.0-6.0-5.65","3695578","co38527","norming","","","","","","",""
"3812","","","post_reveal_questions","survey-likert","467","1886746","0.0-6.0-6.65","3695578","co38527","norming","","","{""aha"":2}","[0]","../img/tt/524tt.jpg","",""
"null","<div style=""font-size:60px;""> </div>","null","fixation","html-keyboard-response","468","1886950","0.0-6.0-0.66","3695578","co38527","norming","","","","","","",""
"null","../img/tt/1089tt.jpg","null","mooney1","image-keyboard-response","469","1889951","0.0-6.0-1.66","3695578","co38527","norming","","","","","","",""
"4960","","","post_mooney1_questions","survey-likert","470","1894912","0.0-6.0-2.66","3695578","co38527","norming","","","{""curiosity"":0,""confidence"":5}","[0,1]","../img/tt/1089tt.jpg","",""
"6358","","","recognition","survey-text","471","1901272","0.0-6.0-3.66","3695578","co38527","norming","","","{""guess"":""olifanten""}","","../img/tt/1089tt.jpg","",""
"null","../img/gs/1089gs.jpg","null","reveal","image-keyboard-response","472","1903276","0.0-6.0-4.66","3695578","co38527","norming","","","","","","",""
"null","../img/tt/1089tt.jpg","null","mooney2","image-keyboard-response","473","1905279","0.0-6.0-5.66","3695578","co38527","norming","","","","","","",""
"3383","","","post_reveal_questions","survey-likert","474","1908665","0.0-6.0-6.66","3695578","co38527","norming","","","{""aha"":0}","[0]","../img/tt/1089tt.jpg","",""
"null","<div style=""font-size:60px;""> </div>","null","fixation","html-keyboard-response","475","1908865","0.0-6.0-0.67","3695578","co38527","norming","","","","","","",""
"null","../img/tt/1128tt.jpg","null","mooney1","image-keyboard-response","476","1911870","0.0-6.0-1.67","3695578","co38527","norming","","","","","","",""
"3086","","","post_mooney1_questions","survey-likert","477","1914956","0.0-6.0-2.67","3695578","co38527","norming","","","{""curiosity"":0,""confidence"":0}","[0,1]","../img/tt/1128tt.jpg","",""
"2551","","","recognition","survey-text","478","1917510","0.0-6.0-3.67","3695578","co38527","norming","","","{""guess"":""""}","","../img/tt/1128tt.jpg","",""
"null","../img/gs/1128gs.jpg","null","reveal","image-keyboard-response","479","1919512","0.0-6.0-4.67","3695578","co38527","norming","","","","","","",""
"null","../img/tt/1128tt.jpg","null","mooney2","image-keyboard-response","480","1921514","0.0-6.0-5.67","3695578","co38527","norming","","","","","","",""
"3616","","","post_reveal_questions","survey-likert","481","1925132","0.0-6.0-6.67","3695578","co38527","norming","","","{""aha"":2}","[0]","../img/tt/1128tt.jpg","",""
"null","<div style=""font-size:60px;""> </div>","null","fixation","html-keyboard-response","482","1925334","0.0-6.0-0.68","3695578","co38527","norming","","","","","","",""
"null","../img/tt/1363tt.jpg","null","mooney1","image-keyboard-response","483","1928335","0.0-6.0-1.68","3695578","co38527","norming","","","","","","",""
"3781","","","post_mooney1_questions","survey-likert","484","1932118","0.0-6.0-2.68","3695578","co38527","norming","","","{""curiosity"":0,""confidence"":0}","[0,1]","../img/tt/1363tt.jpg","",""
"732","","","recognition","survey-text","485","1932850","0.0-6.0-3.68","3695578","co38527","norming","","","{""guess"":""""}","","../img/tt/1363tt.jpg","",""
"null","../img/gs/1363gs.jpg","null","reveal","image-keyboard-response","486","1934854","0.0-6.0-4.68","3695578","co38527","norming","","","","","","",""
"null","../img/tt/1363tt.jpg","null","mooney2","image-keyboard-response","487","1936857","0.0-6.0-5.68","3695578","co38527","norming","","","","","","",""
"3355","","","post_reveal_questions","survey-likert","488","1940213","0.0-6.0-6.68","3695578","co38527","norming","","","{""aha"":4}","[0]","../img/tt/1363tt.jpg","",""
"null","<div style=""font-size:60px;""> </div>","null","fixation","html-keyboard-response","489","1940416","0.0-6.0-0.69","3695578","co38527","norming","","","","","","",""
"null","../img/tt/273tt.jpg","null","mooney1","image-keyboard-response","490","1943417","0.0-6.0-1.69","3695578","co38527","norming","","","","","","",""
"4555","","","post_mooney1_questions","survey-likert","491","1947971","0.0-6.0-2.69","3695578","co38527","norming","","","{""curiosity"":1,""confidence"":4}","[0,1]","../img/tt/273tt.jpg","",""
"8177","","","recognition","survey-text","492","1956151","0.0-6.0-3.69","3695578","co38527","norming","","","{""guess"":""tong uitsteken""}","","../img/tt/273tt.jpg","",""
"null","../img/gs/273gs.jpg","null","reveal","image-keyboard-response","493","1958152","0.0-6.0-4.69","3695578","co38527","norming","","","","","","",""
"null","../img/tt/273tt.jpg","null","mooney2","image-keyboard-response","494","1960155","0.0-6.0-5.69","3695578","co38527","norming","","","","","","",""
"3523","","","post_reveal_questions","survey-likert","495","1963679","0.0-6.0-6.69","3695578","co38527","norming","","","{""aha"":1}","[0]","../img/tt/273tt.jpg","",""
"null","<div style=""font-size:60px;""> </div>","null","fixation","html-keyboard-response","496","1963881","0.0-6.0-0.70","3695578","co38527","norming","","","","","","",""
"null","../img/tt/440tt.jpg","null","mooney1","image-keyboard-response","497","1966885","0.0-6.0-1.70","3695578","co38527","norming","","","","","","",""
"5182","","","post_mooney1_questions","survey-likert","498","1972068","0.0-6.0-2.70","3695578","co38527","norming","","","{""curiosity"":1,""confidence"":1}","[0,1]","../img/tt/440tt.jpg","",""
"5099","","","recognition","survey-text","499","1977169","0.0-6.0-3.70","3695578","co38527","norming","","","{""guess"":""horse jumping""}","","../img/tt/440tt.jpg","",""
"null","../img/gs/440gs.jpg","null","reveal","image-keyboard-response","500","1979175","0.0-6.0-4.70","3695578","co38527","norming","","","","","","",""
"null","../img/tt/440tt.jpg","null","mooney2","image-keyboard-response","501","1981180","0.0-6.0-5.70","3695578","co38527","norming","","","","","","",""
"3485","","","post_reveal_questions","survey-likert","502","1984667","0.0-6.0-6.70","3695578","co38527","norming","","","{""aha"":1}","[0]","../img/tt/440tt.jpg","",""
"null","<div style=""font-size:60px;""> </div>","null","fixation","html-keyboard-response","503","1984869","0.0-6.0-0.71","3695578","co38527","norming","","","","","","",""
"null","../img/tt/599tt.jpg","null","mooney1","image-keyboard-response","504","1987870","0.0-6.0-1.71","3695578","co38527","norming","","","","","","",""
"4744","","","post_mooney1_questions","survey-likert","505","1992617","0.0-6.0-2.71","3695578","co38527","norming","","","{""curiosity"":1,""confidence"":1}","[0,1]","../img/tt/599tt.jpg","",""
"2588","","","recognition","survey-text","506","1995207","0.0-6.0-3.71","3695578","co38527","norming","","","{""guess"":""owl""}","","../img/tt/599tt.jpg","",""
"null","../img/gs/599gs.jpg","null","reveal","image-keyboard-response","507","1997211","0.0-6.0-4.71","3695578","co38527","norming","","","","","","",""
"null","../img/tt/599tt.jpg","null","mooney2","image-keyboard-response","508","1999213","0.0-6.0-5.71","3695578","co38527","norming","","","","","","",""
"4527","","","post_reveal_questions","survey-likert","509","2003741","0.0-6.0-6.71","3695578","co38527","norming","","","{""aha"":1}","[0]","../img/tt/599tt.jpg","",""
"null","<div style=""font-size:60px;""> </div>","null","fixation","html-keyboard-response","510","2003944","0.0-6.0-0.72","3695578","co38527","norming","","","","","","",""
"null","../img/tt/1353tt.jpg","null","mooney1","image-keyboard-response","511","2006945","0.0-6.0-1.72","3695578","co38527","norming","","","","","","",""
"77524","","","post_mooney1_questions","survey-likert","512","2084468","0.0-6.0-2.72","3695578","co38527","norming","","","{""curiosity"":0,""confidence"":0}","[0,1]","../img/tt/1353tt.jpg","",""
"1303","","","recognition","survey-text","513","2085775","0.0-6.0-3.72","3695578","co38527","norming","","","{""guess"":""""}","","../img/tt/1353tt.jpg","",""
"null","../img/gs/1353gs.jpg","null","reveal","image-keyboard-response","514","2087778","0.0-6.0-4.72","3695578","co38527","norming","","","","","","",""
"null","../img/tt/1353tt.jpg","null","mooney2","image-keyboard-response","515","2089781","0.0-6.0-5.72","3695578","co38527","norming","","","","","","",""
"85384","","","post_reveal_questions","survey-likert","516","2175166","0.0-6.0-6.72","3695578","co38527","norming","","","{""aha"":0}","[0]","../img/tt/1353tt.jpg","",""
"null","<div style=""font-size:60px;""> </div>","null","fixation","html-keyboard-response","517","2175368","0.0-6.0-0.73","3695578","co38527","norming","","","","","","",""
"null","../img/tt/1247tt.jpg","null","mooney1","image-keyboard-response","518","2178375","0.0-6.0-1.73","3695578","co38527","norming","","","","","","",""
"4000","","","post_mooney1_questions","survey-likert","519","2182379","0.0-6.0-2.73","3695578","co38527","norming","","","{""curiosity"":1,""confidence"":3}","[0,1]","../img/tt/1247tt.jpg","",""
"10243","","","recognition","survey-text","520","2192626","0.0-6.0-3.73","3695578","co38527","norming","","","{""guess"":""slapende leeuwin""}","","../img/tt/1247tt.jpg","",""
"null","../img/gs/1247gs.jpg","null","reveal","image-keyboard-response","521","2194632","0.0-6.0-4.73","3695578","co38527","norming","","","","","","",""
"null","../img/tt/1247tt.jpg","null","mooney2","image-keyboard-response","522","2196635","0.0-6.0-5.73","3695578","co38527","norming","","","","","","",""
"2702","","","post_reveal_questions","survey-likert","523","2199338","0.0-6.0-6.73","3695578","co38527","norming","","","{""aha"":1}","[0]","../img/tt/1247tt.jpg","",""
"null","<div style=""font-size:60px;""> </div>","null","fixation","html-keyboard-response","524","2199543","0.0-6.0-0.74","3695578","co38527","norming","","","","","","",""
"null","../img/tt/1080tt.jpg","null","mooney1","image-keyboard-response","525","2202548","0.0-6.0-1.74","3695578","co38527","norming","","","","","","",""
"4375","","","post_mooney1_questions","survey-likert","526","2206925","0.0-6.0-2.74","3695578","co38527","norming","","","{""curiosity"":2,""confidence"":1}","[0,1]","../img/tt/1080tt.jpg","",""
"7810","","","recognition","survey-text","527","2214741","0.0-6.0-3.74","3695578","co38527","norming","","","{""guess"":""naked woman""}","","../img/tt/1080tt.jpg","",""
"null","../img/gs/1080gs.jpg","null","reveal","image-keyboard-response","528","2216745","0.0-6.0-4.74","3695578","co38527","norming","","","","","","",""
"null","../img/tt/1080tt.jpg","null","mooney2","image-keyboard-response","529","2218747","0.0-6.0-5.74","3695578","co38527","norming","","","","","","",""
"4805","","","post_reveal_questions","survey-likert","530","2223554","0.0-6.0-6.74","3695578","co38527","norming","","","{""aha"":2}","[0]","../img/tt/1080tt.jpg","",""
"null","<div style=""font-size:60px;""> </div>","null","fixation","html-keyboard-response","531","2223755","0.0-6.0-0.75","3695578","co38527","norming","","","","","","",""
"null","../img/tt/123tt.jpg","null","mooney1","image-keyboard-response","532","2226757","0.0-6.0-1.75","3695578","co38527","norming","","","","","","",""
"3975","","","post_mooney1_questions","survey-likert","533","2230734","0.0-6.0-2.75","3695578","co38527","norming","","","{""curiosity"":0,""confidence"":1}","[0,1]","../img/tt/123tt.jpg","",""
"4895","","","recognition","survey-text","534","2235634","0.0-6.0-3.75","3695578","co38527","norming","","","{""guess"":""handtas""}","","../img/tt/123tt.jpg","",""
"null","../img/gs/123gs.jpg","null","reveal","image-keyboard-response","535","2237638","0.0-6.0-4.75","3695578","co38527","norming","","","","","","",""
"null","../img/tt/123tt.jpg","null","mooney2","image-keyboard-response","536","2239643","0.0-6.0-5.75","3695578","co38527","norming","","","","","","",""
"3232","","","post_reveal_questions","survey-likert","537","2242876","0.0-6.0-6.75","3695578","co38527","norming","","","{""aha"":1}","[0]","../img/tt/123tt.jpg","",""
"null","<div style=""font-size:60px;""> </div>","null","fixation","html-keyboard-response","538","2243080","0.0-6.0-0.76","3695578","co38527","norming","","","","","","",""
"null","../img/tt/020tt.jpg","null","mooney1","image-keyboard-response","539","2246084","0.0-6.0-1.76","3695578","co38527","norming","","","","","","",""
"2507","","","post_mooney1_questions","survey-likert","540","2248593","0.0-6.0-2.76","3695578","co38527","norming","","","{""curiosity"":0,""confidence"":1}","[0,1]","../img/tt/020tt.jpg","",""
"2667","","","recognition","survey-text","541","2251263","0.0-6.0-3.76","3695578","co38527","norming","","","{""guess"":""dog""}","","../img/tt/020tt.jpg","",""
"null","../img/gs/020gs.jpg","null","reveal","image-keyboard-response","542","2253267","0.0-6.0-4.76","3695578","co38527","norming","","","","","","",""
"null","../img/tt/020tt.jpg","null","mooney2","image-keyboard-response","543","2255270","0.0-6.0-5.76","3695578","co38527","norming","","","","","","",""
"3029","","","post_reveal_questions","survey-likert","544","2258302","0.0-6.0-6.76","3695578","co38527","norming","","","{""aha"":0}","[0]","../img/tt/020tt.jpg","",""
"null","<div style=""font-size:60px;""> </div>","null","fixation","html-keyboard-response","545","2258503","0.0-6.0-0.77","3695578","co38527","norming","","","","","","",""
"null","../img/tt/1254tt.jpg","null","mooney1","image-keyboard-response","546","2261505","0.0-6.0-1.77","3695578","co38527","norming","","","","","","",""
"3913","","","post_mooney1_questions","survey-likert","547","2265419","0.0-6.0-2.77","3695578","co38527","norming","","","{""curiosity"":1,""confidence"":1}","[0,1]","../img/tt/1254tt.jpg","",""
"3034","","","recognition","survey-text","548","2268455","0.0-6.0-3.77","3695578","co38527","norming","","","{""guess"":""rabbit""}","","../img/tt/1254tt.jpg","",""
"null","../img/gs/1254gs.jpg","null","reveal","image-keyboard-response","549","2270461","0.0-6.0-4.77","3695578","co38527","norming","","","","","","",""
"null","../img/tt/1254tt.jpg","null","mooney2","image-keyboard-response","550","2272464","0.0-6.0-5.77","3695578","co38527","norming","","","","","","",""
"3143","","","post_reveal_questions","survey-likert","551","2275608","0.0-6.0-6.77","3695578","co38527","norming","","","{""aha"":2}","[0]","../img/tt/1254tt.jpg","",""
"null","<div style=""font-size:60px;""> </div>","null","fixation","html-keyboard-response","552","2275810","0.0-6.0-0.78","3695578","co38527","norming","","","","","","",""
"null","../img/tt/105tt.jpg","null","mooney1","image-keyboard-response","553","2278814","0.0-6.0-1.78","3695578","co38527","norming","","","","","","",""
"3835","","","post_mooney1_questions","survey-likert","554","2282650","0.0-6.0-2.78","3695578","co38527","norming","","","{""curiosity"":1,""confidence"":2}","[0,1]","../img/tt/105tt.jpg","",""
"5389","","","recognition","survey-text","555","2288041","0.0-6.0-3.78","3695578","co38527","norming","","","{""guess"":""paperclips""}","","../img/tt/105tt.jpg","",""
"null","../img/gs/105gs.jpg","null","reveal","image-keyboard-response","556","2290044","0.0-6.0-4.78","3695578","co38527","norming","","","","","","",""
"null","../img/tt/105tt.jpg","null","mooney2","image-keyboard-response","557","2292049","0.0-6.0-5.78","3695578","co38527","norming","","","","","","",""
"2369","","","post_reveal_questions","survey-likert","558","2294422","0.0-6.0-6.78","3695578","co38527","norming","","","{""aha"":1}","[0]","../img/tt/105tt.jpg","",""
"null","<div style=""font-size:60px;""> </div>","null","fixation","html-keyboard-response","559","2294627","0.0-6.0-0.79","3695578","co38527","norming","","","","","","",""
"null","../img/tt/497tt.jpg","null","mooney1","image-keyboard-response","560","2297631","0.0-6.0-1.79","3695578","co38527","norming","","","","","","",""
"3600","","","post_mooney1_questions","survey-likert","561","2301233","0.0-6.0-2.79","3695578","co38527","norming","","","{""curiosity"":0,""confidence"":1}","[0,1]","../img/tt/497tt.jpg","",""
"2683","","","recognition","survey-text","562","2303919","0.0-6.0-3.79","3695578","co38527","norming","","","{""guess"":""tank""}","","../img/tt/497tt.jpg","",""
"null","../img/gs/497gs.jpg","null","reveal","image-keyboard-response","563","2305920","0.0-6.0-4.79","3695578","co38527","norming","","","","","","",""
"null","../img/tt/497tt.jpg","null","mooney2","image-keyboard-response","564","2307924","0.0-6.0-5.79","3695578","co38527","norming","","","","","","",""
"22274","","","post_reveal_questions","survey-likert","565","2330200","0.0-6.0-6.79","3695578","co38527","norming","","","{""aha"":1}","[0]","../img/tt/497tt.jpg","",""
"8388","<div style='word-wrap: break-word; width: 900px'><h3>Part 2</h3><p>You completed the first phase of the experiment.</p><p>In the next phase you will again see a series of distorted images, some of which you have already encountered in the previous phase.</p><p>You will be asked to indicate whether the image was an old or a new one (one not seen in the previous phase) and subsequently to recognize what is depicted if you can.</p><p>Press any key to start the new phase</p></div>","32","instructions","html-keyboard-response","566","2338589","0.0-7.0","3695578","co38527","norming","","","","","","",""
"null","<div style=""font-size:60px;""> </div>","null","fixation","html-keyboard-response","567","2338791","0.0-8.0-0.0","3695578","co38527","norming","","","","","","",""
