"rt","stimulus","key_press","test_part","trial_type","trial_index","time_elapsed","internal_node_id","totalTime","subject","experiment_name","button_pressed","success","responses","question_order","currentStim","old","correct"
"5597.504999954253","Welcome to the experiment. This is an online experiment so please don't close the tab/window until we say goodbye.  Press any key to begin.","32","instructions","html-keyboard-response","0","5645","0.0-0.0","3249239","co38038","norming","","","","","","",""
"11680.859999731183","<div style='word-wrap: break-word; width: 900px'><h3>Please consider this information carefully before deciding whether to participate in this research</h3><ul style='text-align: left; font-size: .8em;'><li><b>Purpose of the research</b>: To examine how people process images.</li><li><b>What you will do in this research</b>:  Stimuli (images) will be presented on the computer and you will be asked different questions about them.</li><li><b>Time required</b>: Participation will take between 45 and 60 minutes to complete.</li><li><b>Risks</b>:  There are no anticipated risks associated with participating in this study. The effects of participating should be comparable to those you would experience from viewing a computer monitor for 30 minutes and using a mouse or keyboard.</li><li><b>Benefits</b>:  This study provides no benefits to you individually except for the credit. The study provides important information about the nature of perception and learning.</li><li><b>Confidentiality</b>:  Your participation in this study will remain confidential. No personally identifiable information will be associated with your data. Your de-identified data may be shared with other researchers and used in future projects.</li><li><b>Participation and withdrawal</b>:  Your participation in this study is completely voluntary and you may refuse to participate or you may choose to withdraw at any time without penalty.</li><li><b>How to contact the researchers</b>: If you have questions or concerns about your participation or payment, or want to request a summary of research findings, please contact Sander Van de Cruys (KU Leuven), at sander.vandecruys@kuleuven.be.</li></ul><p>The nature and purpose of this research have been sufficiently explained and I agree to participate in this study.  I understand that I am free to withdraw at any time without incurring any penalty.</p><p>Please consent by clicking the button below to continue. Otherwise, please exit the study at this time.</p></div>","","instructions","html-button-response","1","17330","0.0-1.0","3249239","co38038","norming","0","","","","","",""
"","","","instructions","fullscreen","2","21998","0.0-2.0","3249239","co38038","norming","","true","","","","",""
"44353.42499986291","","","sona","survey-html-form","3","66356","0.0-3.0","3249239","co38038","norming","","","[{""name"":""sonaid"",""value"":""38038""},{""name"":""debrief"",""value"":""yes""},{""name"":""datajoin"",""value"":""yes""}]","","","",""
"64598.40500028804","<div style='word-wrap: break-word; width: 900px'><h3>Instructions</h3><p>This experiment will have 3 parts. In the first part you will see a series of distorted images like the one below on the left. As you can see in the righthand image, the distorted images are derived from actual photographs. In what follows, you will <strong>briefly</strong> be presented with <strong>only</strong> the distorted image.</p> <div style='float: left; margin-right: 20px;'><img src='../img/018tt.jpg' height='250' width='250'></img></div><div style='float: right; margin-left: 20px;'><img src='../img/018gs.jpg' height='250' width='250'></img></div><p>Subsequently you will be asked a few questions about the image: One question on how <strong>curious</strong> you are about the solution and one on how <strong>confident</strong> you are that you know the solution.</p>Next, we ask you to make a guess on what is in the image. Note that it is OK to name just the <strong>basic level category</strong>. For example when you see a parrot in the image, 'parrot' will obviously be a correct answer but also correct is 'bird'. However, 'animal' will <strong>not</strong> be counted as a correct response. For the example above, 'rose' would be correct or 'flower', but not 'plant'. When soccer players are depicted, 'soccer', 'football', 'soccer players' will be correct, but not 'humans', 'outdoors', or 'sports'. You do not need to describe the image in full, just name the main object in it <strong>in one or two words</strong>. All images depict objects from one of the following broad level categories: animals, inanimate objects, plants, sports, vehicles, and food. Recognizing means knowing <strong>more</strong> than these broad labels for a given image. But we always encourage you to <strong>make a guess</strong> if you can. Note that you are allowed to use <strong>Dutch and English</strong> in your answers, whatever comes easiest for you.</p><p>Press any key to continue.</p></div>","32","instructions","html-keyboard-response","4","130957","0.0-4.0","3249239","co38038","norming","","","","","","",""
"8984.695000108331","<div style='word-wrap: break-word; width: 900px'><h3>Instructions</h3> <p>Next, the solution image will be revealed to you and you'll be asked to indicate how strong your <strong>aha-experience</strong> was after seeing the solution. This describes the positive feeling of the 'click' you sometimes experience, when the pieces of the 'puzzle' fall together and you suddenly have 'insight' in the image.</p><img src='aha.jpg' height='188' width='250'></img><p>Note that there are no right or wrong answers. We are interested in what <strong>you</strong> see in the image and how <strong>you</strong> feel about it.</p><p>Press any key to start the experiment.</p></div>","32","instructions","html-keyboard-response","5","139944","0.0-5.0","3249239","co38038","norming","","","","","","",""
"null","<div style=""font-size:60px;""> </div>","null","fixation","html-keyboard-response","6","140146","0.0-6.0-0.0","3249239","co38038","norming","","","","","","",""
"null","../img/tt/1307tt.jpg","null","mooney1","image-keyboard-response","7","143151","0.0-6.0-1.0","3249239","co38038","norming","","","","","","",""
"9509.609999600798","","","post_mooney1_questions","survey-likert","8","152664","0.0-6.0-2.0","3249239","co38038","norming","","","{""curiosity"":3,""confidence"":0}","[0,1]","../img/tt/1307tt.jpg","",""
"3365.1450001634657","","","recognition","survey-text","9","156032","0.0-6.0-3.0","3249239","co38038","norming","","","{""guess"":""""}","","../img/tt/1307tt.jpg","",""
"null","../img/gs/1307gs.jpg","null","reveal","image-keyboard-response","10","158035","0.0-6.0-4.0","3249239","co38038","norming","","","","","","",""
"null","../img/tt/1307tt.jpg","null","mooney2","image-keyboard-response","11","160039","0.0-6.0-5.0","3249239","co38038","norming","","","","","","",""
"8013.195000123233","","","post_reveal_questions","survey-likert","12","168054","0.0-6.0-6.0","3249239","co38038","norming","","","{""aha"":5}","[0]","../img/tt/1307tt.jpg","",""
"null","<div style=""font-size:60px;""> </div>","null","fixation","html-keyboard-response","13","168258","0.0-6.0-0.1","3249239","co38038","norming","","","","","","",""
"null","../img/tt/517tt.jpg","null","mooney1","image-keyboard-response","14","171260","0.0-6.0-1.1","3249239","co38038","norming","","","","","","",""
"8852.68499981612","","","post_mooney1_questions","survey-likert","15","180116","0.0-6.0-2.1","3249239","co38038","norming","","","{""curiosity"":4,""confidence"":3}","[0,1]","../img/tt/517tt.jpg","",""
"4523.0000000447035","","","recognition","survey-text","16","184642","0.0-6.0-3.1","3249239","co38038","norming","","","{""guess"":""dog""}","","../img/tt/517tt.jpg","",""
"null","../img/gs/517gs.jpg","null","reveal","image-keyboard-response","17","186644","0.0-6.0-4.1","3249239","co38038","norming","","","","","","",""
"null","../img/tt/517tt.jpg","null","mooney2","image-keyboard-response","18","188647","0.0-6.0-5.1","3249239","co38038","norming","","","","","","",""
"6226.90000012517","","","post_reveal_questions","survey-likert","19","194877","0.0-6.0-6.1","3249239","co38038","norming","","","{""aha"":2}","[0]","../img/tt/517tt.jpg","",""
"null","<div style=""font-size:60px;""> </div>","null","fixation","html-keyboard-response","20","195079","0.0-6.0-0.2","3249239","co38038","norming","","","","","","",""
"null","../img/tt/1262tt.jpg","null","mooney1","image-keyboard-response","21","198083","0.0-6.0-1.2","3249239","co38038","norming","","","","","","",""
"13047.389999963343","","","post_mooney1_questions","survey-likert","22","211133","0.0-6.0-2.2","3249239","co38038","norming","","","{""curiosity"":4,""confidence"":2}","[0,1]","../img/tt/1262tt.jpg","",""
"22708.365000318736","","","recognition","survey-text","23","233845","0.0-6.0-3.2","3249239","co38038","norming","","","{""guess"":""krokodil""}","","../img/tt/1262tt.jpg","",""
"null","../img/gs/1262gs.jpg","null","reveal","image-keyboard-response","24","235848","0.0-6.0-4.2","3249239","co38038","norming","","","","","","",""
"null","../img/tt/1262tt.jpg","null","mooney2","image-keyboard-response","25","237851","0.0-6.0-5.2","3249239","co38038","norming","","","","","","",""
"4499.3400000967085","","","post_reveal_questions","survey-likert","26","242352","0.0-6.0-6.2","3249239","co38038","norming","","","{""aha"":5}","[0]","../img/tt/1262tt.jpg","",""
"null","<div style=""font-size:60px;""> </div>","null","fixation","html-keyboard-response","27","242555","0.0-6.0-0.3","3249239","co38038","norming","","","","","","",""
"null","../img/tt/085tt.jpg","null","mooney1","image-keyboard-response","28","245559","0.0-6.0-1.3","3249239","co38038","norming","","","","","","",""
"12033.635000232607","","","post_mooney1_questions","survey-likert","29","257595","0.0-6.0-2.3","3249239","co38038","norming","","","{""curiosity"":4,""confidence"":0}","[0,1]","../img/tt/085tt.jpg","",""
"1753.179999999702","","","recognition","survey-text","30","259351","0.0-6.0-3.3","3249239","co38038","norming","","","{""guess"":""""}","","../img/tt/085tt.jpg","",""
"null","../img/gs/085gs.jpg","null","reveal","image-keyboard-response","31","261353","0.0-6.0-4.3","3249239","co38038","norming","","","","","","",""
"null","../img/tt/085tt.jpg","null","mooney2","image-keyboard-response","32","263355","0.0-6.0-5.3","3249239","co38038","norming","","","","","","",""
"8381.645000074059","","","post_reveal_questions","survey-likert","33","271739","0.0-6.0-6.3","3249239","co38038","norming","","","{""aha"":3}","[0]","../img/tt/085tt.jpg","",""
"null","<div style=""font-size:60px;""> </div>","null","fixation","html-keyboard-response","34","271943","0.0-6.0-0.4","3249239","co38038","norming","","","","","","",""
"null","../img/tt/081tt.jpg","null","mooney1","image-keyboard-response","35","274946","0.0-6.0-1.4","3249239","co38038","norming","","","","","","",""
"7259.949999861419","","","post_mooney1_questions","survey-likert","36","282209","0.0-6.0-2.4","3249239","co38038","norming","","","{""curiosity"":4,""confidence"":5}","[0,1]","../img/tt/081tt.jpg","",""
"3654.0749999694526","","","recognition","survey-text","37","285867","0.0-6.0-3.4","3249239","co38038","norming","","","{""guess"":""kikker""}","","../img/tt/081tt.jpg","",""
"null","../img/gs/081gs.jpg","null","reveal","image-keyboard-response","38","287869","0.0-6.0-4.4","3249239","co38038","norming","","","","","","",""
"null","../img/tt/081tt.jpg","null","mooney2","image-keyboard-response","39","289872","0.0-6.0-5.4","3249239","co38038","norming","","","","","","",""
"13465.754999779165","","","post_reveal_questions","survey-likert","40","303339","0.0-6.0-6.4","3249239","co38038","norming","","","{""aha"":1}","[0]","../img/tt/081tt.jpg","",""
"null","<div style=""font-size:60px;""> </div>","null","fixation","html-keyboard-response","41","303543","0.0-6.0-0.5","3249239","co38038","norming","","","","","","",""
"null","../img/tt/108tt.jpg","null","mooney1","image-keyboard-response","42","306547","0.0-6.0-1.5","3249239","co38038","norming","","","","","","",""
"8816.20500003919","","","post_mooney1_questions","survey-likert","43","315366","0.0-6.0-2.5","3249239","co38038","norming","","","{""curiosity"":4,""confidence"":2}","[0,1]","../img/tt/108tt.jpg","",""
"14722.975000273436","","","recognition","survey-text","44","330093","0.0-6.0-3.5","3249239","co38038","norming","","","{""guess"":""gorilla""}","","../img/tt/108tt.jpg","",""
"null","../img/gs/108gs.jpg","null","reveal","image-keyboard-response","45","332096","0.0-6.0-4.5","3249239","co38038","norming","","","","","","",""
"null","../img/tt/108tt.jpg","null","mooney2","image-keyboard-response","46","334098","0.0-6.0-5.5","3249239","co38038","norming","","","","","","",""
"3647.2549997270107","","","post_reveal_questions","survey-likert","47","337748","0.0-6.0-6.5","3249239","co38038","norming","","","{""aha"":2}","[0]","../img/tt/108tt.jpg","",""
"null","<div style=""font-size:60px;""> </div>","null","fixation","html-keyboard-response","48","337950","0.0-6.0-0.6","3249239","co38038","norming","","","","","","",""
"null","../img/tt/063tt.jpg","null","mooney1","image-keyboard-response","49","340954","0.0-6.0-1.6","3249239","co38038","norming","","","","","","",""
"6754.184999968857","","","post_mooney1_questions","survey-likert","50","347711","0.0-6.0-2.6","3249239","co38038","norming","","","{""curiosity"":4,""confidence"":0}","[0,1]","../img/tt/063tt.jpg","",""
"1330.240000039339","","","recognition","survey-text","51","349044","0.0-6.0-3.6","3249239","co38038","norming","","","{""guess"":""""}","","../img/tt/063tt.jpg","",""
"null","../img/gs/063gs.jpg","null","reveal","image-keyboard-response","52","351047","0.0-6.0-4.6","3249239","co38038","norming","","","","","","",""
"null","../img/tt/063tt.jpg","null","mooney2","image-keyboard-response","53","353050","0.0-6.0-5.6","3249239","co38038","norming","","","","","","",""
"3640.190000180155","","","post_reveal_questions","survey-likert","54","356692","0.0-6.0-6.6","3249239","co38038","norming","","","{""aha"":4}","[0]","../img/tt/063tt.jpg","",""
"null","<div style=""font-size:60px;""> </div>","null","fixation","html-keyboard-response","55","356895","0.0-6.0-0.7","3249239","co38038","norming","","","","","","",""
"null","../img/tt/1126tt.jpg","null","mooney1","image-keyboard-response","56","359898","0.0-6.0-1.7","3249239","co38038","norming","","","","","","",""
"6999.5750002563","","","post_mooney1_questions","survey-likert","57","366901","0.0-6.0-2.7","3249239","co38038","norming","","","{""curiosity"":4,""confidence"":1}","[0,1]","../img/tt/1126tt.jpg","",""
"4973.404999822378","","","recognition","survey-text","58","371877","0.0-6.0-3.7","3249239","co38038","norming","","","{""guess"":""vlinder""}","","../img/tt/1126tt.jpg","",""
"null","../img/gs/1126gs.jpg","null","reveal","image-keyboard-response","59","373881","0.0-6.0-4.7","3249239","co38038","norming","","","","","","",""
"null","../img/tt/1126tt.jpg","null","mooney2","image-keyboard-response","60","375883","0.0-6.0-5.7","3249239","co38038","norming","","","","","","",""
"4184.00500016287","","","post_reveal_questions","survey-likert","61","380069","0.0-6.0-6.7","3249239","co38038","norming","","","{""aha"":4}","[0]","../img/tt/1126tt.jpg","",""
"null","<div style=""font-size:60px;""> </div>","null","fixation","html-keyboard-response","62","380271","0.0-6.0-0.8","3249239","co38038","norming","","","","","","",""
"null","../img/tt/1309tt.jpg","null","mooney1","image-keyboard-response","63","383274","0.0-6.0-1.8","3249239","co38038","norming","","","","","","",""
"7131.0650003142655","","","post_mooney1_questions","survey-likert","64","390407","0.0-6.0-2.8","3249239","co38038","norming","","","{""curiosity"":4,""confidence"":2}","[0,1]","../img/tt/1309tt.jpg","",""
"4597.339999862015","","","recognition","survey-text","65","395008","0.0-6.0-3.8","3249239","co38038","norming","","","{""guess"":""auto""}","","../img/tt/1309tt.jpg","",""
"null","../img/gs/1309gs.jpg","null","reveal","image-keyboard-response","66","397010","0.0-6.0-4.8","3249239","co38038","norming","","","","","","",""
"null","../img/tt/1309tt.jpg","null","mooney2","image-keyboard-response","67","399013","0.0-6.0-5.8","3249239","co38038","norming","","","","","","",""
"4100.340000353754","","","post_reveal_questions","survey-likert","68","403115","0.0-6.0-6.8","3249239","co38038","norming","","","{""aha"":2}","[0]","../img/tt/1309tt.jpg","",""
"null","<div style=""font-size:60px;""> </div>","null","fixation","html-keyboard-response","69","403322","0.0-6.0-0.9","3249239","co38038","norming","","","","","","",""
"null","../img/tt/1066tt.jpg","null","mooney1","image-keyboard-response","70","406325","0.0-6.0-1.9","3249239","co38038","norming","","","","","","",""
"6412.654999643564","","","post_mooney1_questions","survey-likert","71","412740","0.0-6.0-2.9","3249239","co38038","norming","","","{""curiosity"":4,""confidence"":3}","[0,1]","../img/tt/1066tt.jpg","",""
"3302.344999741763","","","recognition","survey-text","72","416046","0.0-6.0-3.9","3249239","co38038","norming","","","{""guess"":""bus""}","","../img/tt/1066tt.jpg","",""
"null","../img/gs/1066gs.jpg","null","reveal","image-keyboard-response","73","418048","0.0-6.0-4.9","3249239","co38038","norming","","","","","","",""
"null","../img/tt/1066tt.jpg","null","mooney2","image-keyboard-response","74","420051","0.0-6.0-5.9","3249239","co38038","norming","","","","","","",""
"4237.024999689311","","","post_reveal_questions","survey-likert","75","424290","0.0-6.0-6.9","3249239","co38038","norming","","","{""aha"":4}","[0]","../img/tt/1066tt.jpg","",""
"null","<div style=""font-size:60px;""> </div>","null","fixation","html-keyboard-response","76","424492","0.0-6.0-0.10","3249239","co38038","norming","","","","","","",""
"null","../img/tt/599tt.jpg","null","mooney1","image-keyboard-response","77","427495","0.0-6.0-1.10","3249239","co38038","norming","","","","","","",""
"8978.569999802858","","","post_mooney1_questions","survey-likert","78","436477","0.0-6.0-2.10","3249239","co38038","norming","","","{""curiosity"":4,""confidence"":4}","[0,1]","../img/tt/599tt.jpg","",""
"3040.6700000166893","","","recognition","survey-text","79","439520","0.0-6.0-3.10","3249239","co38038","norming","","","{""guess"":""kat""}","","../img/tt/599tt.jpg","",""
"null","../img/gs/599gs.jpg","null","reveal","image-keyboard-response","80","441522","0.0-6.0-4.10","3249239","co38038","norming","","","","","","",""
"null","../img/tt/599tt.jpg","null","mooney2","image-keyboard-response","81","443524","0.0-6.0-5.10","3249239","co38038","norming","","","","","","",""
"2589.43000016734","","","post_reveal_questions","survey-likert","82","446115","0.0-6.0-6.10","3249239","co38038","norming","","","{""aha"":2}","[0]","../img/tt/599tt.jpg","",""
"null","<div style=""font-size:60px;""> </div>","null","fixation","html-keyboard-response","83","446318","0.0-6.0-0.11","3249239","co38038","norming","","","","","","",""
"null","../img/tt/163tt.jpg","null","mooney1","image-keyboard-response","84","449322","0.0-6.0-1.11","3249239","co38038","norming","","","","","","",""
"6576.965000014752","","","post_mooney1_questions","survey-likert","85","455902","0.0-6.0-2.11","3249239","co38038","norming","","","{""curiosity"":4,""confidence"":1}","[0,1]","../img/tt/163tt.jpg","",""
"4789.194999728352","","","recognition","survey-text","86","460694","0.0-6.0-3.11","3249239","co38038","norming","","","{""guess"":""kikker ""}","","../img/tt/163tt.jpg","",""
"null","../img/gs/163gs.jpg","null","reveal","image-keyboard-response","87","462696","0.0-6.0-4.11","3249239","co38038","norming","","","","","","",""
"null","../img/tt/163tt.jpg","null","mooney2","image-keyboard-response","88","464698","0.0-6.0-5.11","3249239","co38038","norming","","","","","","",""
"3716.285000089556","","","post_reveal_questions","survey-likert","89","468417","0.0-6.0-6.11","3249239","co38038","norming","","","{""aha"":4}","[0]","../img/tt/163tt.jpg","",""
"null","<div style=""font-size:60px;""> </div>","null","fixation","html-keyboard-response","90","468619","0.0-6.0-0.12","3249239","co38038","norming","","","","","","",""
"null","../img/tt/036tt.jpg","null","mooney1","image-keyboard-response","91","471622","0.0-6.0-1.12","3249239","co38038","norming","","","","","","",""
"5726.6600001603365","","","post_mooney1_questions","survey-likert","92","477351","0.0-6.0-2.12","3249239","co38038","norming","","","{""curiosity"":5,""confidence"":0}","[0,1]","../img/tt/036tt.jpg","",""
"1246.480000205338","","","recognition","survey-text","93","478601","0.0-6.0-3.12","3249239","co38038","norming","","","{""guess"":""""}","","../img/tt/036tt.jpg","",""
"null","../img/gs/036gs.jpg","null","reveal","image-keyboard-response","94","480603","0.0-6.0-4.12","3249239","co38038","norming","","","","","","",""
"null","../img/tt/036tt.jpg","null","mooney2","image-keyboard-response","95","482605","0.0-6.0-5.12","3249239","co38038","norming","","","","","","",""
"4667.299999855459","","","post_reveal_questions","survey-likert","96","487274","0.0-6.0-6.12","3249239","co38038","norming","","","{""aha"":2}","[0]","../img/tt/036tt.jpg","",""
"null","<div style=""font-size:60px;""> </div>","null","fixation","html-keyboard-response","97","487476","0.0-6.0-0.13","3249239","co38038","norming","","","","","","",""
"null","../img/tt/1200tt.jpg","null","mooney1","image-keyboard-response","98","490480","0.0-6.0-1.13","3249239","co38038","norming","","","","","","",""
"8777.464999817312","","","post_mooney1_questions","survey-likert","99","499261","0.0-6.0-2.13","3249239","co38038","norming","","","{""curiosity"":5,""confidence"":1}","[0,1]","../img/tt/1200tt.jpg","",""
"2884.810000192374","","","recognition","survey-text","100","502149","0.0-6.0-3.13","3249239","co38038","norming","","","{""guess"":""spin""}","","../img/tt/1200tt.jpg","",""
"null","../img/gs/1200gs.jpg","null","reveal","image-keyboard-response","101","504153","0.0-6.0-4.13","3249239","co38038","norming","","","","","","",""
"null","../img/tt/1200tt.jpg","null","mooney2","image-keyboard-response","102","506155","0.0-6.0-5.13","3249239","co38038","norming","","","","","","",""
"5181.185000110418","","","post_reveal_questions","survey-likert","103","511338","0.0-6.0-6.13","3249239","co38038","norming","","","{""aha"":1}","[0]","../img/tt/1200tt.jpg","",""
"null","<div style=""font-size:60px;""> </div>","null","fixation","html-keyboard-response","104","511540","0.0-6.0-0.14","3249239","co38038","norming","","","","","","",""
"null","../img/tt/1189tt.jpg","null","mooney1","image-keyboard-response","105","514544","0.0-6.0-1.14","3249239","co38038","norming","","","","","","",""
"6814.904999919236","","","post_mooney1_questions","survey-likert","106","521362","0.0-6.0-2.14","3249239","co38038","norming","","","{""curiosity"":4,""confidence"":2}","[0,1]","../img/tt/1189tt.jpg","",""
"3504.854999948293","","","recognition","survey-text","107","524870","0.0-6.0-3.14","3249239","co38038","norming","","","{""guess"":""zwemmer""}","","../img/tt/1189tt.jpg","",""
"null","../img/gs/1189gs.jpg","null","reveal","image-keyboard-response","108","526872","0.0-6.0-4.14","3249239","co38038","norming","","","","","","",""
"null","../img/tt/1189tt.jpg","null","mooney2","image-keyboard-response","109","528874","0.0-6.0-5.14","3249239","co38038","norming","","","","","","",""
"3673.5049998387694","","","post_reveal_questions","survey-likert","110","532550","0.0-6.0-6.14","3249239","co38038","norming","","","{""aha"":4}","[0]","../img/tt/1189tt.jpg","",""
"null","<div style=""font-size:60px;""> </div>","null","fixation","html-keyboard-response","111","532752","0.0-6.0-0.15","3249239","co38038","norming","","","","","","",""
"null","../img/tt/1123tt.jpg","null","mooney1","image-keyboard-response","112","535755","0.0-6.0-1.15","3249239","co38038","norming","","","","","","",""
"8080.575000029057","","","post_mooney1_questions","survey-likert","113","543838","0.0-6.0-2.15","3249239","co38038","norming","","","{""curiosity"":4,""confidence"":4}","[0,1]","../img/tt/1123tt.jpg","",""
"8837.145000230521","","","recognition","survey-text","114","552679","0.0-6.0-3.15","3249239","co38038","norming","","","{""guess"":""volleybal ""}","","../img/tt/1123tt.jpg","",""
"null","../img/gs/1123gs.jpg","null","reveal","image-keyboard-response","115","554682","0.0-6.0-4.15","3249239","co38038","norming","","","","","","",""
"null","../img/tt/1123tt.jpg","null","mooney2","image-keyboard-response","116","556683","0.0-6.0-5.15","3249239","co38038","norming","","","","","","",""
"5081.274999771267","","","post_reveal_questions","survey-likert","117","561767","0.0-6.0-6.15","3249239","co38038","norming","","","{""aha"":3}","[0]","../img/tt/1123tt.jpg","",""
"null","<div style=""font-size:60px;""> </div>","null","fixation","html-keyboard-response","118","561969","0.0-6.0-0.16","3249239","co38038","norming","","","","","","",""
"null","../img/tt/435tt.jpg","null","mooney1","image-keyboard-response","119","564974","0.0-6.0-1.16","3249239","co38038","norming","","","","","","",""
"15423.649999778718","","","post_mooney1_questions","survey-likert","120","580400","0.0-6.0-2.16","3249239","co38038","norming","","","{""curiosity"":4,""confidence"":2}","[0,1]","../img/tt/435tt.jpg","",""
"6015.13999979943","","","recognition","survey-text","121","586418","0.0-6.0-3.16","3249239","co38038","norming","","","{""guess"":""""}","","../img/tt/435tt.jpg","",""
"null","../img/gs/435gs.jpg","null","reveal","image-keyboard-response","122","588421","0.0-6.0-4.16","3249239","co38038","norming","","","","","","",""
"null","../img/tt/435tt.jpg","null","mooney2","image-keyboard-response","123","590423","0.0-6.0-5.16","3249239","co38038","norming","","","","","","",""
"3883.9249997399747","","","post_reveal_questions","survey-likert","124","594309","0.0-6.0-6.16","3249239","co38038","norming","","","{""aha"":1}","[0]","../img/tt/435tt.jpg","",""
"null","<div style=""font-size:60px;""> </div>","null","fixation","html-keyboard-response","125","594512","0.0-6.0-0.17","3249239","co38038","norming","","","","","","",""
"null","../img/tt/273tt.jpg","null","mooney1","image-keyboard-response","126","597515","0.0-6.0-1.17","3249239","co38038","norming","","","","","","",""
"8439.160000067204","","","post_mooney1_questions","survey-likert","127","605957","0.0-6.0-2.17","3249239","co38038","norming","","","{""curiosity"":2,""confidence"":2}","[0,1]","../img/tt/273tt.jpg","",""
"4036.0550000332296","","","recognition","survey-text","128","609997","0.0-6.0-3.17","3249239","co38038","norming","","","{""guess"":""blokjes""}","","../img/tt/273tt.jpg","",""
"null","../img/gs/273gs.jpg","null","reveal","image-keyboard-response","129","611999","0.0-6.0-4.17","3249239","co38038","norming","","","","","","",""
"null","../img/tt/273tt.jpg","null","mooney2","image-keyboard-response","130","614001","0.0-6.0-5.17","3249239","co38038","norming","","","","","","",""
"7242.44000017643","","","post_reveal_questions","survey-likert","131","621246","0.0-6.0-6.17","3249239","co38038","norming","","","{""aha"":3}","[0]","../img/tt/273tt.jpg","",""
"null","<div style=""font-size:60px;""> </div>","null","fixation","html-keyboard-response","132","621448","0.0-6.0-0.18","3249239","co38038","norming","","","","","","",""
"null","../img/tt/056tt.jpg","null","mooney1","image-keyboard-response","133","624451","0.0-6.0-1.18","3249239","co38038","norming","","","","","","",""
"5387.994999997318","","","post_mooney1_questions","survey-likert","134","629842","0.0-6.0-2.18","3249239","co38038","norming","","","{""curiosity"":4,""confidence"":1}","[0,1]","../img/tt/056tt.jpg","",""
"1246.2650001980364","","","recognition","survey-text","135","631091","0.0-6.0-3.18","3249239","co38038","norming","","","{""guess"":""""}","","../img/tt/056tt.jpg","",""
"null","../img/gs/056gs.jpg","null","reveal","image-keyboard-response","136","633093","0.0-6.0-4.18","3249239","co38038","norming","","","","","","",""
"null","../img/tt/056tt.jpg","null","mooney2","image-keyboard-response","137","635095","0.0-6.0-5.18","3249239","co38038","norming","","","","","","",""
"3139.5999998785555","","","post_reveal_questions","survey-likert","138","638237","0.0-6.0-6.18","3249239","co38038","norming","","","{""aha"":1}","[0]","../img/tt/056tt.jpg","",""
"null","<div style=""font-size:60px;""> </div>","null","fixation","html-keyboard-response","139","638439","0.0-6.0-0.19","3249239","co38038","norming","","","","","","",""
"null","../img/tt/358tt.jpg","null","mooney1","image-keyboard-response","140","641442","0.0-6.0-1.19","3249239","co38038","norming","","","","","","",""
"7741.559999994934","","","post_mooney1_questions","survey-likert","141","649186","0.0-6.0-2.19","3249239","co38038","norming","","","{""curiosity"":5,""confidence"":2}","[0,1]","../img/tt/358tt.jpg","",""
"3724.7850000858307","","","recognition","survey-text","142","652915","0.0-6.0-3.19","3249239","co38038","norming","","","{""guess"":""panter ""}","","../img/tt/358tt.jpg","",""
"null","../img/gs/358gs.jpg","null","reveal","image-keyboard-response","143","654917","0.0-6.0-4.19","3249239","co38038","norming","","","","","","",""
"null","../img/tt/358tt.jpg","null","mooney2","image-keyboard-response","144","656919","0.0-6.0-5.19","3249239","co38038","norming","","","","","","",""
"4395.384999923408","","","post_reveal_questions","survey-likert","145","661316","0.0-6.0-6.19","3249239","co38038","norming","","","{""aha"":2}","[0]","../img/tt/358tt.jpg","",""
"null","<div style=""font-size:60px;""> </div>","null","fixation","html-keyboard-response","146","661519","0.0-6.0-0.20","3249239","co38038","norming","","","","","","",""
"null","../img/tt/121tt.jpg","null","mooney1","image-keyboard-response","147","664523","0.0-6.0-1.20","3249239","co38038","norming","","","","","","",""
"4818.944999948144","","","post_mooney1_questions","survey-likert","148","669345","0.0-6.0-2.20","3249239","co38038","norming","","","{""curiosity"":4,""confidence"":3}","[0,1]","../img/tt/121tt.jpg","",""
"11628.064999822527","","","recognition","survey-text","149","680976","0.0-6.0-3.20","3249239","co38038","norming","","","{""guess"":""kangoeroe ""}","","../img/tt/121tt.jpg","",""
"null","../img/gs/121gs.jpg","null","reveal","image-keyboard-response","150","682978","0.0-6.0-4.20","3249239","co38038","norming","","","","","","",""
"null","../img/tt/121tt.jpg","null","mooney2","image-keyboard-response","151","684980","0.0-6.0-5.20","3249239","co38038","norming","","","","","","",""
"4218.415000010282","","","post_reveal_questions","survey-likert","152","689201","0.0-6.0-6.20","3249239","co38038","norming","","","{""aha"":5}","[0]","../img/tt/121tt.jpg","",""
"null","<div style=""font-size:60px;""> </div>","null","fixation","html-keyboard-response","153","689403","0.0-6.0-0.21","3249239","co38038","norming","","","","","","",""
"null","../img/tt/1186tt.jpg","null","mooney1","image-keyboard-response","154","692407","0.0-6.0-1.21","3249239","co38038","norming","","","","","","",""
"7609.484999906272","","","post_mooney1_questions","survey-likert","155","700020","0.0-6.0-2.21","3249239","co38038","norming","","","{""curiosity"":5,""confidence"":2}","[0,1]","../img/tt/1186tt.jpg","",""
"5195.265000220388","","","recognition","survey-text","156","705219","0.0-6.0-3.21","3249239","co38038","norming","","","{""guess"":""rolschaatsen ""}","","../img/tt/1186tt.jpg","",""
"null","../img/gs/1186gs.jpg","null","reveal","image-keyboard-response","157","707222","0.0-6.0-4.21","3249239","co38038","norming","","","","","","",""
"null","../img/tt/1186tt.jpg","null","mooney2","image-keyboard-response","158","709224","0.0-6.0-5.21","3249239","co38038","norming","","","","","","",""
"2870.044999755919","","","post_reveal_questions","survey-likert","159","712097","0.0-6.0-6.21","3249239","co38038","norming","","","{""aha"":4}","[0]","../img/tt/1186tt.jpg","",""
"null","<div style=""font-size:60px;""> </div>","null","fixation","html-keyboard-response","160","712299","0.0-6.0-0.22","3249239","co38038","norming","","","","","","",""
"null","../img/tt/559tt.jpg","null","mooney1","image-keyboard-response","161","715302","0.0-6.0-1.22","3249239","co38038","norming","","","","","","",""
"7134.1049997136","","","post_mooney1_questions","survey-likert","162","722439","0.0-6.0-2.22","3249239","co38038","norming","","","{""curiosity"":4,""confidence"":3}","[0,1]","../img/tt/559tt.jpg","",""
"8015.194999985397","","","recognition","survey-text","163","730458","0.0-6.0-3.22","3249239","co38038","norming","","","{""guess"":""naaimachine ""}","","../img/tt/559tt.jpg","",""
"null","../img/gs/559gs.jpg","null","reveal","image-keyboard-response","164","732459","0.0-6.0-4.22","3249239","co38038","norming","","","","","","",""
"null","../img/tt/559tt.jpg","null","mooney2","image-keyboard-response","165","734461","0.0-6.0-5.22","3249239","co38038","norming","","","","","","",""
"6696.029999759048","","","post_reveal_questions","survey-likert","166","741159","0.0-6.0-6.22","3249239","co38038","norming","","","{""aha"":4}","[0]","../img/tt/559tt.jpg","",""
"null","<div style=""font-size:60px;""> </div>","null","fixation","html-keyboard-response","167","741362","0.0-6.0-0.23","3249239","co38038","norming","","","","","","",""
"null","../img/tt/1156tt.jpg","null","mooney1","image-keyboard-response","168","744366","0.0-6.0-1.23","3249239","co38038","norming","","","","","","",""
"6233.875000383705","","","post_mooney1_questions","survey-likert","169","750602","0.0-6.0-2.23","3249239","co38038","norming","","","{""curiosity"":4,""confidence"":2}","[0,1]","../img/tt/1156tt.jpg","",""
"6141.574999783188","","","recognition","survey-text","170","756746","0.0-6.0-3.23","3249239","co38038","norming","","","{""guess"":""zwemmen ""}","","../img/tt/1156tt.jpg","",""
"null","../img/gs/1156gs.jpg","null","reveal","image-keyboard-response","171","758750","0.0-6.0-4.23","3249239","co38038","norming","","","","","","",""
"null","../img/tt/1156tt.jpg","null","mooney2","image-keyboard-response","172","760753","0.0-6.0-5.23","3249239","co38038","norming","","","","","","",""
"2902.8500001877546","","","post_reveal_questions","survey-likert","173","763658","0.0-6.0-6.23","3249239","co38038","norming","","","{""aha"":4}","[0]","../img/tt/1156tt.jpg","",""
"null","<div style=""font-size:60px;""> </div>","null","fixation","html-keyboard-response","174","763861","0.0-6.0-0.24","3249239","co38038","norming","","","","","","",""
"null","../img/tt/1127tt.jpg","null","mooney1","image-keyboard-response","175","766864","0.0-6.0-1.24","3249239","co38038","norming","","","","","","",""
"6281.235000118613","","","post_mooney1_questions","survey-likert","176","773148","0.0-6.0-2.24","3249239","co38038","norming","","","{""curiosity"":3,""confidence"":4}","[0,1]","../img/tt/1127tt.jpg","",""
"4406.490000430495","","","recognition","survey-text","177","777558","0.0-6.0-3.24","3249239","co38038","norming","","","{""guess"":""boksen ""}","","../img/tt/1127tt.jpg","",""
"null","../img/gs/1127gs.jpg","null","reveal","image-keyboard-response","178","779562","0.0-6.0-4.24","3249239","co38038","norming","","","","","","",""
"null","../img/tt/1127tt.jpg","null","mooney2","image-keyboard-response","179","781564","0.0-6.0-5.24","3249239","co38038","norming","","","","","","",""
"3141.404999885708","","","post_reveal_questions","survey-likert","180","784708","0.0-6.0-6.24","3249239","co38038","norming","","","{""aha"":2}","[0]","../img/tt/1127tt.jpg","",""
"null","<div style=""font-size:60px;""> </div>","null","fixation","html-keyboard-response","181","784910","0.0-6.0-0.25","3249239","co38038","norming","","","","","","",""
"null","../img/tt/094tt.jpg","null","mooney1","image-keyboard-response","182","787913","0.0-6.0-1.25","3249239","co38038","norming","","","","","","",""
"7769.090000074357","","","post_mooney1_questions","survey-likert","183","795685","0.0-6.0-2.25","3249239","co38038","norming","","","{""curiosity"":4,""confidence"":2}","[0,1]","../img/tt/094tt.jpg","",""
"2286.089999601245","","","recognition","survey-text","184","797975","0.0-6.0-3.25","3249239","co38038","norming","","","{""guess"":""koe""}","","../img/tt/094tt.jpg","",""
"null","../img/gs/094gs.jpg","null","reveal","image-keyboard-response","185","799977","0.0-6.0-4.25","3249239","co38038","norming","","","","","","",""
"null","../img/tt/094tt.jpg","null","mooney2","image-keyboard-response","186","801979","0.0-6.0-5.25","3249239","co38038","norming","","","","","","",""
"7400.754999835044","","","post_reveal_questions","survey-likert","187","809382","0.0-6.0-6.25","3249239","co38038","norming","","","{""aha"":4}","[0]","../img/tt/094tt.jpg","",""
"null","<div style=""font-size:60px;""> </div>","null","fixation","html-keyboard-response","188","809586","0.0-6.0-0.26","3249239","co38038","norming","","","","","","",""
"null","../img/tt/118tt.jpg","null","mooney1","image-keyboard-response","189","812589","0.0-6.0-1.26","3249239","co38038","norming","","","","","","",""
"7368.385000154376","","","post_mooney1_questions","survey-likert","190","819960","0.0-6.0-2.26","3249239","co38038","norming","","","{""curiosity"":5,""confidence"":0}","[0,1]","../img/tt/118tt.jpg","",""
"1130.3199999965727","","","recognition","survey-text","191","821094","0.0-6.0-3.26","3249239","co38038","norming","","","{""guess"":""""}","","../img/tt/118tt.jpg","",""
"null","../img/gs/118gs.jpg","null","reveal","image-keyboard-response","192","823097","0.0-6.0-4.26","3249239","co38038","norming","","","","","","",""
"null","../img/tt/118tt.jpg","null","mooney2","image-keyboard-response","193","825099","0.0-6.0-5.26","3249239","co38038","norming","","","","","","",""
"8464.279999956489","","","post_reveal_questions","survey-likert","194","833566","0.0-6.0-6.26","3249239","co38038","norming","","","{""aha"":3}","[0]","../img/tt/118tt.jpg","",""
"null","<div style=""font-size:60px;""> </div>","null","fixation","html-keyboard-response","195","833770","0.0-6.0-0.27","3249239","co38038","norming","","","","","","",""
"null","../img/tt/496tt.jpg","null","mooney1","image-keyboard-response","196","836773","0.0-6.0-1.27","3249239","co38038","norming","","","","","","",""
"10649.084999691695","","","post_mooney1_questions","survey-likert","197","847425","0.0-6.0-2.27","3249239","co38038","norming","","","{""curiosity"":4,""confidence"":2}","[0,1]","../img/tt/496tt.jpg","",""
"3210.4250001721084","","","recognition","survey-text","198","850639","0.0-6.0-3.27","3249239","co38038","norming","","","{""guess"":""hond""}","","../img/tt/496tt.jpg","",""
"null","../img/gs/496gs.jpg","null","reveal","image-keyboard-response","199","852642","0.0-6.0-4.27","3249239","co38038","norming","","","","","","",""
"null","../img/tt/496tt.jpg","null","mooney2","image-keyboard-response","200","854643","0.0-6.0-5.27","3249239","co38038","norming","","","","","","",""
"2721.0949999280274","","","post_reveal_questions","survey-likert","201","857367","0.0-6.0-6.27","3249239","co38038","norming","","","{""aha"":4}","[0]","../img/tt/496tt.jpg","",""
"null","<div style=""font-size:60px;""> </div>","null","fixation","html-keyboard-response","202","857569","0.0-6.0-0.28","3249239","co38038","norming","","","","","","",""
"null","../img/tt/296tt.jpg","null","mooney1","image-keyboard-response","203","860573","0.0-6.0-1.28","3249239","co38038","norming","","","","","","",""
"5437.585000414401","","","post_mooney1_questions","survey-likert","204","866014","0.0-6.0-2.28","3249239","co38038","norming","","","{""curiosity"":4,""confidence"":2}","[0,1]","../img/tt/296tt.jpg","",""
"3996.644999831915","","","recognition","survey-text","205","870013","0.0-6.0-3.28","3249239","co38038","norming","","","{""guess"":""stoel""}","","../img/tt/296tt.jpg","",""
"null","../img/gs/296gs.jpg","null","reveal","image-keyboard-response","206","872016","0.0-6.0-4.28","3249239","co38038","norming","","","","","","",""
"null","../img/tt/296tt.jpg","null","mooney2","image-keyboard-response","207","874020","0.0-6.0-5.28","3249239","co38038","norming","","","","","","",""
"2645.8600000478327","","","post_reveal_questions","survey-likert","208","876668","0.0-6.0-6.28","3249239","co38038","norming","","","{""aha"":3}","[0]","../img/tt/296tt.jpg","",""
"null","<div style=""font-size:60px;""> </div>","null","fixation","html-keyboard-response","209","876870","0.0-6.0-0.29","3249239","co38038","norming","","","","","","",""
"null","../img/tt/049tt.jpg","null","mooney1","image-keyboard-response","210","879874","0.0-6.0-1.29","3249239","co38038","norming","","","","","","",""
"6572.2550000064075","","","post_mooney1_questions","survey-likert","211","886449","0.0-6.0-2.29","3249239","co38038","norming","","","{""curiosity"":4,""confidence"":0}","[0,1]","../img/tt/049tt.jpg","",""
"1498.654999770224","","","recognition","survey-text","212","887951","0.0-6.0-3.29","3249239","co38038","norming","","","{""guess"":""""}","","../img/tt/049tt.jpg","",""
"null","../img/gs/049gs.jpg","null","reveal","image-keyboard-response","213","889952","0.0-6.0-4.29","3249239","co38038","norming","","","","","","",""
"null","../img/tt/049tt.jpg","null","mooney2","image-keyboard-response","214","891955","0.0-6.0-5.29","3249239","co38038","norming","","","","","","",""
"4387.624999973923","","","post_reveal_questions","survey-likert","215","896344","0.0-6.0-6.29","3249239","co38038","norming","","","{""aha"":0}","[0]","../img/tt/049tt.jpg","",""
"null","<div style=""font-size:60px;""> </div>","null","fixation","html-keyboard-response","216","896547","0.0-6.0-0.30","3249239","co38038","norming","","","","","","",""
"null","../img/tt/1101tt.jpg","null","mooney1","image-keyboard-response","217","899551","0.0-6.0-1.30","3249239","co38038","norming","","","","","","",""
"7598.4649998135865","","","post_mooney1_questions","survey-likert","218","907152","0.0-6.0-2.30","3249239","co38038","norming","","","{""curiosity"":4,""confidence"":2}","[0,1]","../img/tt/1101tt.jpg","",""
"7540.564999915659","","","recognition","survey-text","219","914696","0.0-6.0-3.30","3249239","co38038","norming","","","{""guess"":""motor rijden""}","","../img/tt/1101tt.jpg","",""
"null","../img/gs/1101gs.jpg","null","reveal","image-keyboard-response","220","916698","0.0-6.0-4.30","3249239","co38038","norming","","","","","","",""
"null","../img/tt/1101tt.jpg","null","mooney2","image-keyboard-response","221","918701","0.0-6.0-5.30","3249239","co38038","norming","","","","","","",""
"3281.7299999296665","","","post_reveal_questions","survey-likert","222","921985","0.0-6.0-6.30","3249239","co38038","norming","","","{""aha"":2}","[0]","../img/tt/1101tt.jpg","",""
"null","<div style=""font-size:60px;""> </div>","null","fixation","html-keyboard-response","223","922187","0.0-6.0-0.31","3249239","co38038","norming","","","","","","",""
"null","../img/tt/1146tt.jpg","null","mooney1","image-keyboard-response","224","925191","0.0-6.0-1.31","3249239","co38038","norming","","","","","","",""
"5774.920000229031","","","post_mooney1_questions","survey-likert","225","930969","0.0-6.0-2.31","3249239","co38038","norming","","","{""curiosity"":4,""confidence"":3}","[0,1]","../img/tt/1146tt.jpg","",""
"5976.52000002563","","","recognition","survey-text","226","936949","0.0-6.0-3.31","3249239","co38038","norming","","","{""guess"":""skiën ""}","","../img/tt/1146tt.jpg","",""
"null","../img/gs/1146gs.jpg","null","reveal","image-keyboard-response","227","938952","0.0-6.0-4.31","3249239","co38038","norming","","","","","","",""
"null","../img/tt/1146tt.jpg","null","mooney2","image-keyboard-response","228","940954","0.0-6.0-5.31","3249239","co38038","norming","","","","","","",""
"2943.394999951124","","","post_reveal_questions","survey-likert","229","943900","0.0-6.0-6.31","3249239","co38038","norming","","","{""aha"":1}","[0]","../img/tt/1146tt.jpg","",""
"null","<div style=""font-size:60px;""> </div>","null","fixation","html-keyboard-response","230","944102","0.0-6.0-0.32","3249239","co38038","norming","","","","","","",""
"null","../img/tt/019tt.jpg","null","mooney1","image-keyboard-response","231","947105","0.0-6.0-1.32","3249239","co38038","norming","","","","","","",""
"5232.204999774694","","","post_mooney1_questions","survey-likert","232","952340","0.0-6.0-2.32","3249239","co38038","norming","","","{""curiosity"":4,""confidence"":3}","[0,1]","../img/tt/019tt.jpg","",""
"2105.1599998027086","","","recognition","survey-text","233","954449","0.0-6.0-3.32","3249239","co38038","norming","","","{""guess"":""pen""}","","../img/tt/019tt.jpg","",""
"null","../img/gs/019gs.jpg","null","reveal","image-keyboard-response","234","956452","0.0-6.0-4.32","3249239","co38038","norming","","","","","","",""
"null","../img/tt/019tt.jpg","null","mooney2","image-keyboard-response","235","958455","0.0-6.0-5.32","3249239","co38038","norming","","","","","","",""
"2828.3350002020597","","","post_reveal_questions","survey-likert","236","961286","0.0-6.0-6.32","3249239","co38038","norming","","","{""aha"":2}","[0]","../img/tt/019tt.jpg","",""
"null","<div style=""font-size:60px;""> </div>","null","fixation","html-keyboard-response","237","961487","0.0-6.0-0.33","3249239","co38038","norming","","","","","","",""
"null","../img/tt/507tt.jpg","null","mooney1","image-keyboard-response","238","964490","0.0-6.0-1.33","3249239","co38038","norming","","","","","","",""
"5561.169999651611","","","post_mooney1_questions","survey-likert","239","970055","0.0-6.0-2.33","3249239","co38038","norming","","","{""curiosity"":4,""confidence"":0}","[0,1]","../img/tt/507tt.jpg","",""
"1077.2899999283254","","","recognition","survey-text","240","971136","0.0-6.0-3.33","3249239","co38038","norming","","","{""guess"":""""}","","../img/tt/507tt.jpg","",""
"null","../img/gs/507gs.jpg","null","reveal","image-keyboard-response","241","973137","0.0-6.0-4.33","3249239","co38038","norming","","","","","","",""
"null","../img/tt/507tt.jpg","null","mooney2","image-keyboard-response","242","975140","0.0-6.0-5.33","3249239","co38038","norming","","","","","","",""
"5129.945000167936","","","post_reveal_questions","survey-likert","243","980273","0.0-6.0-6.33","3249239","co38038","norming","","","{""aha"":2}","[0]","../img/tt/507tt.jpg","",""
"null","<div style=""font-size:60px;""> </div>","null","fixation","html-keyboard-response","244","980475","0.0-6.0-0.34","3249239","co38038","norming","","","","","","",""
"null","../img/tt/1232tt.jpg","null","mooney1","image-keyboard-response","245","983478","0.0-6.0-1.34","3249239","co38038","norming","","","","","","",""
"10129.579999949783","","","post_mooney1_questions","survey-likert","246","993611","0.0-6.0-2.34","3249239","co38038","norming","","","{""curiosity"":4,""confidence"":0}","[0,1]","../img/tt/1232tt.jpg","",""
"1536.9299999438226","","","recognition","survey-text","247","995151","0.0-6.0-3.34","3249239","co38038","norming","","","{""guess"":""""}","","../img/tt/1232tt.jpg","",""
"null","../img/gs/1232gs.jpg","null","reveal","image-keyboard-response","248","997154","0.0-6.0-4.34","3249239","co38038","norming","","","","","","",""
"null","../img/tt/1232tt.jpg","null","mooney2","image-keyboard-response","249","999157","0.0-6.0-5.34","3249239","co38038","norming","","","","","","",""
"5481.290000025183","","","post_reveal_questions","survey-likert","250","1004641","0.0-6.0-6.34","3249239","co38038","norming","","","{""aha"":1}","[0]","../img/tt/1232tt.jpg","",""
"null","<div style=""font-size:60px;""> </div>","null","fixation","html-keyboard-response","251","1004843","0.0-6.0-0.35","3249239","co38038","norming","","","","","","",""
"null","../img/tt/1040tt.jpg","null","mooney1","image-keyboard-response","252","1007847","0.0-6.0-1.35","3249239","co38038","norming","","","","","","",""
"5345.785000361502","","","post_mooney1_questions","survey-likert","253","1013196","0.0-6.0-2.35","3249239","co38038","norming","","","{""curiosity"":4,""confidence"":1}","[0,1]","../img/tt/1040tt.jpg","",""
"1878.3950000070035","","","recognition","survey-text","254","1015078","0.0-6.0-3.35","3249239","co38038","norming","","","{""guess"":""kip""}","","../img/tt/1040tt.jpg","",""
"null","../img/gs/1040gs.jpg","null","reveal","image-keyboard-response","255","1017080","0.0-6.0-4.35","3249239","co38038","norming","","","","","","",""
"null","../img/tt/1040tt.jpg","null","mooney2","image-keyboard-response","256","1019081","0.0-6.0-5.35","3249239","co38038","norming","","","","","","",""
"2551.135000307113","","","post_reveal_questions","survey-likert","257","1021635","0.0-6.0-6.35","3249239","co38038","norming","","","{""aha"":1}","[0]","../img/tt/1040tt.jpg","",""
"null","<div style=""font-size:60px;""> </div>","null","fixation","html-keyboard-response","258","1021837","0.0-6.0-0.36","3249239","co38038","norming","","","","","","",""
"null","../img/tt/1087tt.jpg","null","mooney1","image-keyboard-response","259","1024840","0.0-6.0-1.36","3249239","co38038","norming","","","","","","",""
"7001.880000345409","","","post_mooney1_questions","survey-likert","260","1031846","0.0-6.0-2.36","3249239","co38038","norming","","","{""curiosity"":4,""confidence"":2}","[0,1]","../img/tt/1087tt.jpg","",""
"3646.094999741763","","","recognition","survey-text","261","1035495","0.0-6.0-3.36","3249239","co38038","norming","","","{""guess"":""schaap ""}","","../img/tt/1087tt.jpg","",""
"null","../img/gs/1087gs.jpg","null","reveal","image-keyboard-response","262","1037498","0.0-6.0-4.36","3249239","co38038","norming","","","","","","",""
"null","../img/tt/1087tt.jpg","null","mooney2","image-keyboard-response","263","1039500","0.0-6.0-5.36","3249239","co38038","norming","","","","","","",""
"2959.129999857396","","","post_reveal_questions","survey-likert","264","1042462","0.0-6.0-6.36","3249239","co38038","norming","","","{""aha"":4}","[0]","../img/tt/1087tt.jpg","",""
"null","<div style=""font-size:60px;""> </div>","null","fixation","html-keyboard-response","265","1042664","0.0-6.0-0.37","3249239","co38038","norming","","","","","","",""
"null","../img/tt/1241tt.jpg","null","mooney1","image-keyboard-response","266","1045668","0.0-6.0-1.37","3249239","co38038","norming","","","","","","",""
"4993.290000129491","","","post_mooney1_questions","survey-likert","267","1050664","0.0-6.0-2.37","3249239","co38038","norming","","","{""curiosity"":4,""confidence"":1}","[0,1]","../img/tt/1241tt.jpg","",""
"1961.1299997195601","","","recognition","survey-text","268","1052629","0.0-6.0-3.37","3249239","co38038","norming","","","{""guess"":""koe""}","","../img/tt/1241tt.jpg","",""
"null","../img/gs/1241gs.jpg","null","reveal","image-keyboard-response","269","1054631","0.0-6.0-4.37","3249239","co38038","norming","","","","","","",""
"null","../img/tt/1241tt.jpg","null","mooney2","image-keyboard-response","270","1056633","0.0-6.0-5.37","3249239","co38038","norming","","","","","","",""
"3732.7149999327958","","","post_reveal_questions","survey-likert","271","1060369","0.0-6.0-6.37","3249239","co38038","norming","","","{""aha"":2}","[0]","../img/tt/1241tt.jpg","",""
"null","<div style=""font-size:60px;""> </div>","null","fixation","html-keyboard-response","272","1060571","0.0-6.0-0.38","3249239","co38038","norming","","","","","","",""
"null","../img/tt/112tt.jpg","null","mooney1","image-keyboard-response","273","1063575","0.0-6.0-1.38","3249239","co38038","norming","","","","","","",""
"4034.429999999702","","","post_mooney1_questions","survey-likert","274","1067613","0.0-6.0-2.38","3249239","co38038","norming","","","{""curiosity"":4,""confidence"":4}","[0,1]","../img/tt/112tt.jpg","",""
"3522.055000066757","","","recognition","survey-text","275","1071138","0.0-6.0-3.38","3249239","co38038","norming","","","{""guess"":""fluitje""}","","../img/tt/112tt.jpg","",""
"null","../img/gs/112gs.jpg","null","reveal","image-keyboard-response","276","1073141","0.0-6.0-4.38","3249239","co38038","norming","","","","","","",""
"null","../img/tt/112tt.jpg","null","mooney2","image-keyboard-response","277","1075144","0.0-6.0-5.38","3249239","co38038","norming","","","","","","",""
"13504.505000077188","","","post_reveal_questions","survey-likert","278","1088651","0.0-6.0-6.38","3249239","co38038","norming","","","{""aha"":4}","[0]","../img/tt/112tt.jpg","",""
"null","<div style=""font-size:60px;""> </div>","null","fixation","html-keyboard-response","279","1088853","0.0-6.0-0.39","3249239","co38038","norming","","","","","","",""
"null","../img/tt/1143tt.jpg","null","mooney1","image-keyboard-response","280","1091856","0.0-6.0-1.39","3249239","co38038","norming","","","","","","",""
"5821.955000050366","","","post_mooney1_questions","survey-likert","281","1097682","0.0-6.0-2.39","3249239","co38038","norming","","","{""curiosity"":4,""confidence"":0}","[0,1]","../img/tt/1143tt.jpg","",""
"1184.415000025183","","","recognition","survey-text","282","1098869","0.0-6.0-3.39","3249239","co38038","norming","","","{""guess"":""""}","","../img/tt/1143tt.jpg","",""
"null","../img/gs/1143gs.jpg","null","reveal","image-keyboard-response","283","1100871","0.0-6.0-4.39","3249239","co38038","norming","","","","","","",""
"null","../img/tt/1143tt.jpg","null","mooney2","image-keyboard-response","284","1102873","0.0-6.0-5.39","3249239","co38038","norming","","","","","","",""
"4801.68000003323","","","post_reveal_questions","survey-likert","285","1107677","0.0-6.0-6.39","3249239","co38038","norming","","","{""aha"":2}","[0]","../img/tt/1143tt.jpg","",""
"null","<div style=""font-size:60px;""> </div>","null","fixation","html-keyboard-response","286","1107879","0.0-6.0-0.40","3249239","co38038","norming","","","","","","",""
"null","../img/tt/406tt.jpg","null","mooney1","image-keyboard-response","287","1110883","0.0-6.0-1.40","3249239","co38038","norming","","","","","","",""
"13180.325000081211","","","post_mooney1_questions","survey-likert","288","1124066","0.0-6.0-2.40","3249239","co38038","norming","","","{""curiosity"":5,""confidence"":0}","[0,1]","../img/tt/406tt.jpg","",""
"1207.7800002880394","","","recognition","survey-text","289","1125277","0.0-6.0-3.40","3249239","co38038","norming","","","{""guess"":""""}","","../img/tt/406tt.jpg","",""
"null","../img/gs/406gs.jpg","null","reveal","image-keyboard-response","290","1127280","0.0-6.0-4.40","3249239","co38038","norming","","","","","","",""
"null","../img/tt/406tt.jpg","null","mooney2","image-keyboard-response","291","1129284","0.0-6.0-5.40","3249239","co38038","norming","","","","","","",""
"4614.929999690503","","","post_reveal_questions","survey-likert","292","1133901","0.0-6.0-6.40","3249239","co38038","norming","","","{""aha"":3}","[0]","../img/tt/406tt.jpg","",""
"null","<div style=""font-size:60px;""> </div>","null","fixation","html-keyboard-response","293","1134103","0.0-6.0-0.41","3249239","co38038","norming","","","","","","",""
"null","../img/tt/318tt.jpg","null","mooney1","image-keyboard-response","294","1137105","0.0-6.0-1.41","3249239","co38038","norming","","","","","","",""
"4582.630000077188","","","post_mooney1_questions","survey-likert","295","1141689","0.0-6.0-2.41","3249239","co38038","norming","","","{""curiosity"":4,""confidence"":1}","[0,1]","../img/tt/318tt.jpg","",""
"5616.9350002892315","","","recognition","survey-text","296","1147309","0.0-6.0-3.41","3249239","co38038","norming","","","{""guess"":""auto stuur""}","","../img/tt/318tt.jpg","",""
"null","../img/gs/318gs.jpg","null","reveal","image-keyboard-response","297","1149312","0.0-6.0-4.41","3249239","co38038","norming","","","","","","",""
"null","../img/tt/318tt.jpg","null","mooney2","image-keyboard-response","298","1151314","0.0-6.0-5.41","3249239","co38038","norming","","","","","","",""
"2951.4749995432794","","","post_reveal_questions","survey-likert","299","1154269","0.0-6.0-6.41","3249239","co38038","norming","","","{""aha"":4}","[0]","../img/tt/318tt.jpg","",""
"null","<div style=""font-size:60px;""> </div>","null","fixation","html-keyboard-response","300","1154471","0.0-6.0-0.42","3249239","co38038","norming","","","","","","",""
"null","../img/tt/078tt.jpg","null","mooney1","image-keyboard-response","301","1157475","0.0-6.0-1.42","3249239","co38038","norming","","","","","","",""
"8586.544999852777","","","post_mooney1_questions","survey-likert","302","1166065","0.0-6.0-2.42","3249239","co38038","norming","","","{""curiosity"":5,""confidence"":3}","[0,1]","../img/tt/078tt.jpg","",""
"4513.735000044107","","","recognition","survey-text","303","1170583","0.0-6.0-3.42","3249239","co38038","norming","","","{""guess"":""druiven""}","","../img/tt/078tt.jpg","",""
"null","../img/gs/078gs.jpg","null","reveal","image-keyboard-response","304","1172585","0.0-6.0-4.42","3249239","co38038","norming","","","","","","",""
"null","../img/tt/078tt.jpg","null","mooney2","image-keyboard-response","305","1174588","0.0-6.0-5.42","3249239","co38038","norming","","","","","","",""
"3401.65500016883","","","post_reveal_questions","survey-likert","306","1177992","0.0-6.0-6.42","3249239","co38038","norming","","","{""aha"":4}","[0]","../img/tt/078tt.jpg","",""
"null","<div style=""font-size:60px;""> </div>","null","fixation","html-keyboard-response","307","1178195","0.0-6.0-0.43","3249239","co38038","norming","","","","","","",""
"null","../img/tt/1235tt.jpg","null","mooney1","image-keyboard-response","308","1181203","0.0-6.0-1.43","3249239","co38038","norming","","","","","","",""
"4544.000000227243","","","post_mooney1_questions","survey-likert","309","1185750","0.0-6.0-2.43","3249239","co38038","norming","","","{""curiosity"":5,""confidence"":1}","[0,1]","../img/tt/1235tt.jpg","",""
"2677.509999834001","","","recognition","survey-text","310","1188431","0.0-6.0-3.43","3249239","co38038","norming","","","{""guess"":""duif""}","","../img/tt/1235tt.jpg","",""
"null","../img/gs/1235gs.jpg","null","reveal","image-keyboard-response","311","1190433","0.0-6.0-4.43","3249239","co38038","norming","","","","","","",""
"null","../img/tt/1235tt.jpg","null","mooney2","image-keyboard-response","312","1192435","0.0-6.0-5.43","3249239","co38038","norming","","","","","","",""
"3968.13500020653","","","post_reveal_questions","survey-likert","313","1196404","0.0-6.0-6.43","3249239","co38038","norming","","","{""aha"":3}","[0]","../img/tt/1235tt.jpg","",""
"null","<div style=""font-size:60px;""> </div>","null","fixation","html-keyboard-response","314","1196606","0.0-6.0-0.44","3249239","co38038","norming","","","","","","",""
"null","../img/tt/481tt.jpg","null","mooney1","image-keyboard-response","315","1199610","0.0-6.0-1.44","3249239","co38038","norming","","","","","","",""
"8926.159999798983","","","post_mooney1_questions","survey-likert","316","1208539","0.0-6.0-2.44","3249239","co38038","norming","","","{""curiosity"":4,""confidence"":2}","[0,1]","../img/tt/481tt.jpg","",""
"3092.9050003178418","","","recognition","survey-text","317","1211636","0.0-6.0-3.44","3249239","co38038","norming","","","{""guess"":""kat""}","","../img/tt/481tt.jpg","",""
"null","../img/gs/481gs.jpg","null","reveal","image-keyboard-response","318","1213639","0.0-6.0-4.44","3249239","co38038","norming","","","","","","",""
"null","../img/tt/481tt.jpg","null","mooney2","image-keyboard-response","319","1215642","0.0-6.0-5.44","3249239","co38038","norming","","","","","","",""
"4959.550000261515","","","post_reveal_questions","survey-likert","320","1220604","0.0-6.0-6.44","3249239","co38038","norming","","","{""aha"":2}","[0]","../img/tt/481tt.jpg","",""
"null","<div style=""font-size:60px;""> </div>","null","fixation","html-keyboard-response","321","1220807","0.0-6.0-0.45","3249239","co38038","norming","","","","","","",""
"null","../img/tt/1181tt.jpg","null","mooney1","image-keyboard-response","322","1223810","0.0-6.0-1.45","3249239","co38038","norming","","","","","","",""
"6411.6850001737475","","","post_mooney1_questions","survey-likert","323","1230225","0.0-6.0-2.45","3249239","co38038","norming","","","{""curiosity"":4,""confidence"":2}","[0,1]","../img/tt/1181tt.jpg","",""
"4197.869999799877","","","recognition","survey-text","324","1234426","0.0-6.0-3.45","3249239","co38038","norming","","","{""guess"":""vrienden""}","","../img/tt/1181tt.jpg","",""
"null","../img/gs/1181gs.jpg","null","reveal","image-keyboard-response","325","1236428","0.0-6.0-4.45","3249239","co38038","norming","","","","","","",""
"null","../img/tt/1181tt.jpg","null","mooney2","image-keyboard-response","326","1238430","0.0-6.0-5.45","3249239","co38038","norming","","","","","","",""
"3995.484999846667","","","post_reveal_questions","survey-likert","327","1242428","0.0-6.0-6.45","3249239","co38038","norming","","","{""aha"":2}","[0]","../img/tt/1181tt.jpg","",""
"null","<div style=""font-size:60px;""> </div>","null","fixation","html-keyboard-response","328","1242631","0.0-6.0-0.46","3249239","co38038","norming","","","","","","",""
"null","../img/tt/052tt.jpg","null","mooney1","image-keyboard-response","329","1245635","0.0-6.0-1.46","3249239","co38038","norming","","","","","","",""
"7453.14500015229","","","post_mooney1_questions","survey-likert","330","1253092","0.0-6.0-2.46","3249239","co38038","norming","","","{""curiosity"":4,""confidence"":4}","[0,1]","../img/tt/052tt.jpg","",""
"2690.8050002530217","","","recognition","survey-text","331","1255786","0.0-6.0-3.46","3249239","co38038","norming","","","{""guess"":""ring""}","","../img/tt/052tt.jpg","",""
"null","../img/gs/052gs.jpg","null","reveal","image-keyboard-response","332","1257788","0.0-6.0-4.46","3249239","co38038","norming","","","","","","",""
"null","../img/tt/052tt.jpg","null","mooney2","image-keyboard-response","333","1259790","0.0-6.0-5.46","3249239","co38038","norming","","","","","","",""
"5103.490000125021","","","post_reveal_questions","survey-likert","334","1264896","0.0-6.0-6.46","3249239","co38038","norming","","","{""aha"":4}","[0]","../img/tt/052tt.jpg","",""
"null","<div style=""font-size:60px;""> </div>","null","fixation","html-keyboard-response","335","1265098","0.0-6.0-0.47","3249239","co38038","norming","","","","","","",""
"null","../img/tt/055tt.jpg","null","mooney1","image-keyboard-response","336","1268101","0.0-6.0-1.47","3249239","co38038","norming","","","","","","",""
"9578.050000127405","","","post_mooney1_questions","survey-likert","337","1277682","0.0-6.0-2.47","3249239","co38038","norming","","","{""curiosity"":4,""confidence"":2}","[0,1]","../img/tt/055tt.jpg","",""
"2427.3100001737475","","","recognition","survey-text","338","1280113","0.0-6.0-3.47","3249239","co38038","norming","","","{""guess"":""koe""}","","../img/tt/055tt.jpg","",""
"null","../img/gs/055gs.jpg","null","reveal","image-keyboard-response","339","1282116","0.0-6.0-4.47","3249239","co38038","norming","","","","","","",""
"null","../img/tt/055tt.jpg","null","mooney2","image-keyboard-response","340","1284118","0.0-6.0-5.47","3249239","co38038","norming","","","","","","",""
"11854.975000023842","","","post_reveal_questions","survey-likert","341","1295976","0.0-6.0-6.47","3249239","co38038","norming","","","{""aha"":3}","[0]","../img/tt/055tt.jpg","",""
"null","<div style=""font-size:60px;""> </div>","null","fixation","html-keyboard-response","342","1296179","0.0-6.0-0.48","3249239","co38038","norming","","","","","","",""
"null","../img/tt/098tt.jpg","null","mooney1","image-keyboard-response","343","1299183","0.0-6.0-1.48","3249239","co38038","norming","","","","","","",""
"8878.689999692142","","","post_mooney1_questions","survey-likert","344","1308065","0.0-6.0-2.48","3249239","co38038","norming","","","{""curiosity"":4,""confidence"":2}","[0,1]","../img/tt/098tt.jpg","",""
"2627.070000395179","","","recognition","survey-text","345","1310695","0.0-6.0-3.48","3249239","co38038","norming","","","{""guess"":""duif""}","","../img/tt/098tt.jpg","",""
"null","../img/gs/098gs.jpg","null","reveal","image-keyboard-response","346","1312698","0.0-6.0-4.48","3249239","co38038","norming","","","","","","",""
"null","../img/tt/098tt.jpg","null","mooney2","image-keyboard-response","347","1314701","0.0-6.0-5.48","3249239","co38038","norming","","","","","","",""
"4836.425000336021","","","post_reveal_questions","survey-likert","348","1319540","0.0-6.0-6.48","3249239","co38038","norming","","","{""aha"":3}","[0]","../img/tt/098tt.jpg","",""
"null","<div style=""font-size:60px;""> </div>","null","fixation","html-keyboard-response","349","1319742","0.0-6.0-0.49","3249239","co38038","norming","","","","","","",""
"null","../img/tt/135tt.jpg","null","mooney1","image-keyboard-response","350","1322746","0.0-6.0-1.49","3249239","co38038","norming","","","","","","",""
"10221.640000119805","","","post_mooney1_questions","survey-likert","351","1332970","0.0-6.0-2.49","3249239","co38038","norming","","","{""curiosity"":3,""confidence"":4}","[0,1]","../img/tt/135tt.jpg","",""
"3046.625000424683","","","recognition","survey-text","352","1336020","0.0-6.0-3.49","3249239","co38038","norming","","","{""guess"":""wc""}","","../img/tt/135tt.jpg","",""
"null","../img/gs/135gs.jpg","null","reveal","image-keyboard-response","353","1338023","0.0-6.0-4.49","3249239","co38038","norming","","","","","","",""
"null","../img/tt/135tt.jpg","null","mooney2","image-keyboard-response","354","1340026","0.0-6.0-5.49","3249239","co38038","norming","","","","","","",""
"3198.9700002595782","","","post_reveal_questions","survey-likert","355","1343227","0.0-6.0-6.49","3249239","co38038","norming","","","{""aha"":4}","[0]","../img/tt/135tt.jpg","",""
"null","<div style=""font-size:60px;""> </div>","null","fixation","html-keyboard-response","356","1343429","0.0-6.0-0.50","3249239","co38038","norming","","","","","","",""
"null","../img/tt/603tt.jpg","null","mooney1","image-keyboard-response","357","1346432","0.0-6.0-1.50","3249239","co38038","norming","","","","","","",""
"7631.1500002630055","","","post_mooney1_questions","survey-likert","358","1354066","0.0-6.0-2.50","3249239","co38038","norming","","","{""curiosity"":4,""confidence"":3}","[0,1]","../img/tt/603tt.jpg","",""
"2608.690000139177","","","recognition","survey-text","359","1356678","0.0-6.0-3.50","3249239","co38038","norming","","","{""guess"":""kat""}","","../img/tt/603tt.jpg","",""
"null","../img/gs/603gs.jpg","null","reveal","image-keyboard-response","360","1358681","0.0-6.0-4.50","3249239","co38038","norming","","","","","","",""
"null","../img/tt/603tt.jpg","null","mooney2","image-keyboard-response","361","1360684","0.0-6.0-5.50","3249239","co38038","norming","","","","","","",""
"3995.1700000092387","","","post_reveal_questions","survey-likert","362","1364682","0.0-6.0-6.50","3249239","co38038","norming","","","{""aha"":3}","[0]","../img/tt/603tt.jpg","",""
"null","<div style=""font-size:60px;""> </div>","null","fixation","html-keyboard-response","363","1364884","0.0-6.0-0.51","3249239","co38038","norming","","","","","","",""
"null","../img/tt/010tt.jpg","null","mooney1","image-keyboard-response","364","1367889","0.0-6.0-1.51","3249239","co38038","norming","","","","","","",""
"9324.065000284463","","","post_mooney1_questions","survey-likert","365","1377216","0.0-6.0-2.51","3249239","co38038","norming","","","{""curiosity"":5,""confidence"":1}","[0,1]","../img/tt/010tt.jpg","",""
"2917.109999805689","","","recognition","survey-text","366","1380136","0.0-6.0-3.51","3249239","co38038","norming","","","{""guess"":""kat""}","","../img/tt/010tt.jpg","",""
"null","../img/gs/010gs.jpg","null","reveal","image-keyboard-response","367","1382138","0.0-6.0-4.51","3249239","co38038","norming","","","","","","",""
"null","../img/tt/010tt.jpg","null","mooney2","image-keyboard-response","368","1384141","0.0-6.0-5.51","3249239","co38038","norming","","","","","","",""
"4653.975000139326","","","post_reveal_questions","survey-likert","369","1388798","0.0-6.0-6.51","3249239","co38038","norming","","","{""aha"":1}","[0]","../img/tt/010tt.jpg","",""
"null","<div style=""font-size:60px;""> </div>","null","fixation","html-keyboard-response","370","1389000","0.0-6.0-0.52","3249239","co38038","norming","","","","","","",""
"null","../img/tt/380tt.jpg","null","mooney1","image-keyboard-response","371","1392003","0.0-6.0-1.52","3249239","co38038","norming","","","","","","",""
"8243.484999984503","","","post_mooney1_questions","survey-likert","372","1400250","0.0-6.0-2.52","3249239","co38038","norming","","","{""curiosity"":5,""confidence"":0}","[0,1]","../img/tt/380tt.jpg","",""
"2034.8699996247888","","","recognition","survey-text","373","1402288","0.0-6.0-3.52","3249239","co38038","norming","","","{""guess"":""""}","","../img/tt/380tt.jpg","",""
"null","../img/gs/380gs.jpg","null","reveal","image-keyboard-response","374","1404291","0.0-6.0-4.52","3249239","co38038","norming","","","","","","",""
"null","../img/tt/380tt.jpg","null","mooney2","image-keyboard-response","375","1406293","0.0-6.0-5.52","3249239","co38038","norming","","","","","","",""
"5153.595000039786","","","post_reveal_questions","survey-likert","376","1411449","0.0-6.0-6.52","3249239","co38038","norming","","","{""aha"":1}","[0]","../img/tt/380tt.jpg","",""
"null","<div style=""font-size:60px;""> </div>","null","fixation","html-keyboard-response","377","1411651","0.0-6.0-0.53","3249239","co38038","norming","","","","","","",""
"null","../img/tt/319tt.jpg","null","mooney1","image-keyboard-response","378","1414654","0.0-6.0-1.53","3249239","co38038","norming","","","","","","",""
"10680.27999997139","","","post_mooney1_questions","survey-likert","379","1425338","0.0-6.0-2.53","3249239","co38038","norming","","","{""curiosity"":4,""confidence"":2}","[0,1]","../img/tt/319tt.jpg","",""
"4579.700000118464","","","recognition","survey-text","380","1429921","0.0-6.0-3.53","3249239","co38038","norming","","","{""guess"":""paard""}","","../img/tt/319tt.jpg","",""
"null","../img/gs/319gs.jpg","null","reveal","image-keyboard-response","381","1431923","0.0-6.0-4.53","3249239","co38038","norming","","","","","","",""
"null","../img/tt/319tt.jpg","null","mooney2","image-keyboard-response","382","1433926","0.0-6.0-5.53","3249239","co38038","norming","","","","","","",""
"13274.499999824911","","","post_reveal_questions","survey-likert","383","1447203","0.0-6.0-6.53","3249239","co38038","norming","","","{""aha"":3}","[0]","../img/tt/319tt.jpg","",""
"null","<div style=""font-size:60px;""> </div>","null","fixation","html-keyboard-response","384","1447405","0.0-6.0-0.54","3249239","co38038","norming","","","","","","",""
"null","../img/tt/301tt.jpg","null","mooney1","image-keyboard-response","385","1450409","0.0-6.0-1.54","3249239","co38038","norming","","","","","","",""
"5506.095000077039","","","post_mooney1_questions","survey-likert","386","1455918","0.0-6.0-2.54","3249239","co38038","norming","","","{""curiosity"":5,""confidence"":0}","[0,1]","../img/tt/301tt.jpg","",""
"2004.3100002221763","","","recognition","survey-text","387","1457926","0.0-6.0-3.54","3249239","co38038","norming","","","{""guess"":""""}","","../img/tt/301tt.jpg","",""
"null","../img/gs/301gs.jpg","null","reveal","image-keyboard-response","388","1459928","0.0-6.0-4.54","3249239","co38038","norming","","","","","","",""
"null","../img/tt/301tt.jpg","null","mooney2","image-keyboard-response","389","1461930","0.0-6.0-5.54","3249239","co38038","norming","","","","","","",""
"4800.5349999293685","","","post_reveal_questions","survey-likert","390","1466733","0.0-6.0-6.54","3249239","co38038","norming","","","{""aha"":1}","[0]","../img/tt/301tt.jpg","",""
"null","<div style=""font-size:60px;""> </div>","null","fixation","html-keyboard-response","391","1466935","0.0-6.0-0.55","3249239","co38038","norming","","","","","","",""
"null","../img/tt/1033tt.jpg","null","mooney1","image-keyboard-response","392","1469938","0.0-6.0-1.55","3249239","co38038","norming","","","","","","",""
"12974.80499977246","","","post_mooney1_questions","survey-likert","393","1482916","0.0-6.0-2.55","3249239","co38038","norming","","","{""curiosity"":5,""confidence"":2}","[0,1]","../img/tt/1033tt.jpg","",""
"7053.085000254214","","","recognition","survey-text","394","1489973","0.0-6.0-3.55","3249239","co38038","norming","","","{""guess"":""boogschieten ""}","","../img/tt/1033tt.jpg","",""
"null","../img/gs/1033gs.jpg","null","reveal","image-keyboard-response","395","1491975","0.0-6.0-4.55","3249239","co38038","norming","","","","","","",""
"null","../img/tt/1033tt.jpg","null","mooney2","image-keyboard-response","396","1493978","0.0-6.0-5.55","3249239","co38038","norming","","","","","","",""
"7213.405000045896","","","post_reveal_questions","survey-likert","397","1501194","0.0-6.0-6.55","3249239","co38038","norming","","","{""aha"":3}","[0]","../img/tt/1033tt.jpg","",""
"null","<div style=""font-size:60px;""> </div>","null","fixation","html-keyboard-response","398","1501396","0.0-6.0-0.56","3249239","co38038","norming","","","","","","",""
"null","../img/tt/013tt.jpg","null","mooney1","image-keyboard-response","399","1504400","0.0-6.0-1.56","3249239","co38038","norming","","","","","","",""
"8389.055000152439","","","post_mooney1_questions","survey-likert","400","1512793","0.0-6.0-2.56","3249239","co38038","norming","","","{""curiosity"":4,""confidence"":1}","[0,1]","../img/tt/013tt.jpg","",""
"4202.740000095218","","","recognition","survey-text","401","1516999","0.0-6.0-3.56","3249239","co38038","norming","","","{""guess"":""paardrijden ""}","","../img/tt/013tt.jpg","",""
"null","../img/gs/013gs.jpg","null","reveal","image-keyboard-response","402","1519001","0.0-6.0-4.56","3249239","co38038","norming","","","","","","",""
"null","../img/tt/013tt.jpg","null","mooney2","image-keyboard-response","403","1521003","0.0-6.0-5.56","3249239","co38038","norming","","","","","","",""
"4049.890000373125","","","post_reveal_questions","survey-likert","404","1525056","0.0-6.0-6.56","3249239","co38038","norming","","","{""aha"":1}","[0]","../img/tt/013tt.jpg","",""
"null","<div style=""font-size:60px;""> </div>","null","fixation","html-keyboard-response","405","1525258","0.0-6.0-0.57","3249239","co38038","norming","","","","","","",""
"null","../img/tt/418tt.jpg","null","mooney1","image-keyboard-response","406","1528262","0.0-6.0-1.57","3249239","co38038","norming","","","","","","",""
"5008.925000205636","","","post_mooney1_questions","survey-likert","407","1533274","0.0-6.0-2.57","3249239","co38038","norming","","","{""curiosity"":4,""confidence"":1}","[0,1]","../img/tt/418tt.jpg","",""
"2128.53500014171","","","recognition","survey-text","408","1535406","0.0-6.0-3.57","3249239","co38038","norming","","","{""guess"":""appel""}","","../img/tt/418tt.jpg","",""
"null","../img/gs/418gs.jpg","null","reveal","image-keyboard-response","409","1537408","0.0-6.0-4.57","3249239","co38038","norming","","","","","","",""
"null","../img/tt/418tt.jpg","null","mooney2","image-keyboard-response","410","1539411","0.0-6.0-5.57","3249239","co38038","norming","","","","","","",""
"17792.880000080913","","","post_reveal_questions","survey-likert","411","1557207","0.0-6.0-6.57","3249239","co38038","norming","","","{""aha"":3}","[0]","../img/tt/418tt.jpg","",""
"null","<div style=""font-size:60px;""> </div>","null","fixation","html-keyboard-response","412","1557409","0.0-6.0-0.58","3249239","co38038","norming","","","","","","",""
"null","../img/tt/1096tt.jpg","null","mooney1","image-keyboard-response","413","1560413","0.0-6.0-1.58","3249239","co38038","norming","","","","","","",""
"5207.479999866337","","","post_mooney1_questions","survey-likert","414","1565624","0.0-6.0-2.58","3249239","co38038","norming","","","{""curiosity"":4,""confidence"":2}","[0,1]","../img/tt/1096tt.jpg","",""
"3987.540000118315","","","recognition","survey-text","415","1569615","0.0-6.0-3.58","3249239","co38038","norming","","","{""guess"":""paard""}","","../img/tt/1096tt.jpg","",""
"null","../img/gs/1096gs.jpg","null","reveal","image-keyboard-response","416","1571617","0.0-6.0-4.58","3249239","co38038","norming","","","","","","",""
"null","../img/tt/1096tt.jpg","null","mooney2","image-keyboard-response","417","1573621","0.0-6.0-5.58","3249239","co38038","norming","","","","","","",""
"3383.6300000548363","","","post_reveal_questions","survey-likert","418","1577007","0.0-6.0-6.58","3249239","co38038","norming","","","{""aha"":4}","[0]","../img/tt/1096tt.jpg","",""
"null","<div style=""font-size:60px;""> </div>","null","fixation","html-keyboard-response","419","1577209","0.0-6.0-0.59","3249239","co38038","norming","","","","","","",""
"null","../img/tt/306tt.jpg","null","mooney1","image-keyboard-response","420","1580213","0.0-6.0-1.59","3249239","co38038","norming","","","","","","",""
"5110.1099997758865","","","post_mooney1_questions","survey-likert","421","1585326","0.0-6.0-2.59","3249239","co38038","norming","","","{""curiosity"":5,""confidence"":5}","[0,1]","../img/tt/306tt.jpg","",""
"2313.4500002488494","","","recognition","survey-text","422","1587643","0.0-6.0-3.59","3249239","co38038","norming","","","{""guess"":""kikker""}","","../img/tt/306tt.jpg","",""
"null","../img/gs/306gs.jpg","null","reveal","image-keyboard-response","423","1589646","0.0-6.0-4.59","3249239","co38038","norming","","","","","","",""
"null","../img/tt/306tt.jpg","null","mooney2","image-keyboard-response","424","1591648","0.0-6.0-5.59","3249239","co38038","norming","","","","","","",""
"4406.16500005126","","","post_reveal_questions","survey-likert","425","1596057","0.0-6.0-6.59","3249239","co38038","norming","","","{""aha"":5}","[0]","../img/tt/306tt.jpg","",""
"null","<div style=""font-size:60px;""> </div>","null","fixation","html-keyboard-response","426","1596259","0.0-6.0-0.60","3249239","co38038","norming","","","","","","",""
"null","../img/tt/438tt.jpg","null","mooney1","image-keyboard-response","427","1599261","0.0-6.0-1.60","3249239","co38038","norming","","","","","","",""
"5854.359999764711","","","post_mooney1_questions","survey-likert","428","1605119","0.0-6.0-2.60","3249239","co38038","norming","","","{""curiosity"":4,""confidence"":2}","[0,1]","../img/tt/438tt.jpg","",""
"3420.0850003398955","","","recognition","survey-text","429","1608542","0.0-6.0-3.60","3249239","co38038","norming","","","{""guess"":""vogel""}","","../img/tt/438tt.jpg","",""
"null","../img/gs/438gs.jpg","null","reveal","image-keyboard-response","430","1610545","0.0-6.0-4.60","3249239","co38038","norming","","","","","","",""
"null","../img/tt/438tt.jpg","null","mooney2","image-keyboard-response","431","1612547","0.0-6.0-5.60","3249239","co38038","norming","","","","","","",""
"7387.46999995783","","","post_reveal_questions","survey-likert","432","1619937","0.0-6.0-6.60","3249239","co38038","norming","","","{""aha"":1}","[0]","../img/tt/438tt.jpg","",""
"null","<div style=""font-size:60px;""> </div>","null","fixation","html-keyboard-response","433","1620139","0.0-6.0-0.61","3249239","co38038","norming","","","","","","",""
"null","../img/tt/353tt.jpg","null","mooney1","image-keyboard-response","434","1623142","0.0-6.0-1.61","3249239","co38038","norming","","","","","","",""
"3890.1750002987683","","","post_mooney1_questions","survey-likert","435","1627036","0.0-6.0-2.61","3249239","co38038","norming","","","{""curiosity"":4,""confidence"":1}","[0,1]","../img/tt/353tt.jpg","",""
"1935.2850001305342","","","recognition","survey-text","436","1628975","0.0-6.0-3.61","3249239","co38038","norming","","","{""guess"":""vlinder""}","","../img/tt/353tt.jpg","",""
"null","../img/gs/353gs.jpg","null","reveal","image-keyboard-response","437","1630978","0.0-6.0-4.61","3249239","co38038","norming","","","","","","",""
"null","../img/tt/353tt.jpg","null","mooney2","image-keyboard-response","438","1632980","0.0-6.0-5.61","3249239","co38038","norming","","","","","","",""
"10421.149999834597","","","post_reveal_questions","survey-likert","439","1643404","0.0-6.0-6.61","3249239","co38038","norming","","","{""aha"":1}","[0]","../img/tt/353tt.jpg","",""
"null","<div style=""font-size:60px;""> </div>","null","fixation","html-keyboard-response","440","1643606","0.0-6.0-0.62","3249239","co38038","norming","","","","","","",""
"null","../img/tt/1173tt.jpg","null","mooney1","image-keyboard-response","441","1646609","0.0-6.0-1.62","3249239","co38038","norming","","","","","","",""
"5691.8649999424815","","","post_mooney1_questions","survey-likert","442","1652305","0.0-6.0-2.62","3249239","co38038","norming","","","{""curiosity"":4,""confidence"":2}","[0,1]","../img/tt/1173tt.jpg","",""
"5682.699999772012","","","recognition","survey-text","443","1657991","0.0-6.0-3.62","3249239","co38038","norming","","","{""guess"":""voetbal spelers""}","","../img/tt/1173tt.jpg","",""
"null","../img/gs/1173gs.jpg","null","reveal","image-keyboard-response","444","1659993","0.0-6.0-4.62","3249239","co38038","norming","","","","","","",""
"null","../img/tt/1173tt.jpg","null","mooney2","image-keyboard-response","445","1661995","0.0-6.0-5.62","3249239","co38038","norming","","","","","","",""
"5845.160000026226","","","post_reveal_questions","survey-likert","446","1667843","0.0-6.0-6.62","3249239","co38038","norming","","","{""aha"":3}","[0]","../img/tt/1173tt.jpg","",""
"null","<div style=""font-size:60px;""> </div>","null","fixation","html-keyboard-response","447","1668045","0.0-6.0-0.63","3249239","co38038","norming","","","","","","",""
"null","../img/tt/1046tt.jpg","null","mooney1","image-keyboard-response","448","1671049","0.0-6.0-1.63","3249239","co38038","norming","","","","","","",""
"4051.04500008747","","","post_mooney1_questions","survey-likert","449","1675103","0.0-6.0-2.63","3249239","co38038","norming","","","{""curiosity"":4,""confidence"":0}","[0,1]","../img/tt/1046tt.jpg","",""
"1934.940000064671","","","recognition","survey-text","450","1677042","0.0-6.0-3.63","3249239","co38038","norming","","","{""guess"":""""}","","../img/tt/1046tt.jpg","",""
"null","../img/gs/1046gs.jpg","null","reveal","image-keyboard-response","451","1679043","0.0-6.0-4.63","3249239","co38038","norming","","","","","","",""
"null","../img/tt/1046tt.jpg","null","mooney2","image-keyboard-response","452","1681047","0.0-6.0-5.63","3249239","co38038","norming","","","","","","",""
"3176.465000025928","","","post_reveal_questions","survey-likert","453","1684226","0.0-6.0-6.63","3249239","co38038","norming","","","{""aha"":2}","[0]","../img/tt/1046tt.jpg","",""
"null","<div style=""font-size:60px;""> </div>","null","fixation","html-keyboard-response","454","1684429","0.0-6.0-0.64","3249239","co38038","norming","","","","","","",""
"null","../img/tt/1089tt.jpg","null","mooney1","image-keyboard-response","455","1687432","0.0-6.0-1.64","3249239","co38038","norming","","","","","","",""
"3937.2900002636015","","","post_mooney1_questions","survey-likert","456","1691374","0.0-6.0-2.64","3249239","co38038","norming","","","{""curiosity"":4,""confidence"":2}","[0,1]","../img/tt/1089tt.jpg","",""
"1181.3100003637373","","","recognition","survey-text","457","1692560","0.0-6.0-3.64","3249239","co38038","norming","","","{""guess"":""koe""}","","../img/tt/1089tt.jpg","",""
"null","../img/gs/1089gs.jpg","null","reveal","image-keyboard-response","458","1694562","0.0-6.0-4.64","3249239","co38038","norming","","","","","","",""
"null","../img/tt/1089tt.jpg","null","mooney2","image-keyboard-response","459","1696564","0.0-6.0-5.64","3249239","co38038","norming","","","","","","",""
"6311.664999928325","","","post_reveal_questions","survey-likert","460","1702878","0.0-6.0-6.64","3249239","co38038","norming","","","{""aha"":1}","[0]","../img/tt/1089tt.jpg","",""
"null","<div style=""font-size:60px;""> </div>","null","fixation","html-keyboard-response","461","1703081","0.0-6.0-0.65","3249239","co38038","norming","","","","","","",""
"null","../img/tt/1107tt.jpg","null","mooney1","image-keyboard-response","462","1706084","0.0-6.0-1.65","3249239","co38038","norming","","","","","","",""
"6511.609999928623","","","post_mooney1_questions","survey-likert","463","1712598","0.0-6.0-2.65","3249239","co38038","norming","","","{""curiosity"":4,""confidence"":4}","[0,1]","../img/tt/1107tt.jpg","",""
"2082.1550004184246","","","recognition","survey-text","464","1714684","0.0-6.0-3.65","3249239","co38038","norming","","","{""guess"":""kitten""}","","../img/tt/1107tt.jpg","",""
"null","../img/gs/1107gs.jpg","null","reveal","image-keyboard-response","465","1716687","0.0-6.0-4.65","3249239","co38038","norming","","","","","","",""
"null","../img/tt/1107tt.jpg","null","mooney2","image-keyboard-response","466","1718689","0.0-6.0-5.65","3249239","co38038","norming","","","","","","",""
"4754.8150001093745","","","post_reveal_questions","survey-likert","467","1723447","0.0-6.0-6.65","3249239","co38038","norming","","","{""aha"":4}","[0]","../img/tt/1107tt.jpg","",""
"null","<div style=""font-size:60px;""> </div>","null","fixation","html-keyboard-response","468","1723649","0.0-6.0-0.66","3249239","co38038","norming","","","","","","",""
"null","../img/tt/1148tt.jpg","null","mooney1","image-keyboard-response","469","1726653","0.0-6.0-1.66","3249239","co38038","norming","","","","","","",""
"8007.470000069588","","","post_mooney1_questions","survey-likert","470","1734664","0.0-6.0-2.66","3249239","co38038","norming","","","{""curiosity"":4,""confidence"":0}","[0,1]","../img/tt/1148tt.jpg","",""
"1682.104999665171","","","recognition","survey-text","471","1736349","0.0-6.0-3.66","3249239","co38038","norming","","","{""guess"":""""}","","../img/tt/1148tt.jpg","",""
"null","../img/gs/1148gs.jpg","null","reveal","image-keyboard-response","472","1738351","0.0-6.0-4.66","3249239","co38038","norming","","","","","","",""
"null","../img/tt/1148tt.jpg","null","mooney2","image-keyboard-response","473","1740353","0.0-6.0-5.66","3249239","co38038","norming","","","","","","",""
"4465.5249998904765","","","post_reveal_questions","survey-likert","474","1744821","0.0-6.0-6.66","3249239","co38038","norming","","","{""aha"":1}","[0]","../img/tt/1148tt.jpg","",""
"null","<div style=""font-size:60px;""> </div>","null","fixation","html-keyboard-response","475","1745023","0.0-6.0-0.67","3249239","co38038","norming","","","","","","",""
"null","../img/tt/1061tt.jpg","null","mooney1","image-keyboard-response","476","1748026","0.0-6.0-1.67","3249239","co38038","norming","","","","","","",""
"4388.739999849349","","","post_mooney1_questions","survey-likert","477","1752418","0.0-6.0-2.67","3249239","co38038","norming","","","{""curiosity"":4,""confidence"":2}","[0,1]","../img/tt/1061tt.jpg","",""
"3421.8350001610816","","","recognition","survey-text","478","1755844","0.0-6.0-3.67","3249239","co38038","norming","","","{""guess"":""voetbal""}","","../img/tt/1061tt.jpg","",""
"null","../img/gs/1061gs.jpg","null","reveal","image-keyboard-response","479","1757846","0.0-6.0-4.67","3249239","co38038","norming","","","","","","",""
"null","../img/tt/1061tt.jpg","null","mooney2","image-keyboard-response","480","1759848","0.0-6.0-5.67","3249239","co38038","norming","","","","","","",""
"8697.869999799877","","","post_reveal_questions","survey-likert","481","1768548","0.0-6.0-6.67","3249239","co38038","norming","","","{""aha"":1}","[0]","../img/tt/1061tt.jpg","",""
"null","<div style=""font-size:60px;""> </div>","null","fixation","html-keyboard-response","482","1768751","0.0-6.0-0.68","3249239","co38038","norming","","","","","","",""
"null","../img/tt/064tt.jpg","null","mooney1","image-keyboard-response","483","1771755","0.0-6.0-1.68","3249239","co38038","norming","","","","","","",""
"7706.879999954253","","","post_mooney1_questions","survey-likert","484","1779465","0.0-6.0-2.68","3249239","co38038","norming","","","{""curiosity"":5,""confidence"":2}","[0,1]","../img/tt/064tt.jpg","",""
"2755.2450001239777","","","recognition","survey-text","485","1782224","0.0-6.0-3.68","3249239","co38038","norming","","","{""guess"":""vleermuis""}","","../img/tt/064tt.jpg","",""
"null","../img/gs/064gs.jpg","null","reveal","image-keyboard-response","486","1784225","0.0-6.0-4.68","3249239","co38038","norming","","","","","","",""
"null","../img/tt/064tt.jpg","null","mooney2","image-keyboard-response","487","1786228","0.0-6.0-5.68","3249239","co38038","norming","","","","","","",""
"3944.1800001077354","","","post_reveal_questions","survey-likert","488","1790174","0.0-6.0-6.68","3249239","co38038","norming","","","{""aha"":1}","[0]","../img/tt/064tt.jpg","",""
"null","<div style=""font-size:60px;""> </div>","null","fixation","html-keyboard-response","489","1790376","0.0-6.0-0.69","3249239","co38038","norming","","","","","","",""
"null","../img/tt/044tt.jpg","null","mooney1","image-keyboard-response","490","1793379","0.0-6.0-1.69","3249239","co38038","norming","","","","","","",""
"5692.3250001855195","","","post_mooney1_questions","survey-likert","491","1799075","0.0-6.0-2.69","3249239","co38038","norming","","","{""curiosity"":4,""confidence"":2}","[0,1]","../img/tt/044tt.jpg","",""
"4055.9899997897446","","","recognition","survey-text","492","1803134","0.0-6.0-3.69","3249239","co38038","norming","","","{""guess"":""computer""}","","../img/tt/044tt.jpg","",""
"null","../img/gs/044gs.jpg","null","reveal","image-keyboard-response","493","1805137","0.0-6.0-4.69","3249239","co38038","norming","","","","","","",""
"null","../img/tt/044tt.jpg","null","mooney2","image-keyboard-response","494","1807140","0.0-6.0-5.69","3249239","co38038","norming","","","","","","",""
"2244.334999937564","","","post_reveal_questions","survey-likert","495","1809387","0.0-6.0-6.69","3249239","co38038","norming","","","{""aha"":0}","[0]","../img/tt/044tt.jpg","",""
"null","<div style=""font-size:60px;""> </div>","null","fixation","html-keyboard-response","496","1809590","0.0-6.0-0.70","3249239","co38038","norming","","","","","","",""
"null","../img/tt/549tt.jpg","null","mooney1","image-keyboard-response","497","1812593","0.0-6.0-1.70","3249239","co38038","norming","","","","","","",""
"7554.550000000745","","","post_mooney1_questions","survey-likert","498","1820151","0.0-6.0-2.70","3249239","co38038","norming","","","{""curiosity"":4,""confidence"":0}","[0,1]","../img/tt/549tt.jpg","",""
"1329.7499995678663","","","recognition","survey-text","499","1821484","0.0-6.0-3.70","3249239","co38038","norming","","","{""guess"":""""}","","../img/tt/549tt.jpg","",""
"null","../img/gs/549gs.jpg","null","reveal","image-keyboard-response","500","1823486","0.0-6.0-4.70","3249239","co38038","norming","","","","","","",""
"null","../img/tt/549tt.jpg","null","mooney2","image-keyboard-response","501","1825489","0.0-6.0-5.70","3249239","co38038","norming","","","","","","",""
"3612.354999873787","","","post_reveal_questions","survey-likert","502","1829104","0.0-6.0-6.70","3249239","co38038","norming","","","{""aha"":1}","[0]","../img/tt/549tt.jpg","",""
"null","<div style=""font-size:60px;""> </div>","null","fixation","html-keyboard-response","503","1829307","0.0-6.0-0.71","3249239","co38038","norming","","","","","","",""
"null","../img/tt/1278tt.jpg","null","mooney1","image-keyboard-response","504","1832311","0.0-6.0-1.71","3249239","co38038","norming","","","","","","",""
"5837.435000110418","","","post_mooney1_questions","survey-likert","505","1838151","0.0-6.0-2.71","3249239","co38038","norming","","","{""curiosity"":3,""confidence"":2}","[0,1]","../img/tt/1278tt.jpg","",""
"1604.9000001512468","","","recognition","survey-text","506","1839760","0.0-6.0-3.71","3249239","co38038","norming","","","{""guess"":""kip""}","","../img/tt/1278tt.jpg","",""
"null","../img/gs/1278gs.jpg","null","reveal","image-keyboard-response","507","1841763","0.0-6.0-4.71","3249239","co38038","norming","","","","","","",""
"null","../img/tt/1278tt.jpg","null","mooney2","image-keyboard-response","508","1843765","0.0-6.0-5.71","3249239","co38038","norming","","","","","","",""
"4442.210000008345","","","post_reveal_questions","survey-likert","509","1848210","0.0-6.0-6.71","3249239","co38038","norming","","","{""aha"":2}","[0]","../img/tt/1278tt.jpg","",""
"null","<div style=""font-size:60px;""> </div>","null","fixation","html-keyboard-response","510","1848412","0.0-6.0-0.72","3249239","co38038","norming","","","","","","",""
"null","../img/tt/1243tt.jpg","null","mooney1","image-keyboard-response","511","1851416","0.0-6.0-1.72","3249239","co38038","norming","","","","","","",""
"4975.364999845624","","","post_mooney1_questions","survey-likert","512","1856398","0.0-6.0-2.72","3249239","co38038","norming","","","{""curiosity"":3,""confidence"":2}","[0,1]","../img/tt/1243tt.jpg","",""
"7481.370000168681","","","recognition","survey-text","513","1863882","0.0-6.0-3.72","3249239","co38038","norming","","","{""guess"":""gorilla ""}","","../img/tt/1243tt.jpg","",""
"null","../img/gs/1243gs.jpg","null","reveal","image-keyboard-response","514","1865885","0.0-6.0-4.72","3249239","co38038","norming","","","","","","",""
"null","../img/tt/1243tt.jpg","null","mooney2","image-keyboard-response","515","1867887","0.0-6.0-5.72","3249239","co38038","norming","","","","","","",""
"5381.469999905676","","","post_reveal_questions","survey-likert","516","1873272","0.0-6.0-6.72","3249239","co38038","norming","","","{""aha"":3}","[0]","../img/tt/1243tt.jpg","",""
"null","<div style=""font-size:60px;""> </div>","null","fixation","html-keyboard-response","517","1873473","0.0-6.0-0.73","3249239","co38038","norming","","","","","","",""
"null","../img/tt/270tt.jpg","null","mooney1","image-keyboard-response","518","1876477","0.0-6.0-1.73","3249239","co38038","norming","","","","","","",""
"5446.680000051856","","","post_mooney1_questions","survey-likert","519","1881927","0.0-6.0-2.73","3249239","co38038","norming","","","{""curiosity"":4,""confidence"":3}","[0,1]","../img/tt/270tt.jpg","",""
"2070.2450000680983","","","recognition","survey-text","520","1884001","0.0-6.0-3.73","3249239","co38038","norming","","","{""guess"":""hert""}","","../img/tt/270tt.jpg","",""
"null","../img/gs/270gs.jpg","null","reveal","image-keyboard-response","521","1886003","0.0-6.0-4.73","3249239","co38038","norming","","","","","","",""
"null","../img/tt/270tt.jpg","null","mooney2","image-keyboard-response","522","1888005","0.0-6.0-5.73","3249239","co38038","norming","","","","","","",""
"6169.294999912381","","","post_reveal_questions","survey-likert","523","1894177","0.0-6.0-6.73","3249239","co38038","norming","","","{""aha"":4}","[0]","../img/tt/270tt.jpg","",""
"null","<div style=""font-size:60px;""> </div>","null","fixation","html-keyboard-response","524","1894380","0.0-6.0-0.74","3249239","co38038","norming","","","","","","",""
"null","../img/tt/1247tt.jpg","null","mooney1","image-keyboard-response","525","1897384","0.0-6.0-1.74","3249239","co38038","norming","","","","","","",""
"4924.224999733269","","","post_mooney1_questions","survey-likert","526","1902312","0.0-6.0-2.74","3249239","co38038","norming","","","{""curiosity"":4,""confidence"":2}","[0,1]","../img/tt/1247tt.jpg","",""
"3209.6850001253188","","","recognition","survey-text","527","1905525","0.0-6.0-3.74","3249239","co38038","norming","","","{""guess"":""kikker""}","","../img/tt/1247tt.jpg","",""
"null","../img/gs/1247gs.jpg","null","reveal","image-keyboard-response","528","1907527","0.0-6.0-4.74","3249239","co38038","norming","","","","","","",""
"null","../img/tt/1247tt.jpg","null","mooney2","image-keyboard-response","529","1909529","0.0-6.0-5.74","3249239","co38038","norming","","","","","","",""
"5621.290000155568","","","post_reveal_questions","survey-likert","530","1915153","0.0-6.0-6.74","3249239","co38038","norming","","","{""aha"":3}","[0]","../img/tt/1247tt.jpg","",""
"null","<div style=""font-size:60px;""> </div>","null","fixation","html-keyboard-response","531","1915355","0.0-6.0-0.75","3249239","co38038","norming","","","","","","",""
"null","../img/tt/060tt.jpg","null","mooney1","image-keyboard-response","532","1918359","0.0-6.0-1.75","3249239","co38038","norming","","","","","","",""
"6734.7950004041195","","","post_mooney1_questions","survey-likert","533","1925097","0.0-6.0-2.75","3249239","co38038","norming","","","{""curiosity"":4,""confidence"":2}","[0,1]","../img/tt/060tt.jpg","",""
"8477.014999836683","","","recognition","survey-text","534","1933577","0.0-6.0-3.75","3249239","co38038","norming","","","{""guess"":""lievenheersbeestje ""}","","../img/tt/060tt.jpg","",""
"null","../img/gs/060gs.jpg","null","reveal","image-keyboard-response","535","1935580","0.0-6.0-4.75","3249239","co38038","norming","","","","","","",""
"null","../img/tt/060tt.jpg","null","mooney2","image-keyboard-response","536","1937583","0.0-6.0-5.75","3249239","co38038","norming","","","","","","",""
"3420.285000000149","","","post_reveal_questions","survey-likert","537","1941006","0.0-6.0-6.75","3249239","co38038","norming","","","{""aha"":2}","[0]","../img/tt/060tt.jpg","",""
"null","<div style=""font-size:60px;""> </div>","null","fixation","html-keyboard-response","538","1941209","0.0-6.0-0.76","3249239","co38038","norming","","","","","","",""
"null","../img/tt/1237tt.jpg","null","mooney1","image-keyboard-response","539","1944211","0.0-6.0-1.76","3249239","co38038","norming","","","","","","",""
"5371.7050002887845","","","post_mooney1_questions","survey-likert","540","1949587","0.0-6.0-2.76","3249239","co38038","norming","","","{""curiosity"":3,""confidence"":1}","[0,1]","../img/tt/1237tt.jpg","",""
"2575.7100000046194","","","recognition","survey-text","541","1952166","0.0-6.0-3.76","3249239","co38038","norming","","","{""guess"":""eend""}","","../img/tt/1237tt.jpg","",""
"null","../img/gs/1237gs.jpg","null","reveal","image-keyboard-response","542","1954168","0.0-6.0-4.76","3249239","co38038","norming","","","","","","",""
"null","../img/tt/1237tt.jpg","null","mooney2","image-keyboard-response","543","1956170","0.0-6.0-5.76","3249239","co38038","norming","","","","","","",""
"2468.6799999326468","","","post_reveal_questions","survey-likert","544","1958642","0.0-6.0-6.76","3249239","co38038","norming","","","{""aha"":4}","[0]","../img/tt/1237tt.jpg","",""
"null","<div style=""font-size:60px;""> </div>","null","fixation","html-keyboard-response","545","1958844","0.0-6.0-0.77","3249239","co38038","norming","","","","","","",""
"null","../img/tt/405tt.jpg","null","mooney1","image-keyboard-response","546","1961848","0.0-6.0-1.77","3249239","co38038","norming","","","","","","",""
"3476.270000450313","","","post_mooney1_questions","survey-likert","547","1965328","0.0-6.0-2.77","3249239","co38038","norming","","","{""curiosity"":4,""confidence"":3}","[0,1]","../img/tt/405tt.jpg","",""
"3262.7349998801947","","","recognition","survey-text","548","1968593","0.0-6.0-3.77","3249239","co38038","norming","","","{""guess"":""koala ""}","","../img/tt/405tt.jpg","",""
"null","../img/gs/405gs.jpg","null","reveal","image-keyboard-response","549","1970597","0.0-6.0-4.77","3249239","co38038","norming","","","","","","",""
"null","../img/tt/405tt.jpg","null","mooney2","image-keyboard-response","550","1972599","0.0-6.0-5.77","3249239","co38038","norming","","","","","","",""
"3766.425000037998","","","post_reveal_questions","survey-likert","551","1976368","0.0-6.0-6.77","3249239","co38038","norming","","","{""aha"":4}","[0]","../img/tt/405tt.jpg","",""
"null","<div style=""font-size:60px;""> </div>","null","fixation","html-keyboard-response","552","1976570","0.0-6.0-0.78","3249239","co38038","norming","","","","","","",""
