"rt","stimulus","key_press","test_part","trial_type","trial_index","time_elapsed","internal_node_id","totalTime","subject","experiment_name","button_pressed","success","responses","question_order","currentStim","old","correct"
"8588.289999985136","Welcome to the experiment. This is an online experiment so please don't close the tab/window until we say goodbye.  Press any key to begin.","32","instructions","html-keyboard-response","0","8788","0.0-0.0","2638735","co39142","norming","","","","","","",""
"7461.310000042431","<div style='word-wrap: break-word; width: 900px'><h3>Please consider this information carefully before deciding whether to participate in this research</h3><ul style='text-align: left; font-size: .8em;'><li><b>Purpose of the research</b>: To examine how people process images.</li><li><b>What you will do in this research</b>:  Stimuli (images) will be presented on the computer and you will be asked different questions about them.</li><li><b>Time required</b>: Participation will take between 45 and 60 minutes to complete.</li><li><b>Risks</b>:  There are no anticipated risks associated with participating in this study. The effects of participating should be comparable to those you would experience from viewing a computer monitor for 30 minutes and using a mouse or keyboard.</li><li><b>Benefits</b>:  This study provides no benefits to you individually except for the credit. The study provides important information about the nature of perception and learning.</li><li><b>Confidentiality</b>:  Your participation in this study will remain confidential. No personally identifiable information will be associated with your data. Your de-identified data may be shared with other researchers and used in future projects.</li><li><b>Participation and withdrawal</b>:  Your participation in this study is completely voluntary and you may refuse to participate or you may choose to withdraw at any time without penalty.</li><li><b>How to contact the researchers</b>: If you have questions or concerns about your participation or payment, or want to request a summary of research findings, please contact Sander Van de Cruys (KU Leuven), at sander.vandecruys@kuleuven.be.</li></ul><p>The nature and purpose of this research have been sufficiently explained and I agree to participate in this study.  I understand that I am free to withdraw at any time without incurring any penalty.</p><p>Please consent by clicking the button below to continue. Otherwise, please exit the study at this time.</p></div>","","instructions","html-button-response","1","16252","0.0-1.0","2638735","co39142","norming","0","","","","","",""
"","","","instructions","fullscreen","2","20795","0.0-2.0","2638735","co39142","norming","","true","","","","",""
"23107.835000031628","","","sona","survey-html-form","3","43903","0.0-3.0","2638735","co39142","norming","","","[{""name"":""sonaid"",""value"":""39142""},{""name"":""debrief"",""value"":""no""},{""name"":""datajoin"",""value"":""yes""}]","","","",""
"62569.390000076964","<div style='word-wrap: break-word; width: 900px'><h3>Instructions</h3><p>This experiment will have 3 parts. In the first part you will see a series of distorted images like the one below on the left. As you can see in the righthand image, the distorted images are derived from actual photographs. In what follows, you will <strong>briefly</strong> be presented with <strong>only</strong> the distorted image.</p> <div style='float: left; margin-right: 20px;'><img src='../img/018tt.jpg' height='250' width='250'></img></div><div style='float: right; margin-left: 20px;'><img src='../img/018gs.jpg' height='250' width='250'></img></div><p>Subsequently you will be asked a few questions about the image: One question on how <strong>curious</strong> you are about the solution and one on how <strong>confident</strong> you are that you know the solution.</p>Next, we ask you to make a guess on what is in the image. Note that it is OK to name just the <strong>basic level category</strong>. For example when you see a parrot in the image, 'parrot' will obviously be a correct answer but also correct is 'bird'. However, 'animal' will <strong>not</strong> be counted as a correct response. For the example above, 'rose' would be correct or 'flower', but not 'plant'. When soccer players are depicted, 'soccer', 'football', 'soccer players' will be correct, but not 'humans', 'outdoors', or 'sports'. You do not need to describe the image in full, just name the main object in it <strong>in one or two words</strong>. All images depict objects from one of the following broad level categories: animals, inanimate objects, plants, sports, vehicles, and food. Recognizing means knowing <strong>more</strong> than these broad labels for a given image. But we always encourage you to <strong>make a guess</strong> if you can. Note that you are allowed to use <strong>Dutch and English</strong> in your answers, whatever comes easiest for you.</p><p>Press any key to continue.</p></div>","32","instructions","html-keyboard-response","4","106468","0.0-4.0","2638735","co39142","norming","","","","","","",""
"16922.245000023395","<div style='word-wrap: break-word; width: 900px'><h3>Instructions</h3> <p>Next, the solution image will be revealed to you and you'll be asked to indicate how strong your <strong>aha-experience</strong> was after seeing the solution. This describes the positive feeling of the 'click' you sometimes experience, when the pieces of the 'puzzle' fall together and you suddenly have 'insight' in the image.</p><img src='aha.jpg' height='188' width='250'></img><p>Note that there are no right or wrong answers. We are interested in what <strong>you</strong> see in the image and how <strong>you</strong> feel about it.</p><p>Press any key to start the experiment.</p></div>","32","instructions","html-keyboard-response","5","123389","0.0-5.0","2638735","co39142","norming","","","","","","",""
"null","<div style=""font-size:60px;""> </div>","null","fixation","html-keyboard-response","6","123595","0.0-6.0-0.0","2638735","co39142","norming","","","","","","",""
"null","../img/tt/1254tt.jpg","null","mooney1","image-keyboard-response","7","126603","0.0-6.0-1.0","2638735","co39142","norming","","","","","","",""
"16175.015000044368","","","post_mooney1_questions","survey-likert","8","142779","0.0-6.0-2.0","2638735","co39142","norming","","","{""curiosity"":4,""confidence"":1}","[0,1]","../img/tt/1254tt.jpg","",""
"7963.980000000447","","","recognition","survey-text","9","150748","0.0-6.0-3.0","2638735","co39142","norming","","","{""guess"":""dog""}","","../img/tt/1254tt.jpg","",""
"null","../img/gs/1254gs.jpg","null","reveal","image-keyboard-response","10","152751","0.0-6.0-4.0","2638735","co39142","norming","","","","","","",""
"null","../img/tt/1254tt.jpg","null","mooney2","image-keyboard-response","11","154756","0.0-6.0-5.0","2638735","co39142","norming","","","","","","",""
"3227.599999983795","","","post_reveal_questions","survey-likert","12","157985","0.0-6.0-6.0","2638735","co39142","norming","","","{""aha"":0}","[0]","../img/tt/1254tt.jpg","",""
"null","<div style=""font-size:60px;""> </div>","null","fixation","html-keyboard-response","13","158189","0.0-6.0-0.1","2638735","co39142","norming","","","","","","",""
"null","../img/tt/1243tt.jpg","null","mooney1","image-keyboard-response","14","161196","0.0-6.0-1.1","2638735","co39142","norming","","","","","","",""
"3893.9549999777228","","","post_mooney1_questions","survey-likert","15","165092","0.0-6.0-2.1","2638735","co39142","norming","","","{""curiosity"":4,""confidence"":1}","[0,1]","../img/tt/1243tt.jpg","",""
"5887.800000025891","","","recognition","survey-text","16","170983","0.0-6.0-3.1","2638735","co39142","norming","","","{""guess"":""kangaroo""}","","../img/tt/1243tt.jpg","",""
"null","../img/gs/1243gs.jpg","null","reveal","image-keyboard-response","17","172988","0.0-6.0-4.1","2638735","co39142","norming","","","","","","",""
"null","../img/tt/1243tt.jpg","null","mooney2","image-keyboard-response","18","174993","0.0-6.0-5.1","2638735","co39142","norming","","","","","","",""
"4674.609999987297","","","post_reveal_questions","survey-likert","19","179669","0.0-6.0-6.1","2638735","co39142","norming","","","{""aha"":1}","[0]","../img/tt/1243tt.jpg","",""
"null","<div style=""font-size:60px;""> </div>","null","fixation","html-keyboard-response","20","179876","0.0-6.0-0.2","2638735","co39142","norming","","","","","","",""
"null","../img/tt/378tt.jpg","null","mooney1","image-keyboard-response","21","182883","0.0-6.0-1.2","2638735","co39142","norming","","","","","","",""
"4059.1199999907985","","","post_mooney1_questions","survey-likert","22","186944","0.0-6.0-2.2","2638735","co39142","norming","","","{""curiosity"":4,""confidence"":1}","[0,1]","../img/tt/378tt.jpg","",""
"4262.525000027381","","","recognition","survey-text","23","191210","0.0-6.0-3.2","2638735","co39142","norming","","","{""guess"":""stinkdier""}","","../img/tt/378tt.jpg","",""
"null","../img/gs/378gs.jpg","null","reveal","image-keyboard-response","24","193216","0.0-6.0-4.2","2638735","co39142","norming","","","","","","",""
"null","../img/tt/378tt.jpg","null","mooney2","image-keyboard-response","25","195221","0.0-6.0-5.2","2638735","co39142","norming","","","","","","",""
"2666.3200000766665","","","post_reveal_questions","survey-likert","26","197889","0.0-6.0-6.2","2638735","co39142","norming","","","{""aha"":1}","[0]","../img/tt/378tt.jpg","",""
"null","<div style=""font-size:60px;""> </div>","null","fixation","html-keyboard-response","27","198096","0.0-6.0-0.3","2638735","co39142","norming","","","","","","",""
"null","../img/tt/524tt.jpg","null","mooney1","image-keyboard-response","28","201103","0.0-6.0-1.3","2638735","co39142","norming","","","","","","",""
"4663.0300000542775","","","post_mooney1_questions","survey-likert","29","205768","0.0-6.0-2.3","2638735","co39142","norming","","","{""curiosity"":1,""confidence"":5}","[0,1]","../img/tt/524tt.jpg","",""
"3077.22500001546","","","recognition","survey-text","30","208849","0.0-6.0-3.3","2638735","co39142","norming","","","{""guess"":""olifant""}","","../img/tt/524tt.jpg","",""
"null","../img/gs/524gs.jpg","null","reveal","image-keyboard-response","31","210855","0.0-6.0-4.3","2638735","co39142","norming","","","","","","",""
"null","../img/tt/524tt.jpg","null","mooney2","image-keyboard-response","32","212860","0.0-6.0-5.3","2638735","co39142","norming","","","","","","",""
"2171.7300000600517","","","post_reveal_questions","survey-likert","33","215034","0.0-6.0-6.3","2638735","co39142","norming","","","{""aha"":1}","[0]","../img/tt/524tt.jpg","",""
"null","<div style=""font-size:60px;""> </div>","null","fixation","html-keyboard-response","34","215236","0.0-6.0-0.4","2638735","co39142","norming","","","","","","",""
"null","../img/tt/270tt.jpg","null","mooney1","image-keyboard-response","35","218243","0.0-6.0-1.4","2638735","co39142","norming","","","","","","",""
"9463.31000002101","","","post_mooney1_questions","survey-likert","36","227707","0.0-6.0-2.4","2638735","co39142","norming","","","{""curiosity"":3,""confidence"":1}","[0,1]","../img/tt/270tt.jpg","",""
"2522.0599999884143","","","recognition","survey-text","37","230234","0.0-6.0-3.4","2638735","co39142","norming","","","{""guess"":""hert""}","","../img/tt/270tt.jpg","",""
"null","../img/gs/270gs.jpg","null","reveal","image-keyboard-response","38","232236","0.0-6.0-4.4","2638735","co39142","norming","","","","","","",""
"null","../img/tt/270tt.jpg","null","mooney2","image-keyboard-response","39","234239","0.0-6.0-5.4","2638735","co39142","norming","","","","","","",""
"3163.029999937862","","","post_reveal_questions","survey-likert","40","237403","0.0-6.0-6.4","2638735","co39142","norming","","","{""aha"":4}","[0]","../img/tt/270tt.jpg","",""
"null","<div style=""font-size:60px;""> </div>","null","fixation","html-keyboard-response","41","237610","0.0-6.0-0.5","2638735","co39142","norming","","","","","","",""
"null","../img/tt/111tt.jpg","null","mooney1","image-keyboard-response","42","240613","0.0-6.0-1.5","2638735","co39142","norming","","","","","","",""
"5789.660000009462","","","post_mooney1_questions","survey-likert","43","246404","0.0-6.0-2.5","2638735","co39142","norming","","","{""curiosity"":5,""confidence"":1}","[0,1]","../img/tt/111tt.jpg","",""
"2423.4450000803918","","","recognition","survey-text","44","248832","0.0-6.0-3.5","2638735","co39142","norming","","","{""guess"":""telefoon""}","","../img/tt/111tt.jpg","",""
"null","../img/gs/111gs.jpg","null","reveal","image-keyboard-response","45","250838","0.0-6.0-4.5","2638735","co39142","norming","","","","","","",""
"null","../img/tt/111tt.jpg","null","mooney2","image-keyboard-response","46","252843","0.0-6.0-5.5","2638735","co39142","norming","","","","","","",""
"3200.7400000002235","","","post_reveal_questions","survey-likert","47","256045","0.0-6.0-6.5","2638735","co39142","norming","","","{""aha"":3}","[0]","../img/tt/111tt.jpg","",""
"null","<div style=""font-size:60px;""> </div>","null","fixation","html-keyboard-response","48","256248","0.0-6.0-0.6","2638735","co39142","norming","","","","","","",""
"null","../img/tt/603tt.jpg","null","mooney1","image-keyboard-response","49","259250","0.0-6.0-1.6","2638735","co39142","norming","","","","","","",""
"4218.489999999292","","","post_mooney1_questions","survey-likert","50","263470","0.0-6.0-2.6","2638735","co39142","norming","","","{""curiosity"":5,""confidence"":0}","[0,1]","../img/tt/603tt.jpg","",""
"6238.684999989346","","","recognition","survey-text","51","269712","0.0-6.0-3.6","2638735","co39142","norming","","","{""guess"":""geen idee""}","","../img/tt/603tt.jpg","",""
"null","../img/gs/603gs.jpg","null","reveal","image-keyboard-response","52","271714","0.0-6.0-4.6","2638735","co39142","norming","","","","","","",""
"null","../img/tt/603tt.jpg","null","mooney2","image-keyboard-response","53","273717","0.0-6.0-5.6","2638735","co39142","norming","","","","","","",""
"2870.7599999615923","","","post_reveal_questions","survey-likert","54","276590","0.0-6.0-6.6","2638735","co39142","norming","","","{""aha"":1}","[0]","../img/tt/603tt.jpg","",""
"null","<div style=""font-size:60px;""> </div>","null","fixation","html-keyboard-response","55","276797","0.0-6.0-0.7","2638735","co39142","norming","","","","","","",""
"null","../img/tt/031tt.jpg","null","mooney1","image-keyboard-response","56","279798","0.0-6.0-1.7","2638735","co39142","norming","","","","","","",""
"3506.24500005506","","","post_mooney1_questions","survey-likert","57","283306","0.0-6.0-2.7","2638735","co39142","norming","","","{""curiosity"":4,""confidence"":1}","[0,1]","../img/tt/031tt.jpg","",""
"1674.7850000392646","","","recognition","survey-text","58","284985","0.0-6.0-3.7","2638735","co39142","norming","","","{""guess"":""man""}","","../img/tt/031tt.jpg","",""
"null","../img/gs/031gs.jpg","null","reveal","image-keyboard-response","59","286988","0.0-6.0-4.7","2638735","co39142","norming","","","","","","",""
"null","../img/tt/031tt.jpg","null","mooney2","image-keyboard-response","60","288993","0.0-6.0-5.7","2638735","co39142","norming","","","","","","",""
"4685.449999989942","","","post_reveal_questions","survey-likert","61","293679","0.0-6.0-6.7","2638735","co39142","norming","","","{""aha"":1}","[0]","../img/tt/031tt.jpg","",""
"null","<div style=""font-size:60px;""> </div>","null","fixation","html-keyboard-response","62","293886","0.0-6.0-0.8","2638735","co39142","norming","","","","","","",""
"null","../img/tt/1161tt.jpg","null","mooney1","image-keyboard-response","63","296890","0.0-6.0-1.8","2638735","co39142","norming","","","","","","",""
"3592.185000074096","","","post_mooney1_questions","survey-likert","64","300484","0.0-6.0-2.8","2638735","co39142","norming","","","{""curiosity"":3,""confidence"":4}","[0,1]","../img/tt/1161tt.jpg","",""
"5045.840000035241","","","recognition","survey-text","65","305534","0.0-6.0-3.8","2638735","co39142","norming","","","{""guess"":""bergbeklimmer""}","","../img/tt/1161tt.jpg","",""
"null","../img/gs/1161gs.jpg","null","reveal","image-keyboard-response","66","307540","0.0-6.0-4.8","2638735","co39142","norming","","","","","","",""
"null","../img/tt/1161tt.jpg","null","mooney2","image-keyboard-response","67","309542","0.0-6.0-5.8","2638735","co39142","norming","","","","","","",""
"6469.054999994114","","","post_reveal_questions","survey-likert","68","316013","0.0-6.0-6.8","2638735","co39142","norming","","","{""aha"":5}","[0]","../img/tt/1161tt.jpg","",""
"null","<div style=""font-size:60px;""> </div>","null","fixation","html-keyboard-response","69","316221","0.0-6.0-0.9","2638735","co39142","norming","","","","","","",""
"null","../img/tt/084tt.jpg","null","mooney1","image-keyboard-response","70","319223","0.0-6.0-1.9","2638735","co39142","norming","","","","","","",""
"4192.939999978989","","","post_mooney1_questions","survey-likert","71","323417","0.0-6.0-2.9","2638735","co39142","norming","","","{""curiosity"":1,""confidence"":5}","[0,1]","../img/tt/084tt.jpg","",""
"2158.5699999704957","","","recognition","survey-text","72","325580","0.0-6.0-3.9","2638735","co39142","norming","","","{""guess"":""vogel""}","","../img/tt/084tt.jpg","",""
"null","../img/gs/084gs.jpg","null","reveal","image-keyboard-response","73","327586","0.0-6.0-4.9","2638735","co39142","norming","","","","","","",""
"null","../img/tt/084tt.jpg","null","mooney2","image-keyboard-response","74","329588","0.0-6.0-5.9","2638735","co39142","norming","","","","","","",""
"2883.6349999764934","","","post_reveal_questions","survey-likert","75","332473","0.0-6.0-6.9","2638735","co39142","norming","","","{""aha"":5}","[0]","../img/tt/084tt.jpg","",""
"null","<div style=""font-size:60px;""> </div>","null","fixation","html-keyboard-response","76","332678","0.0-6.0-0.10","2638735","co39142","norming","","","","","","",""
"null","../img/tt/019tt.jpg","null","mooney1","image-keyboard-response","77","335685","0.0-6.0-1.10","2638735","co39142","norming","","","","","","",""
"5474.790000007488","","","post_mooney1_questions","survey-likert","78","341162","0.0-6.0-2.10","2638735","co39142","norming","","","{""curiosity"":1,""confidence"":5}","[0,1]","../img/tt/019tt.jpg","",""
"3402.864999952726","","","recognition","survey-text","79","344569","0.0-6.0-3.10","2638735","co39142","norming","","","{""guess"":""vliegtuig""}","","../img/tt/019tt.jpg","",""
"null","../img/gs/019gs.jpg","null","reveal","image-keyboard-response","80","346575","0.0-6.0-4.10","2638735","co39142","norming","","","","","","",""
"null","../img/tt/019tt.jpg","null","mooney2","image-keyboard-response","81","348580","0.0-6.0-5.10","2638735","co39142","norming","","","","","","",""
"4276.884999941103","","","post_reveal_questions","survey-likert","82","352858","0.0-6.0-6.10","2638735","co39142","norming","","","{""aha"":1}","[0]","../img/tt/019tt.jpg","",""
"null","<div style=""font-size:60px;""> </div>","null","fixation","html-keyboard-response","83","353060","0.0-6.0-0.11","2638735","co39142","norming","","","","","","",""
"null","../img/tt/301tt.jpg","null","mooney1","image-keyboard-response","84","356067","0.0-6.0-1.11","2638735","co39142","norming","","","","","","",""
"3718.974999967031","","","post_mooney1_questions","survey-likert","85","359787","0.0-6.0-2.11","2638735","co39142","norming","","","{""curiosity"":5,""confidence"":0}","[0,1]","../img/tt/301tt.jpg","",""
"5250.125000020489","","","recognition","survey-text","86","365041","0.0-6.0-3.11","2638735","co39142","norming","","","{""guess"":""geen idee""}","","../img/tt/301tt.jpg","",""
"null","../img/gs/301gs.jpg","null","reveal","image-keyboard-response","87","367047","0.0-6.0-4.11","2638735","co39142","norming","","","","","","",""
"null","../img/tt/301tt.jpg","null","mooney2","image-keyboard-response","88","369051","0.0-6.0-5.11","2638735","co39142","norming","","","","","","",""
"5269.7949999710545","","","post_reveal_questions","survey-likert","89","374322","0.0-6.0-6.11","2638735","co39142","norming","","","{""aha"":3}","[0]","../img/tt/301tt.jpg","",""
"null","<div style=""font-size:60px;""> </div>","null","fixation","html-keyboard-response","90","374525","0.0-6.0-0.12","2638735","co39142","norming","","","","","","",""
"null","../img/tt/1142tt.jpg","null","mooney1","image-keyboard-response","91","377532","0.0-6.0-1.12","2638735","co39142","norming","","","","","","",""
"7752.280000015162","","","post_mooney1_questions","survey-likert","92","385285","0.0-6.0-2.12","2638735","co39142","norming","","","{""curiosity"":2,""confidence"":4}","[0,1]","../img/tt/1142tt.jpg","",""
"6049.1499999770895","","","recognition","survey-text","93","391338","0.0-6.0-3.12","2638735","co39142","norming","","","{""guess"":""tennisspeler""}","","../img/tt/1142tt.jpg","",""
"null","../img/gs/1142gs.jpg","null","reveal","image-keyboard-response","94","393343","0.0-6.0-4.12","2638735","co39142","norming","","","","","","",""
"null","../img/tt/1142tt.jpg","null","mooney2","image-keyboard-response","95","395347","0.0-6.0-5.12","2638735","co39142","norming","","","","","","",""
"2970.7450000569224","","","post_reveal_questions","survey-likert","96","398319","0.0-6.0-6.12","2638735","co39142","norming","","","{""aha"":3}","[0]","../img/tt/1142tt.jpg","",""
"null","<div style=""font-size:60px;""> </div>","null","fixation","html-keyboard-response","97","398524","0.0-6.0-0.13","2638735","co39142","norming","","","","","","",""
"null","../img/tt/1189tt.jpg","null","mooney1","image-keyboard-response","98","401531","0.0-6.0-1.13","2638735","co39142","norming","","","","","","",""
"12031.504999962635","","","post_mooney1_questions","survey-likert","99","413563","0.0-6.0-2.13","2638735","co39142","norming","","","{""curiosity"":4,""confidence"":1}","[0,1]","../img/tt/1189tt.jpg","",""
"12337.040000013076","","","recognition","survey-text","100","425903","0.0-6.0-3.13","2638735","co39142","norming","","","{""guess"":""geen idee""}","","../img/tt/1189tt.jpg","",""
"null","../img/gs/1189gs.jpg","null","reveal","image-keyboard-response","101","427909","0.0-6.0-4.13","2638735","co39142","norming","","","","","","",""
"null","../img/tt/1189tt.jpg","null","mooney2","image-keyboard-response","102","429910","0.0-6.0-5.13","2638735","co39142","norming","","","","","","",""
"2065.539999981411","","","post_reveal_questions","survey-likert","103","431977","0.0-6.0-6.13","2638735","co39142","norming","","","{""aha"":1}","[0]","../img/tt/1189tt.jpg","",""
"null","<div style=""font-size:60px;""> </div>","null","fixation","html-keyboard-response","104","432182","0.0-6.0-0.14","2638735","co39142","norming","","","","","","",""
"null","../img/tt/020tt.jpg","null","mooney1","image-keyboard-response","105","435189","0.0-6.0-1.14","2638735","co39142","norming","","","","","","",""
"20183.16999997478","","","post_mooney1_questions","survey-likert","106","455372","0.0-6.0-2.14","2638735","co39142","norming","","","{""curiosity"":4,""confidence"":1}","[0,1]","../img/tt/020tt.jpg","",""
"2160.710000083782","","","recognition","survey-text","107","457536","0.0-6.0-3.14","2638735","co39142","norming","","","{""guess"":""reptiel""}","","../img/tt/020tt.jpg","",""
"null","../img/gs/020gs.jpg","null","reveal","image-keyboard-response","108","459542","0.0-6.0-4.14","2638735","co39142","norming","","","","","","",""
"null","../img/tt/020tt.jpg","null","mooney2","image-keyboard-response","109","461548","0.0-6.0-5.14","2638735","co39142","norming","","","","","","",""
"2335.3200000710785","","","post_reveal_questions","survey-likert","110","463884","0.0-6.0-6.14","2638735","co39142","norming","","","{""aha"":2}","[0]","../img/tt/020tt.jpg","",""
"null","<div style=""font-size:60px;""> </div>","null","fixation","html-keyboard-response","111","464092","0.0-6.0-0.15","2638735","co39142","norming","","","","","","",""
"null","../img/tt/1159tt.jpg","null","mooney1","image-keyboard-response","112","467098","0.0-6.0-1.15","2638735","co39142","norming","","","","","","",""
"4055.3000000072643","","","post_mooney1_questions","survey-likert","113","471155","0.0-6.0-2.15","2638735","co39142","norming","","","{""curiosity"":3,""confidence"":2}","[0,1]","../img/tt/1159tt.jpg","",""
"3416.1950000561774","","","recognition","survey-text","114","474575","0.0-6.0-3.15","2638735","co39142","norming","","","{""guess"":""golver""}","","../img/tt/1159tt.jpg","",""
"null","../img/gs/1159gs.jpg","null","reveal","image-keyboard-response","115","476580","0.0-6.0-4.15","2638735","co39142","norming","","","","","","",""
"null","../img/tt/1159tt.jpg","null","mooney2","image-keyboard-response","116","478585","0.0-6.0-5.15","2638735","co39142","norming","","","","","","",""
"3628.719999920577","","","post_reveal_questions","survey-likert","117","482215","0.0-6.0-6.15","2638735","co39142","norming","","","{""aha"":2}","[0]","../img/tt/1159tt.jpg","",""
"null","<div style=""font-size:60px;""> </div>","null","fixation","html-keyboard-response","118","482422","0.0-6.0-0.16","2638735","co39142","norming","","","","","","",""
"null","../img/tt/032tt.jpg","null","mooney1","image-keyboard-response","119","485429","0.0-6.0-1.16","2638735","co39142","norming","","","","","","",""
"5364.309999975376","","","post_mooney1_questions","survey-likert","120","490795","0.0-6.0-2.16","2638735","co39142","norming","","","{""curiosity"":4,""confidence"":1}","[0,1]","../img/tt/032tt.jpg","",""
"2539.2500000307336","","","recognition","survey-text","121","493339","0.0-6.0-3.16","2638735","co39142","norming","","","{""guess"":""achtbaan""}","","../img/tt/032tt.jpg","",""
"null","../img/gs/032gs.jpg","null","reveal","image-keyboard-response","122","495345","0.0-6.0-4.16","2638735","co39142","norming","","","","","","",""
"null","../img/tt/032tt.jpg","null","mooney2","image-keyboard-response","123","497348","0.0-6.0-5.16","2638735","co39142","norming","","","","","","",""
"6378.550000023097","","","post_reveal_questions","survey-likert","124","503728","0.0-6.0-6.16","2638735","co39142","norming","","","{""aha"":2}","[0]","../img/tt/032tt.jpg","",""
"null","<div style=""font-size:60px;""> </div>","null","fixation","html-keyboard-response","125","503935","0.0-6.0-0.17","2638735","co39142","norming","","","","","","",""
"null","../img/tt/135tt.jpg","null","mooney1","image-keyboard-response","126","506942","0.0-6.0-1.17","2638735","co39142","norming","","","","","","",""
"4396.904999972321","","","post_mooney1_questions","survey-likert","127","511340","0.0-6.0-2.17","2638735","co39142","norming","","","{""curiosity"":4,""confidence"":1}","[0,1]","../img/tt/135tt.jpg","",""
"3709.7700000740588","","","recognition","survey-text","128","515054","0.0-6.0-3.17","2638735","co39142","norming","","","{""guess"":""hoed""}","","../img/tt/135tt.jpg","",""
"null","../img/gs/135gs.jpg","null","reveal","image-keyboard-response","129","517060","0.0-6.0-4.17","2638735","co39142","norming","","","","","","",""
"null","../img/tt/135tt.jpg","null","mooney2","image-keyboard-response","130","519061","0.0-6.0-5.17","2638735","co39142","norming","","","","","","",""
"2912.015000008978","","","post_reveal_questions","survey-likert","131","521975","0.0-6.0-6.17","2638735","co39142","norming","","","{""aha"":4}","[0]","../img/tt/135tt.jpg","",""
"null","<div style=""font-size:60px;""> </div>","null","fixation","html-keyboard-response","132","522182","0.0-6.0-0.18","2638735","co39142","norming","","","","","","",""
"null","../img/tt/1070tt.jpg","null","mooney1","image-keyboard-response","133","525188","0.0-6.0-1.18","2638735","co39142","norming","","","","","","",""
"4799.13000005763","","","post_mooney1_questions","survey-likert","134","529989","0.0-6.0-2.18","2638735","co39142","norming","","","{""curiosity"":4,""confidence"":1}","[0,1]","../img/tt/1070tt.jpg","",""
"3118.1050000013784","","","recognition","survey-text","135","533111","0.0-6.0-3.18","2638735","co39142","norming","","","{""guess"":""bed""}","","../img/tt/1070tt.jpg","",""
"null","../img/gs/1070gs.jpg","null","reveal","image-keyboard-response","136","535113","0.0-6.0-4.18","2638735","co39142","norming","","","","","","",""
"null","../img/tt/1070tt.jpg","null","mooney2","image-keyboard-response","137","537117","0.0-6.0-5.18","2638735","co39142","norming","","","","","","",""
"3974.5200000470504","","","post_reveal_questions","survey-likert","138","541093","0.0-6.0-6.18","2638735","co39142","norming","","","{""aha"":1}","[0]","../img/tt/1070tt.jpg","",""
"null","<div style=""font-size:60px;""> </div>","null","fixation","html-keyboard-response","139","541300","0.0-6.0-0.19","2638735","co39142","norming","","","","","","",""
"null","../img/tt/1260tt.jpg","null","mooney1","image-keyboard-response","140","544306","0.0-6.0-1.19","2638735","co39142","norming","","","","","","",""
"4551.659999997355","","","post_mooney1_questions","survey-likert","141","548860","0.0-6.0-2.19","2638735","co39142","norming","","","{""curiosity"":4,""confidence"":0}","[0,1]","../img/tt/1260tt.jpg","",""
"1828.9100000401959","","","recognition","survey-text","142","550693","0.0-6.0-3.19","2638735","co39142","norming","","","{""guess"":""tent""}","","../img/tt/1260tt.jpg","",""
"null","../img/gs/1260gs.jpg","null","reveal","image-keyboard-response","143","552699","0.0-6.0-4.19","2638735","co39142","norming","","","","","","",""
"null","../img/tt/1260tt.jpg","null","mooney2","image-keyboard-response","144","554700","0.0-6.0-5.19","2638735","co39142","norming","","","","","","",""
"5756.374999997206","","","post_reveal_questions","survey-likert","145","560457","0.0-6.0-6.19","2638735","co39142","norming","","","{""aha"":2}","[0]","../img/tt/1260tt.jpg","",""
"null","<div style=""font-size:60px;""> </div>","null","fixation","html-keyboard-response","146","560661","0.0-6.0-0.20","2638735","co39142","norming","","","","","","",""
"null","../img/tt/534tt.jpg","null","mooney1","image-keyboard-response","147","563668","0.0-6.0-1.20","2638735","co39142","norming","","","","","","",""
"3792.1649999916553","","","post_mooney1_questions","survey-likert","148","567462","0.0-6.0-2.20","2638735","co39142","norming","","","{""curiosity"":3,""confidence"":3}","[0,1]","../img/tt/534tt.jpg","",""
"1994.6149999741465","","","recognition","survey-text","149","569461","0.0-6.0-3.20","2638735","co39142","norming","","","{""guess"":""cactus""}","","../img/tt/534tt.jpg","",""
"null","../img/gs/534gs.jpg","null","reveal","image-keyboard-response","150","571467","0.0-6.0-4.20","2638735","co39142","norming","","","","","","",""
"null","../img/tt/534tt.jpg","null","mooney2","image-keyboard-response","151","573468","0.0-6.0-5.20","2638735","co39142","norming","","","","","","",""
"1817.10500002373","","","post_reveal_questions","survey-likert","152","575287","0.0-6.0-6.20","2638735","co39142","norming","","","{""aha"":6}","[0]","../img/tt/534tt.jpg","",""
"null","<div style=""font-size:60px;""> </div>","null","fixation","html-keyboard-response","153","575493","0.0-6.0-0.21","2638735","co39142","norming","","","","","","",""
"null","../img/tt/194tt.jpg","null","mooney1","image-keyboard-response","154","578496","0.0-6.0-1.21","2638735","co39142","norming","","","","","","",""
"4072.5550000788644","","","post_mooney1_questions","survey-likert","155","582570","0.0-6.0-2.21","2638735","co39142","norming","","","{""curiosity"":3,""confidence"":3}","[0,1]","../img/tt/194tt.jpg","",""
"16955.239999922924","","","recognition","survey-text","156","599527","0.0-6.0-3.21","2638735","co39142","norming","","","{""guess"":""meisje muziekinstrument""}","","../img/tt/194tt.jpg","",""
"null","../img/gs/194gs.jpg","null","reveal","image-keyboard-response","157","601531","0.0-6.0-4.21","2638735","co39142","norming","","","","","","",""
"null","../img/tt/194tt.jpg","null","mooney2","image-keyboard-response","158","603536","0.0-6.0-5.21","2638735","co39142","norming","","","","","","",""
"2760.2350000524893","","","post_reveal_questions","survey-likert","159","606298","0.0-6.0-6.21","2638735","co39142","norming","","","{""aha"":4}","[0]","../img/tt/194tt.jpg","",""
"null","<div style=""font-size:60px;""> </div>","null","fixation","html-keyboard-response","160","606503","0.0-6.0-0.22","2638735","co39142","norming","","","","","","",""
"null","../img/tt/1173tt.jpg","null","mooney1","image-keyboard-response","161","609505","0.0-6.0-1.22","2638735","co39142","norming","","","","","","",""
"3575.524999992922","","","post_mooney1_questions","survey-likert","162","613082","0.0-6.0-2.22","2638735","co39142","norming","","","{""curiosity"":3,""confidence"":3}","[0,1]","../img/tt/1173tt.jpg","",""
"4333.169999998063","","","recognition","survey-text","163","617419","0.0-6.0-3.22","2638735","co39142","norming","","","{""guess"":""voetballers""}","","../img/tt/1173tt.jpg","",""
"null","../img/gs/1173gs.jpg","null","reveal","image-keyboard-response","164","619425","0.0-6.0-4.22","2638735","co39142","norming","","","","","","",""
"null","../img/tt/1173tt.jpg","null","mooney2","image-keyboard-response","165","621430","0.0-6.0-5.22","2638735","co39142","norming","","","","","","",""
"6137.0500000193715","","","post_reveal_questions","survey-likert","166","627568","0.0-6.0-6.22","2638735","co39142","norming","","","{""aha"":4}","[0]","../img/tt/1173tt.jpg","",""
"null","<div style=""font-size:60px;""> </div>","null","fixation","html-keyboard-response","167","627775","0.0-6.0-0.23","2638735","co39142","norming","","","","","","",""
"null","../img/tt/353tt.jpg","null","mooney1","image-keyboard-response","168","630778","0.0-6.0-1.23","2638735","co39142","norming","","","","","","",""
"3934.529999969527","","","post_mooney1_questions","survey-likert","169","634714","0.0-6.0-2.23","2638735","co39142","norming","","","{""curiosity"":4,""confidence"":2}","[0,1]","../img/tt/353tt.jpg","",""
"2471.720000030473","","","recognition","survey-text","170","637190","0.0-6.0-3.23","2638735","co39142","norming","","","{""guess"":""pinguin""}","","../img/tt/353tt.jpg","",""
"null","../img/gs/353gs.jpg","null","reveal","image-keyboard-response","171","639192","0.0-6.0-4.23","2638735","co39142","norming","","","","","","",""
"null","../img/tt/353tt.jpg","null","mooney2","image-keyboard-response","172","641193","0.0-6.0-5.23","2638735","co39142","norming","","","","","","",""
"1871.7300000134856","","","post_reveal_questions","survey-likert","173","643066","0.0-6.0-6.23","2638735","co39142","norming","","","{""aha"":4}","[0]","../img/tt/353tt.jpg","",""
"null","<div style=""font-size:60px;""> </div>","null","fixation","html-keyboard-response","174","643273","0.0-6.0-0.24","2638735","co39142","norming","","","","","","",""
"null","../img/tt/1188tt.jpg","null","mooney1","image-keyboard-response","175","646280","0.0-6.0-1.24","2638735","co39142","norming","","","","","","",""
"3815.360000007786","","","post_mooney1_questions","survey-likert","176","650097","0.0-6.0-2.24","2638735","co39142","norming","","","{""curiosity"":3,""confidence"":3}","[0,1]","../img/tt/1188tt.jpg","",""
"6107.714999932796","","","recognition","survey-text","177","656208","0.0-6.0-3.24","2638735","co39142","norming","","","{""guess"":""rugbyspeler""}","","../img/tt/1188tt.jpg","",""
"null","../img/gs/1188gs.jpg","null","reveal","image-keyboard-response","178","658213","0.0-6.0-4.24","2638735","co39142","norming","","","","","","",""
"null","../img/tt/1188tt.jpg","null","mooney2","image-keyboard-response","179","660218","0.0-6.0-5.24","2638735","co39142","norming","","","","","","",""
"1934.484999976121","","","post_reveal_questions","survey-likert","180","662154","0.0-6.0-6.24","2638735","co39142","norming","","","{""aha"":4}","[0]","../img/tt/1188tt.jpg","",""
"null","<div style=""font-size:60px;""> </div>","null","fixation","html-keyboard-response","181","662357","0.0-6.0-0.25","2638735","co39142","norming","","","","","","",""
"null","../img/tt/163tt.jpg","null","mooney1","image-keyboard-response","182","665363","0.0-6.0-1.25","2638735","co39142","norming","","","","","","",""
"5243.615000043064","","","post_mooney1_questions","survey-likert","183","670609","0.0-6.0-2.25","2638735","co39142","norming","","","{""curiosity"":3,""confidence"":3}","[0,1]","../img/tt/163tt.jpg","",""
"2793.8299999805167","","","recognition","survey-text","184","673406","0.0-6.0-3.25","2638735","co39142","norming","","","{""guess"":""geen idee""}","","../img/tt/163tt.jpg","",""
"null","../img/gs/163gs.jpg","null","reveal","image-keyboard-response","185","675414","0.0-6.0-4.25","2638735","co39142","norming","","","","","","",""
"null","../img/tt/163tt.jpg","null","mooney2","image-keyboard-response","186","677416","0.0-6.0-5.25","2638735","co39142","norming","","","","","","",""
"2145.8550000097603","","","post_reveal_questions","survey-likert","187","679564","0.0-6.0-6.25","2638735","co39142","norming","","","{""aha"":2}","[0]","../img/tt/163tt.jpg","",""
"null","<div style=""font-size:60px;""> </div>","null","fixation","html-keyboard-response","188","679771","0.0-6.0-0.26","2638735","co39142","norming","","","","","","",""
"null","../img/tt/1097tt.jpg","null","mooney1","image-keyboard-response","189","682773","0.0-6.0-1.26","2638735","co39142","norming","","","","","","",""
"4510.104999993928","","","post_mooney1_questions","survey-likert","190","687285","0.0-6.0-2.26","2638735","co39142","norming","","","{""curiosity"":3,""confidence"":3}","[0,1]","../img/tt/1097tt.jpg","",""
"3040.6850000144914","","","recognition","survey-text","191","690329","0.0-6.0-3.26","2638735","co39142","norming","","","{""guess"":""schaatser""}","","../img/tt/1097tt.jpg","",""
"null","../img/gs/1097gs.jpg","null","reveal","image-keyboard-response","192","692335","0.0-6.0-4.26","2638735","co39142","norming","","","","","","",""
"null","../img/tt/1097tt.jpg","null","mooney2","image-keyboard-response","193","694336","0.0-6.0-5.26","2638735","co39142","norming","","","","","","",""
"1694.6549999993294","","","post_reveal_questions","survey-likert","194","696033","0.0-6.0-6.26","2638735","co39142","norming","","","{""aha"":2}","[0]","../img/tt/1097tt.jpg","",""
"null","<div style=""font-size:60px;""> </div>","null","fixation","html-keyboard-response","195","696239","0.0-6.0-0.27","2638735","co39142","norming","","","","","","",""
"null","../img/tt/1148tt.jpg","null","mooney1","image-keyboard-response","196","699244","0.0-6.0-1.27","2638735","co39142","norming","","","","","","",""
"2874.5349999517202","","","post_mooney1_questions","survey-likert","197","702121","0.0-6.0-2.27","2638735","co39142","norming","","","{""curiosity"":3,""confidence"":3}","[0,1]","../img/tt/1148tt.jpg","",""
"1769.5149999344721","","","recognition","survey-text","198","703894","0.0-6.0-3.27","2638735","co39142","norming","","","{""guess"":""mens""}","","../img/tt/1148tt.jpg","",""
"null","../img/gs/1148gs.jpg","null","reveal","image-keyboard-response","199","705900","0.0-6.0-4.27","2638735","co39142","norming","","","","","","",""
"null","../img/tt/1148tt.jpg","null","mooney2","image-keyboard-response","200","707905","0.0-6.0-5.27","2638735","co39142","norming","","","","","","",""
"2651.895000017248","","","post_reveal_questions","survey-likert","201","710559","0.0-6.0-6.27","2638735","co39142","norming","","","{""aha"":2}","[0]","../img/tt/1148tt.jpg","",""
"null","<div style=""font-size:60px;""> </div>","null","fixation","html-keyboard-response","202","710766","0.0-6.0-0.28","2638735","co39142","norming","","","","","","",""
"null","../img/tt/1069tt.jpg","null","mooney1","image-keyboard-response","203","713773","0.0-6.0-1.28","2638735","co39142","norming","","","","","","",""
"4894.834999926388","","","post_mooney1_questions","survey-likert","204","718669","0.0-6.0-2.28","2638735","co39142","norming","","","{""curiosity"":3,""confidence"":5}","[0,1]","../img/tt/1069tt.jpg","",""
"18712.515000021085","","","recognition","survey-text","205","737383","0.0-6.0-3.28","2638735","co39142","norming","","","{""guess"":""bok/ram""}","","../img/tt/1069tt.jpg","",""
"null","../img/gs/1069gs.jpg","null","reveal","image-keyboard-response","206","739385","0.0-6.0-4.28","2638735","co39142","norming","","","","","","",""
"null","../img/tt/1069tt.jpg","null","mooney2","image-keyboard-response","207","741389","0.0-6.0-5.28","2638735","co39142","norming","","","","","","",""
"2289.4950000336394","","","post_reveal_questions","survey-likert","208","743680","0.0-6.0-6.28","2638735","co39142","norming","","","{""aha"":6}","[0]","../img/tt/1069tt.jpg","",""
"null","<div style=""font-size:60px;""> </div>","null","fixation","html-keyboard-response","209","743882","0.0-6.0-0.29","2638735","co39142","norming","","","","","","",""
"null","../img/tt/584tt.jpg","null","mooney1","image-keyboard-response","210","746883","0.0-6.0-1.29","2638735","co39142","norming","","","","","","",""
"3111.049999948591","","","post_mooney1_questions","survey-likert","211","749997","0.0-6.0-2.29","2638735","co39142","norming","","","{""curiosity"":3,""confidence"":5}","[0,1]","../img/tt/584tt.jpg","",""
"5538.734999950975","","","recognition","survey-text","212","755538","0.0-6.0-3.29","2638735","co39142","norming","","","{""guess"":""gereedschap""}","","../img/tt/584tt.jpg","",""
"null","../img/gs/584gs.jpg","null","reveal","image-keyboard-response","213","757545","0.0-6.0-4.29","2638735","co39142","norming","","","","","","",""
"null","../img/tt/584tt.jpg","null","mooney2","image-keyboard-response","214","759550","0.0-6.0-5.29","2638735","co39142","norming","","","","","","",""
"4872.919999994338","","","post_reveal_questions","survey-likert","215","764424","0.0-6.0-6.29","2638735","co39142","norming","","","{""aha"":6}","[0]","../img/tt/584tt.jpg","",""
"null","<div style=""font-size:60px;""> </div>","null","fixation","html-keyboard-response","216","764628","0.0-6.0-0.30","2638735","co39142","norming","","","","","","",""
"null","../img/tt/078tt.jpg","null","mooney1","image-keyboard-response","217","767631","0.0-6.0-1.30","2638735","co39142","norming","","","","","","",""
"5055.784999975003","","","post_mooney1_questions","survey-likert","218","772689","0.0-6.0-2.30","2638735","co39142","norming","","","{""curiosity"":5,""confidence"":0}","[0,1]","../img/tt/078tt.jpg","",""
"2388.4850000031292","","","recognition","survey-text","219","775081","0.0-6.0-3.30","2638735","co39142","norming","","","{""guess"":""kikkerdril""}","","../img/tt/078tt.jpg","",""
"null","../img/gs/078gs.jpg","null","reveal","image-keyboard-response","220","777083","0.0-6.0-4.30","2638735","co39142","norming","","","","","","",""
"null","../img/tt/078tt.jpg","null","mooney2","image-keyboard-response","221","779088","0.0-6.0-5.30","2638735","co39142","norming","","","","","","",""
"4799.354999908246","","","post_reveal_questions","survey-likert","222","783889","0.0-6.0-6.30","2638735","co39142","norming","","","{""aha"":3}","[0]","../img/tt/078tt.jpg","",""
"null","<div style=""font-size:60px;""> </div>","null","fixation","html-keyboard-response","223","784096","0.0-6.0-0.31","2638735","co39142","norming","","","","","","",""
"null","../img/tt/358tt.jpg","null","mooney1","image-keyboard-response","224","787103","0.0-6.0-1.31","2638735","co39142","norming","","","","","","",""
"3866.6950000915676","","","post_mooney1_questions","survey-likert","225","790971","0.0-6.0-2.31","2638735","co39142","norming","","","{""curiosity"":3,""confidence"":1}","[0,1]","../img/tt/358tt.jpg","",""
"1536.0549999168143","","","recognition","survey-text","226","792512","0.0-6.0-3.31","2638735","co39142","norming","","","{""guess"":""aap""}","","../img/tt/358tt.jpg","",""
"null","../img/gs/358gs.jpg","null","reveal","image-keyboard-response","227","794518","0.0-6.0-4.31","2638735","co39142","norming","","","","","","",""
"null","../img/tt/358tt.jpg","null","mooney2","image-keyboard-response","228","796523","0.0-6.0-5.31","2638735","co39142","norming","","","","","","",""
"1769.0099999308586","","","post_reveal_questions","survey-likert","229","798294","0.0-6.0-6.31","2638735","co39142","norming","","","{""aha"":3}","[0]","../img/tt/358tt.jpg","",""
"null","<div style=""font-size:60px;""> </div>","null","fixation","html-keyboard-response","230","798501","0.0-6.0-0.32","2638735","co39142","norming","","","","","","",""
"null","../img/tt/1363tt.jpg","null","mooney1","image-keyboard-response","231","801506","0.0-6.0-1.32","2638735","co39142","norming","","","","","","",""
"3890.1649999897927","","","post_mooney1_questions","survey-likert","232","805398","0.0-6.0-2.32","2638735","co39142","norming","","","{""curiosity"":4,""confidence"":0}","[0,1]","../img/tt/1363tt.jpg","",""
"2307.2800000663847","","","recognition","survey-text","233","807709","0.0-6.0-3.32","2638735","co39142","norming","","","{""guess"":""walvis""}","","../img/tt/1363tt.jpg","",""
"null","../img/gs/1363gs.jpg","null","reveal","image-keyboard-response","234","809715","0.0-6.0-4.32","2638735","co39142","norming","","","","","","",""
"null","../img/tt/1363tt.jpg","null","mooney2","image-keyboard-response","235","811720","0.0-6.0-5.32","2638735","co39142","norming","","","","","","",""
"4383.109999937005","","","post_reveal_questions","survey-likert","236","816105","0.0-6.0-6.32","2638735","co39142","norming","","","{""aha"":1}","[0]","../img/tt/1363tt.jpg","",""
"null","<div style=""font-size:60px;""> </div>","null","fixation","html-keyboard-response","237","816308","0.0-6.0-0.33","2638735","co39142","norming","","","","","","",""
"null","../img/tt/056tt.jpg","null","mooney1","image-keyboard-response","238","819315","0.0-6.0-1.33","2638735","co39142","norming","","","","","","",""
"3745.1900000451133","","","post_mooney1_questions","survey-likert","239","823062","0.0-6.0-2.33","2638735","co39142","norming","","","{""curiosity"":2,""confidence"":5}","[0,1]","../img/tt/056tt.jpg","",""
"1689.4500000635162","","","recognition","survey-text","240","824755","0.0-6.0-3.33","2638735","co39142","norming","","","{""guess"":""wolf""}","","../img/tt/056tt.jpg","",""
"null","../img/gs/056gs.jpg","null","reveal","image-keyboard-response","241","826761","0.0-6.0-4.33","2638735","co39142","norming","","","","","","",""
"null","../img/tt/056tt.jpg","null","mooney2","image-keyboard-response","242","828766","0.0-6.0-5.33","2638735","co39142","norming","","","","","","",""
"2332.710000104271","","","post_reveal_questions","survey-likert","243","831100","0.0-6.0-6.33","2638735","co39142","norming","","","{""aha"":3}","[0]","../img/tt/056tt.jpg","",""
"null","<div style=""font-size:60px;""> </div>","null","fixation","html-keyboard-response","244","831303","0.0-6.0-0.34","2638735","co39142","norming","","","","","","",""
"null","../img/tt/1127tt.jpg","null","mooney1","image-keyboard-response","245","834310","0.0-6.0-1.34","2638735","co39142","norming","","","","","","",""
"4467.050000093877","","","post_mooney1_questions","survey-likert","246","838779","0.0-6.0-2.34","2638735","co39142","norming","","","{""curiosity"":3,""confidence"":3}","[0,1]","../img/tt/1127tt.jpg","",""
"1416.7250000173226","","","recognition","survey-text","247","840200","0.0-6.0-3.34","2638735","co39142","norming","","","{""guess"":""klas""}","","../img/tt/1127tt.jpg","",""
"null","../img/gs/1127gs.jpg","null","reveal","image-keyboard-response","248","842206","0.0-6.0-4.34","2638735","co39142","norming","","","","","","",""
"null","../img/tt/1127tt.jpg","null","mooney2","image-keyboard-response","249","844207","0.0-6.0-5.34","2638735","co39142","norming","","","","","","",""
"2025.9749999968335","","","post_reveal_questions","survey-likert","250","846236","0.0-6.0-6.34","2638735","co39142","norming","","","{""aha"":3}","[0]","../img/tt/1127tt.jpg","",""
"null","<div style=""font-size:60px;""> </div>","null","fixation","html-keyboard-response","251","846442","0.0-6.0-0.35","2638735","co39142","norming","","","","","","",""
"null","../img/tt/001tt.jpg","null","mooney1","image-keyboard-response","252","849446","0.0-6.0-1.35","2638735","co39142","norming","","","","","","",""
"3055.7999999728054","","","post_mooney1_questions","survey-likert","253","852504","0.0-6.0-2.35","2638735","co39142","norming","","","{""curiosity"":3,""confidence"":3}","[0,1]","../img/tt/001tt.jpg","",""
"1526.6299999784678","","","recognition","survey-text","254","854035","0.0-6.0-3.35","2638735","co39142","norming","","","{""guess"":""vogel""}","","../img/tt/001tt.jpg","",""
"null","../img/gs/001gs.jpg","null","reveal","image-keyboard-response","255","856037","0.0-6.0-4.35","2638735","co39142","norming","","","","","","",""
"null","../img/tt/001tt.jpg","null","mooney2","image-keyboard-response","256","858042","0.0-6.0-5.35","2638735","co39142","norming","","","","","","",""
"1810.1999999489635","","","post_reveal_questions","survey-likert","257","859854","0.0-6.0-6.35","2638735","co39142","norming","","","{""aha"":2}","[0]","../img/tt/001tt.jpg","",""
"null","<div style=""font-size:60px;""> </div>","null","fixation","html-keyboard-response","258","860058","0.0-6.0-0.36","2638735","co39142","norming","","","","","","",""
"null","../img/tt/559tt.jpg","null","mooney1","image-keyboard-response","259","863064","0.0-6.0-1.36","2638735","co39142","norming","","","","","","",""
"3934.235000051558","","","post_mooney1_questions","survey-likert","260","867001","0.0-6.0-2.36","2638735","co39142","norming","","","{""curiosity"":3,""confidence"":3}","[0,1]","../img/tt/559tt.jpg","",""
"2520.14500007499","","","recognition","survey-text","261","869525","0.0-6.0-3.36","2638735","co39142","norming","","","{""guess"":""computer""}","","../img/tt/559tt.jpg","",""
"null","../img/gs/559gs.jpg","null","reveal","image-keyboard-response","262","871531","0.0-6.0-4.36","2638735","co39142","norming","","","","","","",""
"null","../img/tt/559tt.jpg","null","mooney2","image-keyboard-response","263","873535","0.0-6.0-5.36","2638735","co39142","norming","","","","","","",""
"1848.534999997355","","","post_reveal_questions","survey-likert","264","875385","0.0-6.0-6.36","2638735","co39142","norming","","","{""aha"":2}","[0]","../img/tt/559tt.jpg","",""
"null","<div style=""font-size:60px;""> </div>","null","fixation","html-keyboard-response","265","875592","0.0-6.0-0.37","2638735","co39142","norming","","","","","","",""
"null","../img/tt/1175tt.jpg","null","mooney1","image-keyboard-response","266","878599","0.0-6.0-1.37","2638735","co39142","norming","","","","","","",""
"3387.4100000830367","","","post_mooney1_questions","survey-likert","267","881989","0.0-6.0-2.37","2638735","co39142","norming","","","{""curiosity"":3,""confidence"":3}","[0,1]","../img/tt/1175tt.jpg","",""
"4280.229999916628","","","recognition","survey-text","268","886273","0.0-6.0-3.37","2638735","co39142","norming","","","{""guess"":""aziaat""}","","../img/tt/1175tt.jpg","",""
"null","../img/gs/1175gs.jpg","null","reveal","image-keyboard-response","269","888279","0.0-6.0-4.37","2638735","co39142","norming","","","","","","",""
"null","../img/tt/1175tt.jpg","null","mooney2","image-keyboard-response","270","890280","0.0-6.0-5.37","2638735","co39142","norming","","","","","","",""
"4747.600000002421","","","post_reveal_questions","survey-likert","271","895029","0.0-6.0-6.37","2638735","co39142","norming","","","{""aha"":1}","[0]","../img/tt/1175tt.jpg","",""
"null","<div style=""font-size:60px;""> </div>","null","fixation","html-keyboard-response","272","895236","0.0-6.0-0.38","2638735","co39142","norming","","","","","","",""
"null","../img/tt/1199tt.jpg","null","mooney1","image-keyboard-response","273","898244","0.0-6.0-1.38","2638735","co39142","norming","","","","","","",""
"3312.649999978021","","","post_mooney1_questions","survey-likert","274","901559","0.0-6.0-2.38","2638735","co39142","norming","","","{""curiosity"":3,""confidence"":3}","[0,1]","../img/tt/1199tt.jpg","",""
"2096.7749999836087","","","recognition","survey-text","275","903660","0.0-6.0-3.38","2638735","co39142","norming","","","{""guess"":""ballet""}","","../img/tt/1199tt.jpg","",""
"null","../img/gs/1199gs.jpg","null","reveal","image-keyboard-response","276","905666","0.0-6.0-4.38","2638735","co39142","norming","","","","","","",""
"null","../img/tt/1199tt.jpg","null","mooney2","image-keyboard-response","277","907667","0.0-6.0-5.38","2638735","co39142","norming","","","","","","",""
"2222.1300000092015","","","post_reveal_questions","survey-likert","278","909891","0.0-6.0-6.38","2638735","co39142","norming","","","{""aha"":4}","[0]","../img/tt/1199tt.jpg","",""
"null","<div style=""font-size:60px;""> </div>","null","fixation","html-keyboard-response","279","910098","0.0-6.0-0.39","2638735","co39142","norming","","","","","","",""
"null","../img/tt/096tt.jpg","null","mooney1","image-keyboard-response","280","913105","0.0-6.0-1.39","2638735","co39142","norming","","","","","","",""
"3198.0149999726564","","","post_mooney1_questions","survey-likert","281","916305","0.0-6.0-2.39","2638735","co39142","norming","","","{""curiosity"":3,""confidence"":2}","[0,1]","../img/tt/096tt.jpg","",""
"1888.5550000704825","","","recognition","survey-text","282","918198","0.0-6.0-3.39","2638735","co39142","norming","","","{""guess"":""piano""}","","../img/tt/096tt.jpg","",""
"null","../img/gs/096gs.jpg","null","reveal","image-keyboard-response","283","920204","0.0-6.0-4.39","2638735","co39142","norming","","","","","","",""
"null","../img/tt/096tt.jpg","null","mooney2","image-keyboard-response","284","922205","0.0-6.0-5.39","2638735","co39142","norming","","","","","","",""
"3605.100000044331","","","post_reveal_questions","survey-likert","285","925812","0.0-6.0-6.39","2638735","co39142","norming","","","{""aha"":4}","[0]","../img/tt/096tt.jpg","",""
"null","<div style=""font-size:60px;""> </div>","null","fixation","html-keyboard-response","286","926019","0.0-6.0-0.40","2638735","co39142","norming","","","","","","",""
"null","../img/tt/1262tt.jpg","null","mooney1","image-keyboard-response","287","929026","0.0-6.0-1.40","2638735","co39142","norming","","","","","","",""
"3867.3749999143183","","","post_mooney1_questions","survey-likert","288","932896","0.0-6.0-2.40","2638735","co39142","norming","","","{""curiosity"":3,""confidence"":3}","[0,1]","../img/tt/1262tt.jpg","",""
"2757.5300000607967","","","recognition","survey-text","289","935658","0.0-6.0-3.40","2638735","co39142","norming","","","{""guess"":""knaagdier""}","","../img/tt/1262tt.jpg","",""
"null","../img/gs/1262gs.jpg","null","reveal","image-keyboard-response","290","937660","0.0-6.0-4.40","2638735","co39142","norming","","","","","","",""
"null","../img/tt/1262tt.jpg","null","mooney2","image-keyboard-response","291","939664","0.0-6.0-5.40","2638735","co39142","norming","","","","","","",""
"1422.9249999625608","","","post_reveal_questions","survey-likert","292","941089","0.0-6.0-6.40","2638735","co39142","norming","","","{""aha"":6}","[0]","../img/tt/1262tt.jpg","",""
"null","<div style=""font-size:60px;""> </div>","null","fixation","html-keyboard-response","293","941296","0.0-6.0-0.41","2638735","co39142","norming","","","","","","",""
"null","../img/tt/1279tt.jpg","null","mooney1","image-keyboard-response","294","944302","0.0-6.0-1.41","2638735","co39142","norming","","","","","","",""
"3225.734999985434","","","post_mooney1_questions","survey-likert","295","947530","0.0-6.0-2.41","2638735","co39142","norming","","","{""curiosity"":3,""confidence"":3}","[0,1]","../img/tt/1279tt.jpg","",""
"2605.7349999900907","","","recognition","survey-text","296","950140","0.0-6.0-3.41","2638735","co39142","norming","","","{""guess"":""vogel""}","","../img/tt/1279tt.jpg","",""
"null","../img/gs/1279gs.jpg","null","reveal","image-keyboard-response","297","952146","0.0-6.0-4.41","2638735","co39142","norming","","","","","","",""
"null","../img/tt/1279tt.jpg","null","mooney2","image-keyboard-response","298","954148","0.0-6.0-5.41","2638735","co39142","norming","","","","","","",""
"6236.220000078902","","","post_reveal_questions","survey-likert","299","960386","0.0-6.0-6.41","2638735","co39142","norming","","","{""aha"":2}","[0]","../img/tt/1279tt.jpg","",""
"null","<div style=""font-size:60px;""> </div>","null","fixation","html-keyboard-response","300","960593","0.0-6.0-0.42","2638735","co39142","norming","","","","","","",""
"null","../img/tt/1247tt.jpg","null","mooney1","image-keyboard-response","301","963600","0.0-6.0-1.42","2638735","co39142","norming","","","","","","",""
"4982.354999985546","","","post_mooney1_questions","survey-likert","302","968584","0.0-6.0-2.42","2638735","co39142","norming","","","{""curiosity"":3,""confidence"":2}","[0,1]","../img/tt/1247tt.jpg","",""
"2503.4649999579415","","","recognition","survey-text","303","971092","0.0-6.0-3.42","2638735","co39142","norming","","","{""guess"":""leeuw""}","","../img/tt/1247tt.jpg","",""
"null","../img/gs/1247gs.jpg","null","reveal","image-keyboard-response","304","973094","0.0-6.0-4.42","2638735","co39142","norming","","","","","","",""
"null","../img/tt/1247tt.jpg","null","mooney2","image-keyboard-response","305","975099","0.0-6.0-5.42","2638735","co39142","norming","","","","","","",""
"2178.154999972321","","","post_reveal_questions","survey-likert","306","977279","0.0-6.0-6.42","2638735","co39142","norming","","","{""aha"":5}","[0]","../img/tt/1247tt.jpg","",""
"null","<div style=""font-size:60px;""> </div>","null","fixation","html-keyboard-response","307","977486","0.0-6.0-0.43","2638735","co39142","norming","","","","","","",""
"null","../img/tt/189tt.jpg","null","mooney1","image-keyboard-response","308","980495","0.0-6.0-1.43","2638735","co39142","norming","","","","","","",""
"7561.099999933504","","","post_mooney1_questions","survey-likert","309","988058","0.0-6.0-2.43","2638735","co39142","norming","","","{""curiosity"":3,""confidence"":3}","[0,1]","../img/tt/189tt.jpg","",""
"6402.934999903664","","","recognition","survey-text","310","994464","0.0-6.0-3.43","2638735","co39142","norming","","","{""guess"":""vleugels""}","","../img/tt/189tt.jpg","",""
"null","../img/gs/189gs.jpg","null","reveal","image-keyboard-response","311","996469","0.0-6.0-4.43","2638735","co39142","norming","","","","","","",""
"null","../img/tt/189tt.jpg","null","mooney2","image-keyboard-response","312","998470","0.0-6.0-5.43","2638735","co39142","norming","","","","","","",""
"1813.9250000240281","","","post_reveal_questions","survey-likert","313","1000286","0.0-6.0-6.43","2638735","co39142","norming","","","{""aha"":0}","[0]","../img/tt/189tt.jpg","",""
"null","<div style=""font-size:60px;""> </div>","null","fixation","html-keyboard-response","314","1000489","0.0-6.0-0.44","2638735","co39142","norming","","","","","","",""
"null","../img/tt/436tt.jpg","null","mooney1","image-keyboard-response","315","1003494","0.0-6.0-1.44","2638735","co39142","norming","","","","","","",""
"3669.2900001071393","","","post_mooney1_questions","survey-likert","316","1007166","0.0-6.0-2.44","2638735","co39142","norming","","","{""curiosity"":3,""confidence"":3}","[0,1]","../img/tt/436tt.jpg","",""
"2410.5299999937415","","","recognition","survey-text","317","1009580","0.0-6.0-3.44","2638735","co39142","norming","","","{""guess"":""reptiel""}","","../img/tt/436tt.jpg","",""
"null","../img/gs/436gs.jpg","null","reveal","image-keyboard-response","318","1011586","0.0-6.0-4.44","2638735","co39142","norming","","","","","","",""
"null","../img/tt/436tt.jpg","null","mooney2","image-keyboard-response","319","1013588","0.0-6.0-5.44","2638735","co39142","norming","","","","","","",""
"2055.3150000050664","","","post_reveal_questions","survey-likert","320","1015645","0.0-6.0-6.44","2638735","co39142","norming","","","{""aha"":4}","[0]","../img/tt/436tt.jpg","",""
"null","<div style=""font-size:60px;""> </div>","null","fixation","html-keyboard-response","321","1015852","0.0-6.0-0.45","2638735","co39142","norming","","","","","","",""
"null","../img/tt/1006tt.jpg","null","mooney1","image-keyboard-response","322","1018859","0.0-6.0-1.45","2638735","co39142","norming","","","","","","",""
"2895.4299999168143","","","post_mooney1_questions","survey-likert","323","1021757","0.0-6.0-2.45","2638735","co39142","norming","","","{""curiosity"":3,""confidence"":3}","[0,1]","../img/tt/1006tt.jpg","",""
"7265.099999960512","","","recognition","survey-text","324","1029026","0.0-6.0-3.45","2638735","co39142","norming","","","{""guess"":""bergen landschap""}","","../img/tt/1006tt.jpg","",""
"null","../img/gs/1006gs.jpg","null","reveal","image-keyboard-response","325","1031032","0.0-6.0-4.45","2638735","co39142","norming","","","","","","",""
"null","../img/tt/1006tt.jpg","null","mooney2","image-keyboard-response","326","1033037","0.0-6.0-5.45","2638735","co39142","norming","","","","","","",""
"1871.4349999791011","","","post_reveal_questions","survey-likert","327","1034910","0.0-6.0-6.45","2638735","co39142","norming","","","{""aha"":0}","[0]","../img/tt/1006tt.jpg","",""
"null","<div style=""font-size:60px;""> </div>","null","fixation","html-keyboard-response","328","1035113","0.0-6.0-0.46","2638735","co39142","norming","","","","","","",""
"null","../img/tt/121tt.jpg","null","mooney1","image-keyboard-response","329","1038120","0.0-6.0-1.46","2638735","co39142","norming","","","","","","",""
"4895.9849999519065","","","post_mooney1_questions","survey-likert","330","1043018","0.0-6.0-2.46","2638735","co39142","norming","","","{""curiosity"":2,""confidence"":6}","[0,1]","../img/tt/121tt.jpg","",""
"15300.750000053085","","","recognition","survey-text","331","1058320","0.0-6.0-3.46","2638735","co39142","norming","","","{""guess"":""kangoeroe""}","","../img/tt/121tt.jpg","",""
"null","../img/gs/121gs.jpg","null","reveal","image-keyboard-response","332","1060327","0.0-6.0-4.46","2638735","co39142","norming","","","","","","",""
"null","../img/tt/121tt.jpg","null","mooney2","image-keyboard-response","333","1062329","0.0-6.0-5.46","2638735","co39142","norming","","","","","","",""
"2208.824999979697","","","post_reveal_questions","survey-likert","334","1064540","0.0-6.0-6.46","2638735","co39142","norming","","","{""aha"":6}","[0]","../img/tt/121tt.jpg","",""
"null","<div style=""font-size:60px;""> </div>","null","fixation","html-keyboard-response","335","1064747","0.0-6.0-0.47","2638735","co39142","norming","","","","","","",""
"null","../img/tt/126tt.jpg","null","mooney1","image-keyboard-response","336","1067753","0.0-6.0-1.47","2638735","co39142","norming","","","","","","",""
"4326.304999995045","","","post_mooney1_questions","survey-likert","337","1072082","0.0-6.0-2.47","2638735","co39142","norming","","","{""curiosity"":3,""confidence"":3}","[0,1]","../img/tt/126tt.jpg","",""
"1297.0649999333546","","","recognition","survey-text","338","1073383","0.0-6.0-3.47","2638735","co39142","norming","","","{""guess"":""koe""}","","../img/tt/126tt.jpg","",""
"null","../img/gs/126gs.jpg","null","reveal","image-keyboard-response","339","1075385","0.0-6.0-4.47","2638735","co39142","norming","","","","","","",""
"null","../img/tt/126tt.jpg","null","mooney2","image-keyboard-response","340","1077389","0.0-6.0-5.47","2638735","co39142","norming","","","","","","",""
"3344.2150000482798","","","post_reveal_questions","survey-likert","341","1080735","0.0-6.0-6.47","2638735","co39142","norming","","","{""aha"":6}","[0]","../img/tt/126tt.jpg","",""
"null","<div style=""font-size:60px;""> </div>","null","fixation","html-keyboard-response","342","1080943","0.0-6.0-0.48","2638735","co39142","norming","","","","","","",""
"null","../img/tt/010tt.jpg","null","mooney1","image-keyboard-response","343","1083946","0.0-6.0-1.48","2638735","co39142","norming","","","","","","",""
"4304.465000052005","","","post_mooney1_questions","survey-likert","344","1088252","0.0-6.0-2.48","2638735","co39142","norming","","","{""curiosity"":5,""confidence"":0}","[0,1]","../img/tt/010tt.jpg","",""
"4051.424999954179","","","recognition","survey-text","345","1092308","0.0-6.0-3.48","2638735","co39142","norming","","","{""guess"":""geen idee""}","","../img/tt/010tt.jpg","",""
"null","../img/gs/010gs.jpg","null","reveal","image-keyboard-response","346","1094311","0.0-6.0-4.48","2638735","co39142","norming","","","","","","",""
"null","../img/tt/010tt.jpg","null","mooney2","image-keyboard-response","347","1096316","0.0-6.0-5.48","2638735","co39142","norming","","","","","","",""
"17827.725000097416","","","post_reveal_questions","survey-likert","348","1114143","0.0-6.0-6.48","2638735","co39142","norming","","","{""aha"":0}","[0]","../img/tt/010tt.jpg","",""
"null","<div style=""font-size:60px;""> </div>","null","fixation","html-keyboard-response","349","1114350","0.0-6.0-0.49","2638735","co39142","norming","","","","","","",""
"null","../img/tt/477tt.jpg","null","mooney1","image-keyboard-response","350","1117357","0.0-6.0-1.49","2638735","co39142","norming","","","","","","",""
"13134.440000052564","","","post_mooney1_questions","survey-likert","351","1130492","0.0-6.0-2.49","2638735","co39142","norming","","","{""curiosity"":0,""confidence"":0}","[0,1]","../img/tt/477tt.jpg","",""
"3490.3400000184774","","","recognition","survey-text","352","1133987","0.0-6.0-3.49","2638735","co39142","norming","","","{""guess"":""geen idee""}","","../img/tt/477tt.jpg","",""
"null","../img/gs/477gs.jpg","null","reveal","image-keyboard-response","353","1135993","0.0-6.0-4.49","2638735","co39142","norming","","","","","","",""
"null","../img/tt/477tt.jpg","null","mooney2","image-keyboard-response","354","1137999","0.0-6.0-5.49","2638735","co39142","norming","","","","","","",""
"3341.0349999321625","","","post_reveal_questions","survey-likert","355","1141342","0.0-6.0-6.49","2638735","co39142","norming","","","{""aha"":0}","[0]","../img/tt/477tt.jpg","",""
"null","<div style=""font-size:60px;""> </div>","null","fixation","html-keyboard-response","356","1141549","0.0-6.0-0.50","2638735","co39142","norming","","","","","","",""
"null","../img/tt/184tt.jpg","null","mooney1","image-keyboard-response","357","1144551","0.0-6.0-1.50","2638735","co39142","norming","","","","","","",""
"3422.275000018999","","","post_mooney1_questions","survey-likert","358","1147976","0.0-6.0-2.50","2638735","co39142","norming","","","{""curiosity"":3,""confidence"":3}","[0,1]","../img/tt/184tt.jpg","",""
"3110.270000062883","","","recognition","survey-text","359","1151090","0.0-6.0-3.50","2638735","co39142","norming","","","{""guess"":""reptiel""}","","../img/tt/184tt.jpg","",""
"null","../img/gs/184gs.jpg","null","reveal","image-keyboard-response","360","1153097","0.0-6.0-4.50","2638735","co39142","norming","","","","","","",""
"null","../img/tt/184tt.jpg","null","mooney2","image-keyboard-response","361","1155101","0.0-6.0-5.50","2638735","co39142","norming","","","","","","",""
"1755.0449999980628","","","post_reveal_questions","survey-likert","362","1156859","0.0-6.0-6.50","2638735","co39142","norming","","","{""aha"":0}","[0]","../img/tt/184tt.jpg","",""
"null","<div style=""font-size:60px;""> </div>","null","fixation","html-keyboard-response","363","1157066","0.0-6.0-0.51","2638735","co39142","norming","","","","","","",""
"null","../img/tt/1275tt.jpg","null","mooney1","image-keyboard-response","364","1160073","0.0-6.0-1.51","2638735","co39142","norming","","","","","","",""
"4577.939999988303","","","post_mooney1_questions","survey-likert","365","1164653","0.0-6.0-2.51","2638735","co39142","norming","","","{""curiosity"":1,""confidence"":6}","[0,1]","../img/tt/1275tt.jpg","",""
"2763.3650000207126","","","recognition","survey-text","366","1167420","0.0-6.0-3.51","2638735","co39142","norming","","","{""guess"":""varken""}","","../img/tt/1275tt.jpg","",""
"null","../img/gs/1275gs.jpg","null","reveal","image-keyboard-response","367","1169427","0.0-6.0-4.51","2638735","co39142","norming","","","","","","",""
"null","../img/tt/1275tt.jpg","null","mooney2","image-keyboard-response","368","1171434","0.0-6.0-5.51","2638735","co39142","norming","","","","","","",""
"6541.779999970458","","","post_reveal_questions","survey-likert","369","1177977","0.0-6.0-6.51","2638735","co39142","norming","","","{""aha"":6}","[0]","../img/tt/1275tt.jpg","",""
"null","<div style=""font-size:60px;""> </div>","null","fixation","html-keyboard-response","370","1178184","0.0-6.0-0.52","2638735","co39142","norming","","","","","","",""
"null","../img/tt/1123tt.jpg","null","mooney1","image-keyboard-response","371","1181189","0.0-6.0-1.52","2638735","co39142","norming","","","","","","",""
"3990.8800000557676","","","post_mooney1_questions","survey-likert","372","1185182","0.0-6.0-2.52","2638735","co39142","norming","","","{""curiosity"":3,""confidence"":3}","[0,1]","../img/tt/1123tt.jpg","",""
"2718.304999987595","","","recognition","survey-text","373","1187905","0.0-6.0-3.52","2638735","co39142","norming","","","{""guess"":""basketbal""}","","../img/tt/1123tt.jpg","",""
"null","../img/gs/1123gs.jpg","null","reveal","image-keyboard-response","374","1189912","0.0-6.0-4.52","2638735","co39142","norming","","","","","","",""
"null","../img/tt/1123tt.jpg","null","mooney2","image-keyboard-response","375","1191916","0.0-6.0-5.52","2638735","co39142","norming","","","","","","",""
"2164.864999940619","","","post_reveal_questions","survey-likert","376","1194083","0.0-6.0-6.52","2638735","co39142","norming","","","{""aha"":3}","[0]","../img/tt/1123tt.jpg","",""
"null","<div style=""font-size:60px;""> </div>","null","fixation","html-keyboard-response","377","1194290","0.0-6.0-0.53","2638735","co39142","norming","","","","","","",""
"null","../img/tt/1107tt.jpg","null","mooney1","image-keyboard-response","378","1197296","0.0-6.0-1.53","2638735","co39142","norming","","","","","","",""
"3309.5650000032037","","","post_mooney1_questions","survey-likert","379","1200608","0.0-6.0-2.53","2638735","co39142","norming","","","{""curiosity"":3,""confidence"":6}","[0,1]","../img/tt/1107tt.jpg","",""
"1937.8199999919161","","","recognition","survey-text","380","1202550","0.0-6.0-3.53","2638735","co39142","norming","","","{""guess"":""kitten""}","","../img/tt/1107tt.jpg","",""
"null","../img/gs/1107gs.jpg","null","reveal","image-keyboard-response","381","1204557","0.0-6.0-4.53","2638735","co39142","norming","","","","","","",""
"null","../img/tt/1107tt.jpg","null","mooney2","image-keyboard-response","382","1206558","0.0-6.0-5.53","2638735","co39142","norming","","","","","","",""
"2152.710000053048","","","post_reveal_questions","survey-likert","383","1208713","0.0-6.0-6.53","2638735","co39142","norming","","","{""aha"":6}","[0]","../img/tt/1107tt.jpg","",""
"null","<div style=""font-size:60px;""> </div>","null","fixation","html-keyboard-response","384","1208915","0.0-6.0-0.54","2638735","co39142","norming","","","","","","",""
"null","../img/tt/481tt.jpg","null","mooney1","image-keyboard-response","385","1211919","0.0-6.0-1.54","2638735","co39142","norming","","","","","","",""
"3617.599999997765","","","post_mooney1_questions","survey-likert","386","1215539","0.0-6.0-2.54","2638735","co39142","norming","","","{""curiosity"":3,""confidence"":0}","[0,1]","../img/tt/481tt.jpg","",""
"2248.245000024326","","","recognition","survey-text","387","1217792","0.0-6.0-3.54","2638735","co39142","norming","","","{""guess"":""aap""}","","../img/tt/481tt.jpg","",""
"null","../img/gs/481gs.jpg","null","reveal","image-keyboard-response","388","1219796","0.0-6.0-4.54","2638735","co39142","norming","","","","","","",""
"null","../img/tt/481tt.jpg","null","mooney2","image-keyboard-response","389","1221797","0.0-6.0-5.54","2638735","co39142","norming","","","","","","",""
"3248.5800000140443","","","post_reveal_questions","survey-likert","390","1225048","0.0-6.0-6.54","2638735","co39142","norming","","","{""aha"":1}","[0]","../img/tt/481tt.jpg","",""
"null","<div style=""font-size:60px;""> </div>","null","fixation","html-keyboard-response","391","1225255","0.0-6.0-0.55","2638735","co39142","norming","","","","","","",""
"null","../img/tt/307tt.jpg","null","mooney1","image-keyboard-response","392","1228261","0.0-6.0-1.55","2638735","co39142","norming","","","","","","",""
"4115.7050000038","","","post_mooney1_questions","survey-likert","393","1232380","0.0-6.0-2.55","2638735","co39142","norming","","","{""curiosity"":3,""confidence"":0}","[0,1]","../img/tt/307tt.jpg","",""
"1539.0950000146404","","","recognition","survey-text","394","1233923","0.0-6.0-3.55","2638735","co39142","norming","","","{""guess"":""bel""}","","../img/tt/307tt.jpg","",""
"null","../img/gs/307gs.jpg","null","reveal","image-keyboard-response","395","1235925","0.0-6.0-4.55","2638735","co39142","norming","","","","","","",""
"null","../img/tt/307tt.jpg","null","mooney2","image-keyboard-response","396","1237931","0.0-6.0-5.55","2638735","co39142","norming","","","","","","",""
"2991.1850000498816","","","post_reveal_questions","survey-likert","397","1240924","0.0-6.0-6.55","2638735","co39142","norming","","","{""aha"":0}","[0]","../img/tt/307tt.jpg","",""
"null","<div style=""font-size:60px;""> </div>","null","fixation","html-keyboard-response","398","1241131","0.0-6.0-0.56","2638735","co39142","norming","","","","","","",""
"null","../img/tt/222tt.jpg","null","mooney1","image-keyboard-response","399","1244138","0.0-6.0-1.56","2638735","co39142","norming","","","","","","",""
"4677.620000089519","","","post_mooney1_questions","survey-likert","400","1248817","0.0-6.0-2.56","2638735","co39142","norming","","","{""curiosity"":4,""confidence"":1}","[0,1]","../img/tt/222tt.jpg","",""
"5903.809999930672","","","recognition","survey-text","401","1254725","0.0-6.0-3.56","2638735","co39142","norming","","","{""guess"":""afternoon tea""}","","../img/tt/222tt.jpg","",""
"null","../img/gs/222gs.jpg","null","reveal","image-keyboard-response","402","1256732","0.0-6.0-4.56","2638735","co39142","norming","","","","","","",""
"null","../img/tt/222tt.jpg","null","mooney2","image-keyboard-response","403","1258737","0.0-6.0-5.56","2638735","co39142","norming","","","","","","",""
"2587.915000040084","","","post_reveal_questions","survey-likert","404","1261327","0.0-6.0-6.56","2638735","co39142","norming","","","{""aha"":2}","[0]","../img/tt/222tt.jpg","",""
"null","<div style=""font-size:60px;""> </div>","null","fixation","html-keyboard-response","405","1261533","0.0-6.0-0.57","2638735","co39142","norming","","","","","","",""
"null","../img/tt/1217tt.jpg","null","mooney1","image-keyboard-response","406","1264538","0.0-6.0-1.57","2638735","co39142","norming","","","","","","",""
"3118.739999947138","","","post_mooney1_questions","survey-likert","407","1267659","0.0-6.0-2.57","2638735","co39142","norming","","","{""curiosity"":3,""confidence"":1}","[0,1]","../img/tt/1217tt.jpg","",""
"3638.624999905005","","","recognition","survey-text","408","1271301","0.0-6.0-3.57","2638735","co39142","norming","","","{""guess"":""kudde""}","","../img/tt/1217tt.jpg","",""
"null","../img/gs/1217gs.jpg","null","reveal","image-keyboard-response","409","1273309","0.0-6.0-4.57","2638735","co39142","norming","","","","","","",""
"null","../img/tt/1217tt.jpg","null","mooney2","image-keyboard-response","410","1275312","0.0-6.0-5.57","2638735","co39142","norming","","","","","","",""
"2596.4099999982864","","","post_reveal_questions","survey-likert","411","1277910","0.0-6.0-6.57","2638735","co39142","norming","","","{""aha"":3}","[0]","../img/tt/1217tt.jpg","",""
"null","<div style=""font-size:60px;""> </div>","null","fixation","html-keyboard-response","412","1278117","0.0-6.0-0.58","2638735","co39142","norming","","","","","","",""
"null","../img/tt/082tt.jpg","null","mooney1","image-keyboard-response","413","1281121","0.0-6.0-1.58","2638735","co39142","norming","","","","","","",""
"4347.390000009909","","","post_mooney1_questions","survey-likert","414","1285471","0.0-6.0-2.58","2638735","co39142","norming","","","{""curiosity"":2,""confidence"":6}","[0,1]","../img/tt/082tt.jpg","",""
"2648.7450000131503","","","recognition","survey-text","415","1288123","0.0-6.0-3.58","2638735","co39142","norming","","","{""guess"":""vogel""}","","../img/tt/082tt.jpg","",""
"null","../img/gs/082gs.jpg","null","reveal","image-keyboard-response","416","1290130","0.0-6.0-4.58","2638735","co39142","norming","","","","","","",""
"null","../img/tt/082tt.jpg","null","mooney2","image-keyboard-response","417","1292133","0.0-6.0-5.58","2638735","co39142","norming","","","","","","",""
"2311.1650000791997","","","post_reveal_questions","survey-likert","418","1294446","0.0-6.0-6.58","2638735","co39142","norming","","","{""aha"":6}","[0]","../img/tt/082tt.jpg","",""
"null","<div style=""font-size:60px;""> </div>","null","fixation","html-keyboard-response","419","1294653","0.0-6.0-0.59","2638735","co39142","norming","","","","","","",""
"null","../img/tt/1049tt.jpg","null","mooney1","image-keyboard-response","420","1297660","0.0-6.0-1.59","2638735","co39142","norming","","","","","","",""
"2667.6500000758097","","","post_mooney1_questions","survey-likert","421","1300329","0.0-6.0-2.59","2638735","co39142","norming","","","{""curiosity"":3,""confidence"":0}","[0,1]","../img/tt/1049tt.jpg","",""
"3313.9299999456853","","","recognition","survey-text","422","1303647","0.0-6.0-3.59","2638735","co39142","norming","","","{""guess"":""supporters""}","","../img/tt/1049tt.jpg","",""
"null","../img/gs/1049gs.jpg","null","reveal","image-keyboard-response","423","1305650","0.0-6.0-4.59","2638735","co39142","norming","","","","","","",""
"null","../img/tt/1049tt.jpg","null","mooney2","image-keyboard-response","424","1307657","0.0-6.0-5.59","2638735","co39142","norming","","","","","","",""
"1755.7550000492483","","","post_reveal_questions","survey-likert","425","1309415","0.0-6.0-6.59","2638735","co39142","norming","","","{""aha"":1}","[0]","../img/tt/1049tt.jpg","",""
"null","<div style=""font-size:60px;""> </div>","null","fixation","html-keyboard-response","426","1309622","0.0-6.0-0.60","2638735","co39142","norming","","","","","","",""
"null","../img/tt/306tt.jpg","null","mooney1","image-keyboard-response","427","1312624","0.0-6.0-1.60","2638735","co39142","norming","","","","","","",""
"4593.650000053458","","","post_mooney1_questions","survey-likert","428","1317220","0.0-6.0-2.60","2638735","co39142","norming","","","{""curiosity"":5,""confidence"":0}","[0,1]","../img/tt/306tt.jpg","",""
"4419.605000060983","","","recognition","survey-text","429","1321643","0.0-6.0-3.60","2638735","co39142","norming","","","{""guess"":""dier""}","","../img/tt/306tt.jpg","",""
"null","../img/gs/306gs.jpg","null","reveal","image-keyboard-response","430","1323649","0.0-6.0-4.60","2638735","co39142","norming","","","","","","",""
"null","../img/tt/306tt.jpg","null","mooney2","image-keyboard-response","431","1325654","0.0-6.0-5.60","2638735","co39142","norming","","","","","","",""
"3379.590000025928","","","post_reveal_questions","survey-likert","432","1329035","0.0-6.0-6.60","2638735","co39142","norming","","","{""aha"":0}","[0]","../img/tt/306tt.jpg","",""
"null","<div style=""font-size:60px;""> </div>","null","fixation","html-keyboard-response","433","1329237","0.0-6.0-0.61","2638735","co39142","norming","","","","","","",""
"null","../img/tt/1078tt.jpg","null","mooney1","image-keyboard-response","434","1332240","0.0-6.0-1.61","2638735","co39142","norming","","","","","","",""
"2941.664999932982","","","post_mooney1_questions","survey-likert","435","1335184","0.0-6.0-2.61","2638735","co39142","norming","","","{""curiosity"":3,""confidence"":3}","[0,1]","../img/tt/1078tt.jpg","",""
"2508.9200000511482","","","recognition","survey-text","436","1337696","0.0-6.0-3.61","2638735","co39142","norming","","","{""guess"":""muzikanten""}","","../img/tt/1078tt.jpg","",""
"null","../img/gs/1078gs.jpg","null","reveal","image-keyboard-response","437","1339700","0.0-6.0-4.61","2638735","co39142","norming","","","","","","",""
"null","../img/tt/1078tt.jpg","null","mooney2","image-keyboard-response","438","1341702","0.0-6.0-5.61","2638735","co39142","norming","","","","","","",""
"2192.7750000031665","","","post_reveal_questions","survey-likert","439","1343897","0.0-6.0-6.61","2638735","co39142","norming","","","{""aha"":2}","[0]","../img/tt/1078tt.jpg","",""
"null","<div style=""font-size:60px;""> </div>","null","fixation","html-keyboard-response","440","1344104","0.0-6.0-0.62","2638735","co39142","norming","","","","","","",""
"null","../img/tt/1012tt.jpg","null","mooney1","image-keyboard-response","441","1347111","0.0-6.0-1.62","2638735","co39142","norming","","","","","","",""
"4597.9199999710545","","","post_mooney1_questions","survey-likert","442","1351711","0.0-6.0-2.62","2638735","co39142","norming","","","{""curiosity"":3,""confidence"":3}","[0,1]","../img/tt/1012tt.jpg","",""
"4913.429999956861","","","recognition","survey-text","443","1356628","0.0-6.0-3.62","2638735","co39142","norming","","","{""guess"":""pauw""}","","../img/tt/1012tt.jpg","",""
"null","../img/gs/1012gs.jpg","null","reveal","image-keyboard-response","444","1358632","0.0-6.0-4.62","2638735","co39142","norming","","","","","","",""
"null","../img/tt/1012tt.jpg","null","mooney2","image-keyboard-response","445","1360635","0.0-6.0-5.62","2638735","co39142","norming","","","","","","",""
"2533.880000002682","","","post_reveal_questions","survey-likert","446","1363171","0.0-6.0-6.62","2638735","co39142","norming","","","{""aha"":3}","[0]","../img/tt/1012tt.jpg","",""
"null","<div style=""font-size:60px;""> </div>","null","fixation","html-keyboard-response","447","1363377","0.0-6.0-0.63","2638735","co39142","norming","","","","","","",""
"null","../img/tt/1040tt.jpg","null","mooney1","image-keyboard-response","448","1366384","0.0-6.0-1.63","2638735","co39142","norming","","","","","","",""
"3324.7599999886006","","","post_mooney1_questions","survey-likert","449","1369711","0.0-6.0-2.63","2638735","co39142","norming","","","{""curiosity"":3,""confidence"":0}","[0,1]","../img/tt/1040tt.jpg","",""
"2300.900000031106","","","recognition","survey-text","450","1372015","0.0-6.0-3.63","2638735","co39142","norming","","","{""guess"":""geen idee""}","","../img/tt/1040tt.jpg","",""
"null","../img/gs/1040gs.jpg","null","reveal","image-keyboard-response","451","1374019","0.0-6.0-4.63","2638735","co39142","norming","","","","","","",""
"null","../img/tt/1040tt.jpg","null","mooney2","image-keyboard-response","452","1376022","0.0-6.0-5.63","2638735","co39142","norming","","","","","","",""
"2759.429999976419","","","post_reveal_questions","survey-likert","453","1378784","0.0-6.0-6.63","2638735","co39142","norming","","","{""aha"":2}","[0]","../img/tt/1040tt.jpg","",""
"null","<div style=""font-size:60px;""> </div>","null","fixation","html-keyboard-response","454","1378991","0.0-6.0-0.64","2638735","co39142","norming","","","","","","",""
"null","../img/tt/1353tt.jpg","null","mooney1","image-keyboard-response","455","1381993","0.0-6.0-1.64","2638735","co39142","norming","","","","","","",""
"3654.700000071898","","","post_mooney1_questions","survey-likert","456","1385650","0.0-6.0-2.64","2638735","co39142","norming","","","{""curiosity"":3,""confidence"":0}","[0,1]","../img/tt/1353tt.jpg","",""
"1825.7950000697747","","","recognition","survey-text","457","1387480","0.0-6.0-3.64","2638735","co39142","norming","","","{""guess"":""kist""}","","../img/tt/1353tt.jpg","",""
"null","../img/gs/1353gs.jpg","null","reveal","image-keyboard-response","458","1389482","0.0-6.0-4.64","2638735","co39142","norming","","","","","","",""
"null","../img/tt/1353tt.jpg","null","mooney2","image-keyboard-response","459","1391485","0.0-6.0-5.64","2638735","co39142","norming","","","","","","",""
"1655.0950000528246","","","post_reveal_questions","survey-likert","460","1393142","0.0-6.0-6.64","2638735","co39142","norming","","","{""aha"":0}","[0]","../img/tt/1353tt.jpg","",""
"null","<div style=""font-size:60px;""> </div>","null","fixation","html-keyboard-response","461","1393349","0.0-6.0-0.65","2638735","co39142","norming","","","","","","",""
"null","../img/tt/1096tt.jpg","null","mooney1","image-keyboard-response","462","1396351","0.0-6.0-1.65","2638735","co39142","norming","","","","","","",""
"3198.8899999996647","","","post_mooney1_questions","survey-likert","463","1399552","0.0-6.0-2.65","2638735","co39142","norming","","","{""curiosity"":3,""confidence"":3}","[0,1]","../img/tt/1096tt.jpg","",""
"2618.9099999610335","","","recognition","survey-text","464","1402175","0.0-6.0-3.65","2638735","co39142","norming","","","{""guess"":""woonkamer""}","","../img/tt/1096tt.jpg","",""
"null","../img/gs/1096gs.jpg","null","reveal","image-keyboard-response","465","1404179","0.0-6.0-4.65","2638735","co39142","norming","","","","","","",""
"null","../img/tt/1096tt.jpg","null","mooney2","image-keyboard-response","466","1406181","0.0-6.0-5.65","2638735","co39142","norming","","","","","","",""
"2063.6650000233203","","","post_reveal_questions","survey-likert","467","1408247","0.0-6.0-6.65","2638735","co39142","norming","","","{""aha"":2}","[0]","../img/tt/1096tt.jpg","",""
"null","<div style=""font-size:60px;""> </div>","null","fixation","html-keyboard-response","468","1408454","0.0-6.0-0.66","2638735","co39142","norming","","","","","","",""
"null","../img/tt/044tt.jpg","null","mooney1","image-keyboard-response","469","1411461","0.0-6.0-1.66","2638735","co39142","norming","","","","","","",""
"3928.109999978915","","","post_mooney1_questions","survey-likert","470","1415391","0.0-6.0-2.66","2638735","co39142","norming","","","{""curiosity"":3,""confidence"":3}","[0,1]","../img/tt/044tt.jpg","",""
"2851.7050000373274","","","recognition","survey-text","471","1418247","0.0-6.0-3.66","2638735","co39142","norming","","","{""guess"":""piano""}","","../img/tt/044tt.jpg","",""
"null","../img/gs/044gs.jpg","null","reveal","image-keyboard-response","472","1420254","0.0-6.0-4.66","2638735","co39142","norming","","","","","","",""
"null","../img/tt/044tt.jpg","null","mooney2","image-keyboard-response","473","1422256","0.0-6.0-5.66","2638735","co39142","norming","","","","","","",""
"1860.090000089258","","","post_reveal_questions","survey-likert","474","1424118","0.0-6.0-6.66","2638735","co39142","norming","","","{""aha"":2}","[0]","../img/tt/044tt.jpg","",""
"null","<div style=""font-size:60px;""> </div>","null","fixation","html-keyboard-response","475","1424325","0.0-6.0-0.67","2638735","co39142","norming","","","","","","",""
"null","../img/tt/046tt.jpg","null","mooney1","image-keyboard-response","476","1427332","0.0-6.0-1.67","2638735","co39142","norming","","","","","","",""
"4221.139999921434","","","post_mooney1_questions","survey-likert","477","1431556","0.0-6.0-2.67","2638735","co39142","norming","","","{""curiosity"":3,""confidence"":0}","[0,1]","../img/tt/046tt.jpg","",""
"1710.3800000622869","","","recognition","survey-text","478","1433270","0.0-6.0-3.67","2638735","co39142","norming","","","{""guess"":""berg""}","","../img/tt/046tt.jpg","",""
"null","../img/gs/046gs.jpg","null","reveal","image-keyboard-response","479","1435277","0.0-6.0-4.67","2638735","co39142","norming","","","","","","",""
"null","../img/tt/046tt.jpg","null","mooney2","image-keyboard-response","480","1437279","0.0-6.0-5.67","2638735","co39142","norming","","","","","","",""
"3321.585000026971","","","post_reveal_questions","survey-likert","481","1440603","0.0-6.0-6.67","2638735","co39142","norming","","","{""aha"":1}","[0]","../img/tt/046tt.jpg","",""
"null","<div style=""font-size:60px;""> </div>","null","fixation","html-keyboard-response","482","1440811","0.0-6.0-0.68","2638735","co39142","norming","","","","","","",""
"null","../img/tt/357tt.jpg","null","mooney1","image-keyboard-response","483","1443815","0.0-6.0-1.68","2638735","co39142","norming","","","","","","",""
"4086.490000016056","","","post_mooney1_questions","survey-likert","484","1447904","0.0-6.0-2.68","2638735","co39142","norming","","","{""curiosity"":3,""confidence"":3}","[0,1]","../img/tt/357tt.jpg","",""
"1748.435000074096","","","recognition","survey-text","485","1449657","0.0-6.0-3.68","2638735","co39142","norming","","","{""guess"":""vogel""}","","../img/tt/357tt.jpg","",""
"null","../img/gs/357gs.jpg","null","reveal","image-keyboard-response","486","1451659","0.0-6.0-4.68","2638735","co39142","norming","","","","","","",""
"null","../img/tt/357tt.jpg","null","mooney2","image-keyboard-response","487","1453660","0.0-6.0-5.68","2638735","co39142","norming","","","","","","",""
"2577.8100000461563","","","post_reveal_questions","survey-likert","488","1456240","0.0-6.0-6.68","2638735","co39142","norming","","","{""aha"":1}","[0]","../img/tt/357tt.jpg","",""
"null","<div style=""font-size:60px;""> </div>","null","fixation","html-keyboard-response","489","1456447","0.0-6.0-0.69","2638735","co39142","norming","","","","","","",""
"null","../img/tt/1202tt.jpg","null","mooney1","image-keyboard-response","490","1459451","0.0-6.0-1.69","2638735","co39142","norming","","","","","","",""
"3024.2850000504404","","","post_mooney1_questions","survey-likert","491","1462478","0.0-6.0-2.69","2638735","co39142","norming","","","{""curiosity"":3,""confidence"":3}","[0,1]","../img/tt/1202tt.jpg","",""
"1712.7249999903142","","","recognition","survey-text","492","1464195","0.0-6.0-3.69","2638735","co39142","norming","","","{""guess"":""mens""}","","../img/tt/1202tt.jpg","",""
"null","../img/gs/1202gs.jpg","null","reveal","image-keyboard-response","493","1466202","0.0-6.0-4.69","2638735","co39142","norming","","","","","","",""
"null","../img/tt/1202tt.jpg","null","mooney2","image-keyboard-response","494","1468208","0.0-6.0-5.69","2638735","co39142","norming","","","","","","",""
"2172.7950000204146","","","post_reveal_questions","survey-likert","495","1470383","0.0-6.0-6.69","2638735","co39142","norming","","","{""aha"":2}","[0]","../img/tt/1202tt.jpg","",""
"null","<div style=""font-size:60px;""> </div>","null","fixation","html-keyboard-response","496","1470590","0.0-6.0-0.70","2638735","co39142","norming","","","","","","",""
"null","../img/tt/412tt.jpg","null","mooney1","image-keyboard-response","497","1473597","0.0-6.0-1.70","2638735","co39142","norming","","","","","","",""
"3417.6100000040606","","","post_mooney1_questions","survey-likert","498","1477017","0.0-6.0-2.70","2638735","co39142","norming","","","{""curiosity"":3,""confidence"":3}","[0,1]","../img/tt/412tt.jpg","",""
"1935.105000040494","","","recognition","survey-text","499","1478956","0.0-6.0-3.70","2638735","co39142","norming","","","{""guess"":""kraan""}","","../img/tt/412tt.jpg","",""
"null","../img/gs/412gs.jpg","null","reveal","image-keyboard-response","500","1480958","0.0-6.0-4.70","2638735","co39142","norming","","","","","","",""
"null","../img/tt/412tt.jpg","null","mooney2","image-keyboard-response","501","1482959","0.0-6.0-5.70","2638735","co39142","norming","","","","","","",""
"2819.110000040382","","","post_reveal_questions","survey-likert","502","1485781","0.0-6.0-6.70","2638735","co39142","norming","","","{""aha"":0}","[0]","../img/tt/412tt.jpg","",""
"null","<div style=""font-size:60px;""> </div>","null","fixation","html-keyboard-response","503","1485987","0.0-6.0-0.71","2638735","co39142","norming","","","","","","",""
"null","../img/tt/105tt.jpg","null","mooney1","image-keyboard-response","504","1488990","0.0-6.0-1.71","2638735","co39142","norming","","","","","","",""
"4413.700000033714","","","post_mooney1_questions","survey-likert","505","1493406","0.0-6.0-2.71","2638735","co39142","norming","","","{""curiosity"":3,""confidence"":0}","[0,1]","../img/tt/105tt.jpg","",""
"3127.604999928735","","","recognition","survey-text","506","1496538","0.0-6.0-3.71","2638735","co39142","norming","","","{""guess"":""schilderij""}","","../img/tt/105tt.jpg","",""
"null","../img/gs/105gs.jpg","null","reveal","image-keyboard-response","507","1498545","0.0-6.0-4.71","2638735","co39142","norming","","","","","","",""
"null","../img/tt/105tt.jpg","null","mooney2","image-keyboard-response","508","1500551","0.0-6.0-5.71","2638735","co39142","norming","","","","","","",""
"18772.79499999713","","","post_reveal_questions","survey-likert","509","1519324","0.0-6.0-6.71","2638735","co39142","norming","","","{""aha"":4}","[0]","../img/tt/105tt.jpg","",""
"null","<div style=""font-size:60px;""> </div>","null","fixation","html-keyboard-response","510","1519530","0.0-6.0-0.72","2638735","co39142","norming","","","","","","",""
"null","../img/tt/1181tt.jpg","null","mooney1","image-keyboard-response","511","1522537","0.0-6.0-1.72","2638735","co39142","norming","","","","","","",""
"3849.874999956228","","","post_mooney1_questions","survey-likert","512","1526389","0.0-6.0-2.72","2638735","co39142","norming","","","{""curiosity"":4,""confidence"":1}","[0,1]","../img/tt/1181tt.jpg","",""
"3878.0099999858066","","","recognition","survey-text","513","1530271","0.0-6.0-3.72","2638735","co39142","norming","","","{""guess"":""sportman""}","","../img/tt/1181tt.jpg","",""
"null","../img/gs/1181gs.jpg","null","reveal","image-keyboard-response","514","1532277","0.0-6.0-4.72","2638735","co39142","norming","","","","","","",""
"null","../img/tt/1181tt.jpg","null","mooney2","image-keyboard-response","515","1534280","0.0-6.0-5.72","2638735","co39142","norming","","","","","","",""
"2946.224999963306","","","post_reveal_questions","survey-likert","516","1537229","0.0-6.0-6.72","2638735","co39142","norming","","","{""aha"":2}","[0]","../img/tt/1181tt.jpg","",""
"null","<div style=""font-size:60px;""> </div>","null","fixation","html-keyboard-response","517","1537436","0.0-6.0-0.73","2638735","co39142","norming","","","","","","",""
"null","../img/tt/140tt.jpg","null","mooney1","image-keyboard-response","518","1540438","0.0-6.0-1.73","2638735","co39142","norming","","","","","","",""
"3332.130000111647","","","post_mooney1_questions","survey-likert","519","1543772","0.0-6.0-2.73","2638735","co39142","norming","","","{""curiosity"":3,""confidence"":4}","[0,1]","../img/tt/140tt.jpg","",""
"2713.099999935366","","","recognition","survey-text","520","1546490","0.0-6.0-3.73","2638735","co39142","norming","","","{""guess"":""vorken""}","","../img/tt/140tt.jpg","",""
"null","../img/gs/140gs.jpg","null","reveal","image-keyboard-response","521","1548497","0.0-6.0-4.73","2638735","co39142","norming","","","","","","",""
"null","../img/tt/140tt.jpg","null","mooney2","image-keyboard-response","522","1550502","0.0-6.0-5.73","2638735","co39142","norming","","","","","","",""
"4166.070000035688","","","post_reveal_questions","survey-likert","523","1554669","0.0-6.0-6.73","2638735","co39142","norming","","","{""aha"":6}","[0]","../img/tt/140tt.jpg","",""
"null","<div style=""font-size:60px;""> </div>","null","fixation","html-keyboard-response","524","1554873","0.0-6.0-0.74","2638735","co39142","norming","","","","","","",""
"null","../img/tt/1237tt.jpg","null","mooney1","image-keyboard-response","525","1557878","0.0-6.0-1.74","2638735","co39142","norming","","","","","","",""
"5153.859999962151","","","post_mooney1_questions","survey-likert","526","1563034","0.0-6.0-2.74","2638735","co39142","norming","","","{""curiosity"":3,""confidence"":5}","[0,1]","../img/tt/1237tt.jpg","",""
"1290.9700000891462","","","recognition","survey-text","527","1564329","0.0-6.0-3.74","2638735","co39142","norming","","","{""guess"":""eend""}","","../img/tt/1237tt.jpg","",""
"null","../img/gs/1237gs.jpg","null","reveal","image-keyboard-response","528","1566333","0.0-6.0-4.74","2638735","co39142","norming","","","","","","",""
"null","../img/tt/1237tt.jpg","null","mooney2","image-keyboard-response","529","1568339","0.0-6.0-5.74","2638735","co39142","norming","","","","","","",""
"2010.5749999638647","","","post_reveal_questions","survey-likert","530","1570352","0.0-6.0-6.74","2638735","co39142","norming","","","{""aha"":5}","[0]","../img/tt/1237tt.jpg","",""
"null","<div style=""font-size:60px;""> </div>","null","fixation","html-keyboard-response","531","1570556","0.0-6.0-0.75","2638735","co39142","norming","","","","","","",""
"null","../img/tt/053tt.jpg","null","mooney1","image-keyboard-response","532","1573563","0.0-6.0-1.75","2638735","co39142","norming","","","","","","",""
"4018.5500000370666","","","post_mooney1_questions","survey-likert","533","1577583","0.0-6.0-2.75","2638735","co39142","norming","","","{""curiosity"":3,""confidence"":0}","[0,1]","../img/tt/053tt.jpg","",""
"5513.595000025816","","","recognition","survey-text","534","1583101","0.0-6.0-3.75","2638735","co39142","norming","","","{""guess"":""waterval""}","","../img/tt/053tt.jpg","",""
"null","../img/gs/053gs.jpg","null","reveal","image-keyboard-response","535","1585103","0.0-6.0-4.75","2638735","co39142","norming","","","","","","",""
"null","../img/tt/053tt.jpg","null","mooney2","image-keyboard-response","536","1587107","0.0-6.0-5.75","2638735","co39142","norming","","","","","","",""
"2896.409999928437","","","post_reveal_questions","survey-likert","537","1590006","0.0-6.0-6.75","2638735","co39142","norming","","","{""aha"":3}","[0]","../img/tt/053tt.jpg","",""
"null","<div style=""font-size:60px;""> </div>","null","fixation","html-keyboard-response","538","1590213","0.0-6.0-0.76","2638735","co39142","norming","","","","","","",""
"null","../img/tt/060tt.jpg","null","mooney1","image-keyboard-response","539","1593219","0.0-6.0-1.76","2638735","co39142","norming","","","","","","",""
"5405.870000016876","","","post_mooney1_questions","survey-likert","540","1598627","0.0-6.0-2.76","2638735","co39142","norming","","","{""curiosity"":4,""confidence"":1}","[0,1]","../img/tt/060tt.jpg","",""
"3784.4899999909103","","","recognition","survey-text","541","1602416","0.0-6.0-3.76","2638735","co39142","norming","","","{""guess"":""insect""}","","../img/tt/060tt.jpg","",""
"null","../img/gs/060gs.jpg","null","reveal","image-keyboard-response","542","1604420","0.0-6.0-4.76","2638735","co39142","norming","","","","","","",""
"null","../img/tt/060tt.jpg","null","mooney2","image-keyboard-response","543","1606421","0.0-6.0-5.76","2638735","co39142","norming","","","","","","",""
"1574.8149999417365","","","post_reveal_questions","survey-likert","544","1607999","0.0-6.0-6.76","2638735","co39142","norming","","","{""aha"":1}","[0]","../img/tt/060tt.jpg","",""
"null","<div style=""font-size:60px;""> </div>","null","fixation","html-keyboard-response","545","1608206","0.0-6.0-0.77","2638735","co39142","norming","","","","","","",""
"null","../img/tt/1002tt.jpg","null","mooney1","image-keyboard-response","546","1611207","0.0-6.0-1.77","2638735","co39142","norming","","","","","","",""
"4117.9149999516085","","","post_mooney1_questions","survey-likert","547","1615327","0.0-6.0-2.77","2638735","co39142","norming","","","{""curiosity"":3,""confidence"":5}","[0,1]","../img/tt/1002tt.jpg","",""
"1393.019999959506","","","recognition","survey-text","548","1616725","0.0-6.0-3.77","2638735","co39142","norming","","","{""guess"":""beer""}","","../img/tt/1002tt.jpg","",""
"null","../img/gs/1002gs.jpg","null","reveal","image-keyboard-response","549","1618732","0.0-6.0-4.77","2638735","co39142","norming","","","","","","",""
"null","../img/tt/1002tt.jpg","null","mooney2","image-keyboard-response","550","1620738","0.0-6.0-5.77","2638735","co39142","norming","","","","","","",""
"2399.5100000174716","","","post_reveal_questions","survey-likert","551","1623140","0.0-6.0-6.77","2638735","co39142","norming","","","{""aha"":4}","[0]","../img/tt/1002tt.jpg","",""
