"rt","stimulus","key_press","test_part","trial_type","trial_index","time_elapsed","internal_node_id","totalTime","subject","experiment_name","button_pressed","success","responses","question_order","currentStim","old","correct"
"6400.335000013001","Welcome to the experiment. This is an online experiment so please don't close the tab/window until we say goodbye.  Press any key to begin.","32","instructions","html-keyboard-response","0","6420","0.0-0.0","4119710","co39175","norming","","","","","","",""
"23579.085000092164","<div style='word-wrap: break-word; width: 900px'><h3>Please consider this information carefully before deciding whether to participate in this research</h3><ul style='text-align: left; font-size: .8em;'><li><b>Purpose of the research</b>: To examine how people process images.</li><li><b>What you will do in this research</b>:  Stimuli (images) will be presented on the computer and you will be asked different questions about them.</li><li><b>Time required</b>: Participation will take between 45 and 60 minutes to complete.</li><li><b>Risks</b>:  There are no anticipated risks associated with participating in this study. The effects of participating should be comparable to those you would experience from viewing a computer monitor for 30 minutes and using a mouse or keyboard.</li><li><b>Benefits</b>:  This study provides no benefits to you individually except for the credit. The study provides important information about the nature of perception and learning.</li><li><b>Confidentiality</b>:  Your participation in this study will remain confidential. No personally identifiable information will be associated with your data. Your de-identified data may be shared with other researchers and used in future projects.</li><li><b>Participation and withdrawal</b>:  Your participation in this study is completely voluntary and you may refuse to participate or you may choose to withdraw at any time without penalty.</li><li><b>How to contact the researchers</b>: If you have questions or concerns about your participation or payment, or want to request a summary of research findings, please contact Sander Van de Cruys (KU Leuven), at sander.vandecruys@kuleuven.be.</li></ul><p>The nature and purpose of this research have been sufficiently explained and I agree to participate in this study.  I understand that I am free to withdraw at any time without incurring any penalty.</p><p>Please consent by clicking the button below to continue. Otherwise, please exit the study at this time.</p></div>","","instructions","html-button-response","1","30002","0.0-1.0","4119710","co39175","norming","0","","","","","",""
"","","","instructions","fullscreen","2","38499","0.0-2.0","4119710","co39175","norming","","true","","","","",""
"34966.25000005588","","","sona","survey-html-form","3","73472","0.0-3.0","4119710","co39175","norming","","","[{""name"":""sonaid"",""value"":""39175""},{""name"":""debrief"",""value"":""yes""},{""name"":""datajoin"",""value"":""yes""}]","","","",""
"5206.050000037067","<div style='word-wrap: break-word; width: 900px'><h3>Instructions</h3><p>This experiment will have 3 parts. In the first part you will see a series of distorted images like the one below on the left. As you can see in the righthand image, the distorted images are derived from actual photographs. In what follows, you will <strong>briefly</strong> be presented with <strong>only</strong> the distorted image.</p> <div style='float: left; margin-right: 20px;'><img src='../img/018tt.jpg' height='250' width='250'></img></div><div style='float: right; margin-left: 20px;'><img src='../img/018gs.jpg' height='250' width='250'></img></div><p>Subsequently you will be asked a few questions about the image: One question on how <strong>curious</strong> you are about the solution and one on how <strong>confident</strong> you are that you know the solution.</p>Next, we ask you to make a guess on what is in the image. Note that it is OK to name just the <strong>basic level category</strong>. For example when you see a parrot in the image, 'parrot' will obviously be a correct answer but also correct is 'bird'. However, 'animal' will <strong>not</strong> be counted as a correct response. For the example above, 'rose' would be correct or 'flower', but not 'plant'. When soccer players are depicted, 'soccer', 'football', 'soccer players' will be correct, but not 'humans', 'outdoors', or 'sports'. You do not need to describe the image in full, just name the main object in it <strong>in one or two words</strong>. All images depict objects from one of the following broad level categories: animals, inanimate objects, plants, sports, vehicles, and food. Recognizing means knowing <strong>more</strong> than these broad labels for a given image. But we always encourage you to <strong>make a guess</strong> if you can. Note that you are allowed to use <strong>Dutch and English</strong> in your answers, whatever comes easiest for you.</p><p>Press any key to continue.</p></div>","175","instructions","html-keyboard-response","4","78684","0.0-4.0","4119710","co39175","norming","","","","","","",""
"1764.5499999634922","<div style='word-wrap: break-word; width: 900px'><h3>Instructions</h3> <p>Next, the solution image will be revealed to you and you'll be asked to indicate how strong your <strong>aha-experience</strong> was after seeing the solution. This describes the positive feeling of the 'click' you sometimes experience, when the pieces of the 'puzzle' fall together and you suddenly have 'insight' in the image.</p><img src='aha.jpg' height='188' width='250'></img><p>Note that there are no right or wrong answers. We are interested in what <strong>you</strong> see in the image and how <strong>you</strong> feel about it.</p><p>Press any key to start the experiment.</p></div>","174","instructions","html-keyboard-response","5","80449","0.0-5.0","4119710","co39175","norming","","","","","","",""
"null","<div style=""font-size:60px;""> </div>","null","fixation","html-keyboard-response","6","80651","0.0-6.0-0.0","4119710","co39175","norming","","","","","","",""
"null","../img/tt/517tt.jpg","null","mooney1","image-keyboard-response","7","83656","0.0-6.0-1.0","4119710","co39175","norming","","","","","","",""
"18302.069999976084","","","post_mooney1_questions","survey-likert","8","101961","0.0-6.0-2.0","4119710","co39175","norming","","","{""curiosity"":4,""confidence"":3}","[0,1]","../img/tt/517tt.jpg","",""
"7903.5349999321625","","","recognition","survey-text","9","109877","0.0-6.0-3.0","4119710","co39175","norming","","","{""guess"":""""}","","../img/tt/517tt.jpg","",""
"null","../img/gs/517gs.jpg","null","reveal","image-keyboard-response","10","111883","0.0-6.0-4.0","4119710","co39175","norming","","","","","","",""
"null","../img/tt/517tt.jpg","null","mooney2","image-keyboard-response","11","113884","0.0-6.0-5.0","4119710","co39175","norming","","","","","","",""
"6905.129999970086","","","post_reveal_questions","survey-likert","12","120791","0.0-6.0-6.0","4119710","co39175","norming","","","{""aha"":3}","[0]","../img/tt/517tt.jpg","",""
"null","<div style=""font-size:60px;""> </div>","null","fixation","html-keyboard-response","13","121005","0.0-6.0-0.1","4119710","co39175","norming","","","","","","",""
"null","../img/tt/1123tt.jpg","null","mooney1","image-keyboard-response","14","124007","0.0-6.0-1.1","4119710","co39175","norming","","","","","","",""
"8206.329999957234","","","post_mooney1_questions","survey-likert","15","132217","0.0-6.0-2.1","4119710","co39175","norming","","","{""curiosity"":4,""confidence"":4}","[0,1]","../img/tt/1123tt.jpg","",""
"29055.315000005066","","","recognition","survey-text","16","161277","0.0-6.0-3.1","4119710","co39175","norming","","","{""guess"":""een beer die in de zon staat""}","","../img/tt/1123tt.jpg","",""
"null","../img/gs/1123gs.jpg","null","reveal","image-keyboard-response","17","163281","0.0-6.0-4.1","4119710","co39175","norming","","","","","","",""
"null","../img/tt/1123tt.jpg","null","mooney2","image-keyboard-response","18","165285","0.0-6.0-5.1","4119710","co39175","norming","","","","","","",""
"4409.394999966025","","","post_reveal_questions","survey-likert","19","169696","0.0-6.0-6.1","4119710","co39175","norming","","","{""aha"":2}","[0]","../img/tt/1123tt.jpg","",""
"null","<div style=""font-size:60px;""> </div>","null","fixation","html-keyboard-response","20","169909","0.0-6.0-0.2","4119710","co39175","norming","","","","","","",""
"null","../img/tt/1142tt.jpg","null","mooney1","image-keyboard-response","21","172914","0.0-6.0-1.2","4119710","co39175","norming","","","","","","",""
"10247.139999992214","","","post_mooney1_questions","survey-likert","22","183165","0.0-6.0-2.2","4119710","co39175","norming","","","{""curiosity"":4,""confidence"":5}","[0,1]","../img/tt/1142tt.jpg","",""
"17166.270000045188","","","recognition","survey-text","23","200347","0.0-6.0-3.2","4119710","co39175","norming","","","{""guess"":""Iemand die springt (verspringer)""}","","../img/tt/1142tt.jpg","",""
"null","../img/gs/1142gs.jpg","null","reveal","image-keyboard-response","24","202351","0.0-6.0-4.2","4119710","co39175","norming","","","","","","",""
"null","../img/tt/1142tt.jpg","null","mooney2","image-keyboard-response","25","204354","0.0-6.0-5.2","4119710","co39175","norming","","","","","","",""
"5271.460000076331","","","post_reveal_questions","survey-likert","26","209630","0.0-6.0-6.2","4119710","co39175","norming","","","{""aha"":5}","[0]","../img/tt/1142tt.jpg","",""
"null","<div style=""font-size:60px;""> </div>","null","fixation","html-keyboard-response","27","209841","0.0-6.0-0.3","4119710","co39175","norming","","","","","","",""
"null","../img/tt/053tt.jpg","null","mooney1","image-keyboard-response","28","212845","0.0-6.0-1.3","4119710","co39175","norming","","","","","","",""
"10242.619999917224","","","post_mooney1_questions","survey-likert","29","223092","0.0-6.0-2.3","4119710","co39175","norming","","","{""curiosity"":6,""confidence"":1}","[0,1]","../img/tt/053tt.jpg","",""
"8513.099999981932","","","recognition","survey-text","30","231622","0.0-6.0-3.3","4119710","co39175","norming","","","{""guess"":""Een vogel?""}","","../img/tt/053tt.jpg","",""
"null","../img/gs/053gs.jpg","null","reveal","image-keyboard-response","31","233623","0.0-6.0-4.3","4119710","co39175","norming","","","","","","",""
"null","../img/tt/053tt.jpg","null","mooney2","image-keyboard-response","32","235626","0.0-6.0-5.3","4119710","co39175","norming","","","","","","",""
"4975.15499999281","","","post_reveal_questions","survey-likert","33","240605","0.0-6.0-6.3","4119710","co39175","norming","","","{""aha"":0}","[0]","../img/tt/053tt.jpg","",""
"null","<div style=""font-size:60px;""> </div>","null","fixation","html-keyboard-response","34","240818","0.0-6.0-0.4","4119710","co39175","norming","","","","","","",""
"null","../img/tt/1227tt.jpg","null","mooney1","image-keyboard-response","35","243821","0.0-6.0-1.4","4119710","co39175","norming","","","","","","",""
"7969.540000078268","","","post_mooney1_questions","survey-likert","36","251795","0.0-6.0-2.4","4119710","co39175","norming","","","{""curiosity"":5,""confidence"":2}","[0,1]","../img/tt/1227tt.jpg","",""
"11730.994999990799","","","recognition","survey-text","37","263533","0.0-6.0-3.4","4119710","co39175","norming","","","{""guess"":""Een rij plantjes""}","","../img/tt/1227tt.jpg","",""
"null","../img/gs/1227gs.jpg","null","reveal","image-keyboard-response","38","265537","0.0-6.0-4.4","4119710","co39175","norming","","","","","","",""
"null","../img/tt/1227tt.jpg","null","mooney2","image-keyboard-response","39","267539","0.0-6.0-5.4","4119710","co39175","norming","","","","","","",""
"3729.865000001155","","","post_reveal_questions","survey-likert","40","271271","0.0-6.0-6.4","4119710","co39175","norming","","","{""aha"":0}","[0]","../img/tt/1227tt.jpg","",""
"null","<div style=""font-size:60px;""> </div>","null","fixation","html-keyboard-response","41","271483","0.0-6.0-0.5","4119710","co39175","norming","","","","","","",""
"null","../img/tt/1362tt.jpg","null","mooney1","image-keyboard-response","42","274487","0.0-6.0-1.5","4119710","co39175","norming","","","","","","",""
"6379.4150000903755","","","post_mooney1_questions","survey-likert","43","280871","0.0-6.0-2.5","4119710","co39175","norming","","","{""curiosity"":5,""confidence"":3}","[0,1]","../img/tt/1362tt.jpg","",""
"11392.315000062808","","","recognition","survey-text","44","292276","0.0-6.0-3.5","4119710","co39175","norming","","","{""guess"":""Een hoed, een stok,..""}","","../img/tt/1362tt.jpg","",""
"null","../img/gs/1362gs.jpg","null","reveal","image-keyboard-response","45","294280","0.0-6.0-4.5","4119710","co39175","norming","","","","","","",""
"null","../img/tt/1362tt.jpg","null","mooney2","image-keyboard-response","46","296282","0.0-6.0-5.5","4119710","co39175","norming","","","","","","",""
"3615.8399999840185","","","post_reveal_questions","survey-likert","47","299902","0.0-6.0-6.5","4119710","co39175","norming","","","{""aha"":0}","[0]","../img/tt/1362tt.jpg","",""
"null","<div style=""font-size:60px;""> </div>","null","fixation","html-keyboard-response","48","300114","0.0-6.0-0.6","4119710","co39175","norming","","","","","","",""
"null","../img/tt/378tt.jpg","null","mooney1","image-keyboard-response","49","303119","0.0-6.0-1.6","4119710","co39175","norming","","","","","","",""
"8834.330000099726","","","post_mooney1_questions","survey-likert","50","311957","0.0-6.0-2.6","4119710","co39175","norming","","","{""curiosity"":6,""confidence"":0}","[0,1]","../img/tt/378tt.jpg","",""
"1274.7499999823049","","","recognition","survey-text","51","313249","0.0-6.0-3.6","4119710","co39175","norming","","","{""guess"":""""}","","../img/tt/378tt.jpg","",""
"null","../img/gs/378gs.jpg","null","reveal","image-keyboard-response","52","315253","0.0-6.0-4.6","4119710","co39175","norming","","","","","","",""
"null","../img/tt/378tt.jpg","null","mooney2","image-keyboard-response","53","317255","0.0-6.0-5.6","4119710","co39175","norming","","","","","","",""
"4376.554999966174","","","post_reveal_questions","survey-likert","54","321633","0.0-6.0-6.6","4119710","co39175","norming","","","{""aha"":0}","[0]","../img/tt/378tt.jpg","",""
"null","<div style=""font-size:60px;""> </div>","null","fixation","html-keyboard-response","55","321845","0.0-6.0-0.7","4119710","co39175","norming","","","","","","",""
"null","../img/tt/1128tt.jpg","null","mooney1","image-keyboard-response","56","324849","0.0-6.0-1.7","4119710","co39175","norming","","","","","","",""
"6661.180000053719","","","post_mooney1_questions","survey-likert","57","331514","0.0-6.0-2.7","4119710","co39175","norming","","","{""curiosity"":4,""confidence"":2}","[0,1]","../img/tt/1128tt.jpg","",""
"7718.525000032969","","","recognition","survey-text","58","339247","0.0-6.0-3.7","4119710","co39175","norming","","","{""guess"":""Een man die ligt""}","","../img/tt/1128tt.jpg","",""
"null","../img/gs/1128gs.jpg","null","reveal","image-keyboard-response","59","341250","0.0-6.0-4.7","4119710","co39175","norming","","","","","","",""
"null","../img/tt/1128tt.jpg","null","mooney2","image-keyboard-response","60","343252","0.0-6.0-5.7","4119710","co39175","norming","","","","","","",""
"3587.709999992512","","","post_reveal_questions","survey-likert","61","346843","0.0-6.0-6.7","4119710","co39175","norming","","","{""aha"":2}","[0]","../img/tt/1128tt.jpg","",""
"null","<div style=""font-size:60px;""> </div>","null","fixation","html-keyboard-response","62","347055","0.0-6.0-0.8","4119710","co39175","norming","","","","","","",""
"null","../img/tt/056tt.jpg","null","mooney1","image-keyboard-response","63","350060","0.0-6.0-1.8","4119710","co39175","norming","","","","","","",""
"4822.395000024699","","","post_mooney1_questions","survey-likert","64","354886","0.0-6.0-2.8","4119710","co39175","norming","","","{""curiosity"":4,""confidence"":4}","[0,1]","../img/tt/056tt.jpg","",""
"4721.265000058338","","","recognition","survey-text","65","359613","0.0-6.0-3.8","4119710","co39175","norming","","","{""guess"":""2 wandelaars""}","","../img/tt/056tt.jpg","",""
"null","../img/gs/056gs.jpg","null","reveal","image-keyboard-response","66","361616","0.0-6.0-4.8","4119710","co39175","norming","","","","","","",""
"null","../img/tt/056tt.jpg","null","mooney2","image-keyboard-response","67","363618","0.0-6.0-5.8","4119710","co39175","norming","","","","","","",""
"2174.044999992475","","","post_reveal_questions","survey-likert","68","365793","0.0-6.0-6.8","4119710","co39175","norming","","","{""aha"":0}","[0]","../img/tt/056tt.jpg","",""
"null","<div style=""font-size:60px;""> </div>","null","fixation","html-keyboard-response","69","365998","0.0-6.0-0.9","4119710","co39175","norming","","","","","","",""
"null","../img/tt/1234tt.jpg","null","mooney1","image-keyboard-response","70","369001","0.0-6.0-1.9","4119710","co39175","norming","","","","","","",""
"10697.73500005249","","","post_mooney1_questions","survey-likert","71","379701","0.0-6.0-2.9","4119710","co39175","norming","","","{""curiosity"":5,""confidence"":2}","[0,1]","../img/tt/1234tt.jpg","",""
"14895.460000028834","","","recognition","survey-text","72","394610","0.0-6.0-3.9","4119710","co39175","norming","","","{""guess"":""Rotsen, iets wat erop staat maar niet duidelijk wat""}","","../img/tt/1234tt.jpg","",""
"null","../img/gs/1234gs.jpg","null","reveal","image-keyboard-response","73","396615","0.0-6.0-4.9","4119710","co39175","norming","","","","","","",""
"null","../img/tt/1234tt.jpg","null","mooney2","image-keyboard-response","74","398619","0.0-6.0-5.9","4119710","co39175","norming","","","","","","",""
"18380.500000086613","","","post_reveal_questions","survey-likert","75","417001","0.0-6.0-6.9","4119710","co39175","norming","","","{""aha"":0}","[0]","../img/tt/1234tt.jpg","",""
"null","<div style=""font-size:60px;""> </div>","null","fixation","html-keyboard-response","76","417208","0.0-6.0-0.10","4119710","co39175","norming","","","","","","",""
"null","../img/tt/1154tt.jpg","null","mooney1","image-keyboard-response","77","420211","0.0-6.0-1.10","4119710","co39175","norming","","","","","","",""
"11026.130000012927","","","post_mooney1_questions","survey-likert","78","431239","0.0-6.0-2.10","4119710","co39175","norming","","","{""curiosity"":5,""confidence"":2}","[0,1]","../img/tt/1154tt.jpg","",""
"19322.039999999106","","","recognition","survey-text","79","450567","0.0-6.0-3.10","4119710","co39175","norming","","","{""guess"":""Een dier (vos) dat door de natuur loopt""}","","../img/tt/1154tt.jpg","",""
"null","../img/gs/1154gs.jpg","null","reveal","image-keyboard-response","80","452572","0.0-6.0-4.10","4119710","co39175","norming","","","","","","",""
"null","../img/tt/1154tt.jpg","null","mooney2","image-keyboard-response","81","454574","0.0-6.0-5.10","4119710","co39175","norming","","","","","","",""
"6886.575000011362","","","post_reveal_questions","survey-likert","82","461464","0.0-6.0-6.10","4119710","co39175","norming","","","{""aha"":0}","[0]","../img/tt/1154tt.jpg","",""
"null","<div style=""font-size:60px;""> </div>","null","fixation","html-keyboard-response","83","461673","0.0-6.0-0.11","4119710","co39175","norming","","","","","","",""
"null","../img/tt/078tt.jpg","null","mooney1","image-keyboard-response","84","464677","0.0-6.0-1.11","4119710","co39175","norming","","","","","","",""
"10918.605000013486","","","post_mooney1_questions","survey-likert","85","475600","0.0-6.0-2.11","4119710","co39175","norming","","","{""curiosity"":4,""confidence"":4}","[0,1]","../img/tt/078tt.jpg","",""
"15589.200000045821","","","recognition","survey-text","86","491199","0.0-6.0-3.11","4119710","co39175","norming","","","{""guess"":""Een bijenkorf""}","","../img/tt/078tt.jpg","",""
"null","../img/gs/078gs.jpg","null","reveal","image-keyboard-response","87","493201","0.0-6.0-4.11","4119710","co39175","norming","","","","","","",""
"null","../img/tt/078tt.jpg","null","mooney2","image-keyboard-response","88","495208","0.0-6.0-5.11","4119710","co39175","norming","","","","","","",""
"2464.0800000634044","","","post_reveal_questions","survey-likert","89","497674","0.0-6.0-6.11","4119710","co39175","norming","","","{""aha"":2}","[0]","../img/tt/078tt.jpg","",""
"null","<div style=""font-size:60px;""> </div>","null","fixation","html-keyboard-response","90","497878","0.0-6.0-0.12","4119710","co39175","norming","","","","","","",""
"null","../img/tt/163tt.jpg","null","mooney1","image-keyboard-response","91","500882","0.0-6.0-1.12","4119710","co39175","norming","","","","","","",""
"12460.26000007987","","","post_mooney1_questions","survey-likert","92","513344","0.0-6.0-2.12","4119710","co39175","norming","","","{""curiosity"":4,""confidence"":3}","[0,1]","../img/tt/163tt.jpg","",""
"15799.510000040755","","","recognition","survey-text","93","529155","0.0-6.0-3.12","4119710","co39175","norming","","","{""guess"":""Een persoon die op een muur klimt""}","","../img/tt/163tt.jpg","",""
"null","../img/gs/163gs.jpg","null","reveal","image-keyboard-response","94","531158","0.0-6.0-4.12","4119710","co39175","norming","","","","","","",""
"null","../img/tt/163tt.jpg","null","mooney2","image-keyboard-response","95","533160","0.0-6.0-5.12","4119710","co39175","norming","","","","","","",""
"2358.4249999839813","","","post_reveal_questions","survey-likert","96","535521","0.0-6.0-6.12","4119710","co39175","norming","","","{""aha"":0}","[0]","../img/tt/163tt.jpg","",""
"null","<div style=""font-size:60px;""> </div>","null","fixation","html-keyboard-response","97","535727","0.0-6.0-0.13","4119710","co39175","norming","","","","","","",""
"null","../img/tt/1070tt.jpg","null","mooney1","image-keyboard-response","98","538728","0.0-6.0-1.13","4119710","co39175","norming","","","","","","",""
"6991.960000013933","","","post_mooney1_questions","survey-likert","99","545724","0.0-6.0-2.13","4119710","co39175","norming","","","{""curiosity"":4,""confidence"":4}","[0,1]","../img/tt/1070tt.jpg","",""
"6479.735000059009","","","recognition","survey-text","100","552218","0.0-6.0-3.13","4119710","co39175","norming","","","{""guess"":""Een stuk taart""}","","../img/tt/1070tt.jpg","",""
"null","../img/gs/1070gs.jpg","null","reveal","image-keyboard-response","101","554222","0.0-6.0-4.13","4119710","co39175","norming","","","","","","",""
"null","../img/tt/1070tt.jpg","null","mooney2","image-keyboard-response","102","556225","0.0-6.0-5.13","4119710","co39175","norming","","","","","","",""
"4100.469999946654","","","post_reveal_questions","survey-likert","103","560329","0.0-6.0-6.13","4119710","co39175","norming","","","{""aha"":6}","[0]","../img/tt/1070tt.jpg","",""
"null","<div style=""font-size:60px;""> </div>","null","fixation","html-keyboard-response","104","560541","0.0-6.0-0.14","4119710","co39175","norming","","","","","","",""
"null","../img/tt/1130tt.jpg","null","mooney1","image-keyboard-response","105","563545","0.0-6.0-1.14","4119710","co39175","norming","","","","","","",""
"5809.224999975413","","","post_mooney1_questions","survey-likert","106","569358","0.0-6.0-2.14","4119710","co39175","norming","","","{""curiosity"":4,""confidence"":4}","[0,1]","../img/tt/1130tt.jpg","",""
"5732.149999937974","","","recognition","survey-text","107","575105","0.0-6.0-3.14","4119710","co39175","norming","","","{""guess"":""Een fietsende persoon""}","","../img/tt/1130tt.jpg","",""
"null","../img/gs/1130gs.jpg","null","reveal","image-keyboard-response","108","577107","0.0-6.0-4.14","4119710","co39175","norming","","","","","","",""
"null","../img/tt/1130tt.jpg","null","mooney2","image-keyboard-response","109","579110","0.0-6.0-5.14","4119710","co39175","norming","","","","","","",""
"2902.104999986477","","","post_reveal_questions","survey-likert","110","582015","0.0-6.0-6.14","4119710","co39175","norming","","","{""aha"":5}","[0]","../img/tt/1130tt.jpg","",""
"null","<div style=""font-size:60px;""> </div>","null","fixation","html-keyboard-response","111","582228","0.0-6.0-0.15","4119710","co39175","norming","","","","","","",""
"null","../img/tt/108tt.jpg","null","mooney1","image-keyboard-response","112","585232","0.0-6.0-1.15","4119710","co39175","norming","","","","","","",""
"9605.135000078008","","","post_mooney1_questions","survey-likert","113","594838","0.0-6.0-2.15","4119710","co39175","norming","","","{""curiosity"":6,""confidence"":0}","[0,1]","../img/tt/108tt.jpg","",""
"1007.7099999180064","","","recognition","survey-text","114","595851","0.0-6.0-3.15","4119710","co39175","norming","","","{""guess"":""""}","","../img/tt/108tt.jpg","",""
"null","../img/gs/108gs.jpg","null","reveal","image-keyboard-response","115","597852","0.0-6.0-4.15","4119710","co39175","norming","","","","","","",""
"null","../img/tt/108tt.jpg","null","mooney2","image-keyboard-response","116","599855","0.0-6.0-5.15","4119710","co39175","norming","","","","","","",""
"25394.069999922067","","","post_reveal_questions","survey-likert","117","625252","0.0-6.0-6.15","4119710","co39175","norming","","","{""aha"":0}","[0]","../img/tt/108tt.jpg","",""
"null","<div style=""font-size:60px;""> </div>","null","fixation","html-keyboard-response","118","625459","0.0-6.0-0.16","4119710","co39175","norming","","","","","","",""
"null","../img/tt/1033tt.jpg","null","mooney1","image-keyboard-response","119","628462","0.0-6.0-1.16","4119710","co39175","norming","","","","","","",""
"7510.284999967553","","","post_mooney1_questions","survey-likert","120","635974","0.0-6.0-2.16","4119710","co39175","norming","","","{""curiosity"":3,""confidence"":4}","[0,1]","../img/tt/1033tt.jpg","",""
"7297.164999996312","","","recognition","survey-text","121","643284","0.0-6.0-3.16","4119710","co39175","norming","","","{""guess"":""Iemand die honkbal speelt""}","","../img/tt/1033tt.jpg","",""
"null","../img/gs/1033gs.jpg","null","reveal","image-keyboard-response","122","645286","0.0-6.0-4.16","4119710","co39175","norming","","","","","","",""
"null","../img/tt/1033tt.jpg","null","mooney2","image-keyboard-response","123","647288","0.0-6.0-5.16","4119710","co39175","norming","","","","","","",""
"17818.33000003826","","","post_reveal_questions","survey-likert","124","665110","0.0-6.0-6.16","4119710","co39175","norming","","","{""aha"":4}","[0]","../img/tt/1033tt.jpg","",""
"null","<div style=""font-size:60px;""> </div>","null","fixation","html-keyboard-response","125","665316","0.0-6.0-0.17","4119710","co39175","norming","","","","","","",""
"null","../img/tt/001tt.jpg","null","mooney1","image-keyboard-response","126","668320","0.0-6.0-1.17","4119710","co39175","norming","","","","","","",""
"4421.120000071824","","","post_mooney1_questions","survey-likert","127","672745","0.0-6.0-2.17","4119710","co39175","norming","","","{""curiosity"":4,""confidence"":3}","[0,1]","../img/tt/001tt.jpg","",""
"4397.129999939352","","","recognition","survey-text","128","677150","0.0-6.0-3.17","4119710","co39175","norming","","","{""guess"":""Een koe""}","","../img/tt/001tt.jpg","",""
"null","../img/gs/001gs.jpg","null","reveal","image-keyboard-response","129","679154","0.0-6.0-4.17","4119710","co39175","norming","","","","","","",""
"null","../img/tt/001tt.jpg","null","mooney2","image-keyboard-response","130","681156","0.0-6.0-5.17","4119710","co39175","norming","","","","","","",""
"3265.2349999407306","","","post_reveal_questions","survey-likert","131","684425","0.0-6.0-6.17","4119710","co39175","norming","","","{""aha"":2}","[0]","../img/tt/001tt.jpg","",""
"null","<div style=""font-size:60px;""> </div>","null","fixation","html-keyboard-response","132","684632","0.0-6.0-0.18","4119710","co39175","norming","","","","","","",""
"null","../img/tt/468tt.jpg","null","mooney1","image-keyboard-response","133","687636","0.0-6.0-1.18","4119710","co39175","norming","","","","","","",""
"19762.945000082254","","","post_mooney1_questions","survey-likert","134","707401","0.0-6.0-2.18","4119710","co39175","norming","","","{""curiosity"":6,""confidence"":0}","[0,1]","../img/tt/468tt.jpg","",""
"8167.639999999665","","","recognition","survey-text","135","715575","0.0-6.0-3.18","4119710","co39175","norming","","","{""guess"":""""}","","../img/tt/468tt.jpg","",""
"null","../img/gs/468gs.jpg","null","reveal","image-keyboard-response","136","717581","0.0-6.0-4.18","4119710","co39175","norming","","","","","","",""
"null","../img/tt/468tt.jpg","null","mooney2","image-keyboard-response","137","719584","0.0-6.0-5.18","4119710","co39175","norming","","","","","","",""
"18223.794999998063","","","post_reveal_questions","survey-likert","138","737809","0.0-6.0-6.18","4119710","co39175","norming","","","{""aha"":0}","[0]","../img/tt/468tt.jpg","",""
"null","<div style=""font-size:60px;""> </div>","null","fixation","html-keyboard-response","139","738013","0.0-6.0-0.19","4119710","co39175","norming","","","","","","",""
"null","../img/tt/1171tt.jpg","null","mooney1","image-keyboard-response","140","741016","0.0-6.0-1.19","4119710","co39175","norming","","","","","","",""
"7741.089999908581","","","post_mooney1_questions","survey-likert","141","748759","0.0-6.0-2.19","4119710","co39175","norming","","","{""curiosity"":5,""confidence"":4}","[0,1]","../img/tt/1171tt.jpg","",""
"7307.875000056811","","","recognition","survey-text","142","756080","0.0-6.0-3.19","4119710","co39175","norming","","","{""guess"":""Iemand met een masker""}","","../img/tt/1171tt.jpg","",""
"null","../img/gs/1171gs.jpg","null","reveal","image-keyboard-response","143","758084","0.0-6.0-4.19","4119710","co39175","norming","","","","","","",""
"null","../img/tt/1171tt.jpg","null","mooney2","image-keyboard-response","144","760086","0.0-6.0-5.19","4119710","co39175","norming","","","","","","",""
"5110.03000009805","","","post_reveal_questions","survey-likert","145","765199","0.0-6.0-6.19","4119710","co39175","norming","","","{""aha"":5}","[0]","../img/tt/1171tt.jpg","",""
"null","<div style=""font-size:60px;""> </div>","null","fixation","html-keyboard-response","146","765403","0.0-6.0-0.20","4119710","co39175","norming","","","","","","",""
"null","../img/tt/1261tt.jpg","null","mooney1","image-keyboard-response","147","768407","0.0-6.0-1.20","4119710","co39175","norming","","","","","","",""
"9187.585000065155","","","post_mooney1_questions","survey-likert","148","777598","0.0-6.0-2.20","4119710","co39175","norming","","","{""curiosity"":6,""confidence"":0}","[0,1]","../img/tt/1261tt.jpg","",""
"2548.545000026934","","","recognition","survey-text","149","780152","0.0-6.0-3.20","4119710","co39175","norming","","","{""guess"":""""}","","../img/tt/1261tt.jpg","",""
"null","../img/gs/1261gs.jpg","null","reveal","image-keyboard-response","150","782156","0.0-6.0-4.20","4119710","co39175","norming","","","","","","",""
"null","../img/tt/1261tt.jpg","null","mooney2","image-keyboard-response","151","784159","0.0-6.0-5.20","4119710","co39175","norming","","","","","","",""
"5426.570000010543","","","post_reveal_questions","survey-likert","152","789588","0.0-6.0-6.20","4119710","co39175","norming","","","{""aha"":4}","[0]","../img/tt/1261tt.jpg","",""
"null","<div style=""font-size:60px;""> </div>","null","fixation","html-keyboard-response","153","789799","0.0-6.0-0.21","4119710","co39175","norming","","","","","","",""
"null","../img/tt/111tt.jpg","null","mooney1","image-keyboard-response","154","792801","0.0-6.0-1.21","4119710","co39175","norming","","","","","","",""
"9874.904999975115","","","post_mooney1_questions","survey-likert","155","802681","0.0-6.0-2.21","4119710","co39175","norming","","","{""curiosity"":4,""confidence"":3}","[0,1]","../img/tt/111tt.jpg","",""
"6751.160000101663","","","recognition","survey-text","156","809447","0.0-6.0-3.21","4119710","co39175","norming","","","{""guess"":""Een soort plant""}","","../img/tt/111tt.jpg","",""
"null","../img/gs/111gs.jpg","null","reveal","image-keyboard-response","157","811452","0.0-6.0-4.21","4119710","co39175","norming","","","","","","",""
"null","../img/tt/111tt.jpg","null","mooney2","image-keyboard-response","158","813454","0.0-6.0-5.21","4119710","co39175","norming","","","","","","",""
"18471.064999932423","","","post_reveal_questions","survey-likert","159","831927","0.0-6.0-6.21","4119710","co39175","norming","","","{""aha"":1}","[0]","../img/tt/111tt.jpg","",""
"null","<div style=""font-size:60px;""> </div>","null","fixation","html-keyboard-response","160","832139","0.0-6.0-0.22","4119710","co39175","norming","","","","","","",""
"null","../img/tt/1006tt.jpg","null","mooney1","image-keyboard-response","161","835143","0.0-6.0-1.22","4119710","co39175","norming","","","","","","",""
"6077.639999915846","","","post_mooney1_questions","survey-likert","162","841225","0.0-6.0-2.22","4119710","co39175","norming","","","{""curiosity"":4,""confidence"":4}","[0,1]","../img/tt/1006tt.jpg","",""
"4397.629999904893","","","recognition","survey-text","163","845637","0.0-6.0-3.22","4119710","co39175","norming","","","{""guess"":""Koeien in de wei""}","","../img/tt/1006tt.jpg","",""
"null","../img/gs/1006gs.jpg","null","reveal","image-keyboard-response","164","847642","0.0-6.0-4.22","4119710","co39175","norming","","","","","","",""
"null","../img/tt/1006tt.jpg","null","mooney2","image-keyboard-response","165","849644","0.0-6.0-5.22","4119710","co39175","norming","","","","","","",""
"8267.684999969788","","","post_reveal_questions","survey-likert","166","857915","0.0-6.0-6.22","4119710","co39175","norming","","","{""aha"":4}","[0]","../img/tt/1006tt.jpg","",""
"null","<div style=""font-size:60px;""> </div>","null","fixation","html-keyboard-response","167","858128","0.0-6.0-0.23","4119710","co39175","norming","","","","","","",""
"null","../img/tt/524tt.jpg","null","mooney1","image-keyboard-response","168","861130","0.0-6.0-1.23","4119710","co39175","norming","","","","","","",""
"6441.815000027418","","","post_mooney1_questions","survey-likert","169","867576","0.0-6.0-2.23","4119710","co39175","norming","","","{""curiosity"":6,""confidence"":4}","[0,1]","../img/tt/524tt.jpg","",""
"7829.169999924488","","","recognition","survey-text","170","875422","0.0-6.0-3.23","4119710","co39175","norming","","","{""guess"":""Stier of olifant""}","","../img/tt/524tt.jpg","",""
"null","../img/gs/524gs.jpg","null","reveal","image-keyboard-response","171","877426","0.0-6.0-4.23","4119710","co39175","norming","","","","","","",""
"null","../img/tt/524tt.jpg","null","mooney2","image-keyboard-response","172","879429","0.0-6.0-5.23","4119710","co39175","norming","","","","","","",""
"5447.685000021011","","","post_reveal_questions","survey-likert","173","884880","0.0-6.0-6.23","4119710","co39175","norming","","","{""aha"":1}","[0]","../img/tt/524tt.jpg","",""
"null","<div style=""font-size:60px;""> </div>","null","fixation","html-keyboard-response","174","885093","0.0-6.0-0.24","4119710","co39175","norming","","","","","","",""
"null","../img/tt/358tt.jpg","null","mooney1","image-keyboard-response","175","888095","0.0-6.0-1.24","4119710","co39175","norming","","","","","","",""
"4562.629999942146","","","post_mooney1_questions","survey-likert","176","892661","0.0-6.0-2.24","4119710","co39175","norming","","","{""curiosity"":6,""confidence"":5}","[0,1]","../img/tt/358tt.jpg","",""
"3324.5099999476224","","","recognition","survey-text","177","896002","0.0-6.0-3.24","4119710","co39175","norming","","","{""guess"":""Aap""}","","../img/tt/358tt.jpg","",""
"null","../img/gs/358gs.jpg","null","reveal","image-keyboard-response","178","898004","0.0-6.0-4.24","4119710","co39175","norming","","","","","","",""
"null","../img/tt/358tt.jpg","null","mooney2","image-keyboard-response","179","900006","0.0-6.0-5.24","4119710","co39175","norming","","","","","","",""
"6516.260000062175","","","post_reveal_questions","survey-likert","180","906525","0.0-6.0-6.24","4119710","co39175","norming","","","{""aha"":3}","[0]","../img/tt/358tt.jpg","",""
"null","<div style=""font-size:60px;""> </div>","null","fixation","html-keyboard-response","181","906738","0.0-6.0-0.25","4119710","co39175","norming","","","","","","",""
"null","../img/tt/1276tt.jpg","null","mooney1","image-keyboard-response","182","909741","0.0-6.0-1.25","4119710","co39175","norming","","","","","","",""
"11292.999999946915","","","post_mooney1_questions","survey-likert","183","921036","0.0-6.0-2.25","4119710","co39175","norming","","","{""curiosity"":5,""confidence"":3}","[0,1]","../img/tt/1276tt.jpg","",""
"13445.880000013858","","","recognition","survey-text","184","934486","0.0-6.0-3.25","4119710","co39175","norming","","","{""guess"":""Een alpaca of geit (veel haar)""}","","../img/tt/1276tt.jpg","",""
"null","../img/gs/1276gs.jpg","null","reveal","image-keyboard-response","185","936488","0.0-6.0-4.25","4119710","co39175","norming","","","","","","",""
"null","../img/tt/1276tt.jpg","null","mooney2","image-keyboard-response","186","938490","0.0-6.0-5.25","4119710","co39175","norming","","","","","","",""
"3913.5800000512972","","","post_reveal_questions","survey-likert","187","942407","0.0-6.0-6.25","4119710","co39175","norming","","","{""aha"":6}","[0]","../img/tt/1276tt.jpg","",""
"null","<div style=""font-size:60px;""> </div>","null","fixation","html-keyboard-response","188","942619","0.0-6.0-0.26","4119710","co39175","norming","","","","","","",""
"null","../img/tt/1101tt.jpg","null","mooney1","image-keyboard-response","189","945620","0.0-6.0-1.26","4119710","co39175","norming","","","","","","",""
"13757.70499999635","","","post_mooney1_questions","survey-likert","190","959382","0.0-6.0-2.26","4119710","co39175","norming","","","{""curiosity"":5,""confidence"":5}","[0,1]","../img/tt/1101tt.jpg","",""
"8182.939999969676","","","recognition","survey-text","191","967579","0.0-6.0-3.26","4119710","co39175","norming","","","{""guess"":""Een voetballer""}","","../img/tt/1101tt.jpg","",""
"null","../img/gs/1101gs.jpg","null","reveal","image-keyboard-response","192","969582","0.0-6.0-4.26","4119710","co39175","norming","","","","","","",""
"null","../img/tt/1101tt.jpg","null","mooney2","image-keyboard-response","193","971584","0.0-6.0-5.26","4119710","co39175","norming","","","","","","",""
"4403.005000087433","","","post_reveal_questions","survey-likert","194","975989","0.0-6.0-6.26","4119710","co39175","norming","","","{""aha"":5}","[0]","../img/tt/1101tt.jpg","",""
"null","<div style=""font-size:60px;""> </div>","null","fixation","html-keyboard-response","195","976194","0.0-6.0-0.27","4119710","co39175","norming","","","","","","",""
"null","../img/tt/1063tt.jpg","null","mooney1","image-keyboard-response","196","979198","0.0-6.0-1.27","4119710","co39175","norming","","","","","","",""
"8078.739999909885","","","post_mooney1_questions","survey-likert","197","987281","0.0-6.0-2.27","4119710","co39175","norming","","","{""curiosity"":5,""confidence"":4}","[0,1]","../img/tt/1063tt.jpg","",""
"9544.449999928474","","","recognition","survey-text","198","996840","0.0-6.0-3.27","4119710","co39175","norming","","","{""guess"":""Everzwijn/ kameel""}","","../img/tt/1063tt.jpg","",""
"null","../img/gs/1063gs.jpg","null","reveal","image-keyboard-response","199","998844","0.0-6.0-4.27","4119710","co39175","norming","","","","","","",""
"null","../img/tt/1063tt.jpg","null","mooney2","image-keyboard-response","200","1000847","0.0-6.0-5.27","4119710","co39175","norming","","","","","","",""
"6234.969999990426","","","post_reveal_questions","survey-likert","201","1007086","0.0-6.0-6.27","4119710","co39175","norming","","","{""aha"":2}","[0]","../img/tt/1063tt.jpg","",""
"null","<div style=""font-size:60px;""> </div>","null","fixation","html-keyboard-response","202","1007299","0.0-6.0-0.28","4119710","co39175","norming","","","","","","",""
"null","../img/tt/1118tt.jpg","null","mooney1","image-keyboard-response","203","1010303","0.0-6.0-1.28","4119710","co39175","norming","","","","","","",""
"12287.169999908656","","","post_mooney1_questions","survey-likert","204","1022595","0.0-6.0-2.28","4119710","co39175","norming","","","{""curiosity"":5,""confidence"":3}","[0,1]","../img/tt/1118tt.jpg","",""
"7026.2799999909475","","","recognition","survey-text","205","1029636","0.0-6.0-3.28","4119710","co39175","norming","","","{""guess"":""Jager""}","","../img/tt/1118tt.jpg","",""
"null","../img/gs/1118gs.jpg","null","reveal","image-keyboard-response","206","1031640","0.0-6.0-4.28","4119710","co39175","norming","","","","","","",""
"null","../img/tt/1118tt.jpg","null","mooney2","image-keyboard-response","207","1033643","0.0-6.0-5.28","4119710","co39175","norming","","","","","","",""
"4619.329999899492","","","post_reveal_questions","survey-likert","208","1038266","0.0-6.0-6.28","4119710","co39175","norming","","","{""aha"":4}","[0]","../img/tt/1118tt.jpg","",""
"null","<div style=""font-size:60px;""> </div>","null","fixation","html-keyboard-response","209","1038478","0.0-6.0-0.29","4119710","co39175","norming","","","","","","",""
"null","../img/tt/1199tt.jpg","null","mooney1","image-keyboard-response","210","1041483","0.0-6.0-1.29","4119710","co39175","norming","","","","","","",""
"15723.204999929294","","","post_mooney1_questions","survey-likert","211","1057210","0.0-6.0-2.29","4119710","co39175","norming","","","{""curiosity"":5,""confidence"":4}","[0,1]","../img/tt/1199tt.jpg","",""
"16673.27499995008","","","recognition","survey-text","212","1073898","0.0-6.0-3.29","4119710","co39175","norming","","","{""guess"":""Een persoon die hoogspringt""}","","../img/tt/1199tt.jpg","",""
"null","../img/gs/1199gs.jpg","null","reveal","image-keyboard-response","213","1075902","0.0-6.0-4.29","4119710","co39175","norming","","","","","","",""
"null","../img/tt/1199tt.jpg","null","mooney2","image-keyboard-response","214","1077905","0.0-6.0-5.29","4119710","co39175","norming","","","","","","",""
"3668.4299999615178","","","post_reveal_questions","survey-likert","215","1081577","0.0-6.0-6.29","4119710","co39175","norming","","","{""aha"":5}","[0]","../img/tt/1199tt.jpg","",""
"null","<div style=""font-size:60px;""> </div>","null","fixation","html-keyboard-response","216","1081786","0.0-6.0-0.30","4119710","co39175","norming","","","","","","",""
"null","../img/tt/1272tt.jpg","null","mooney1","image-keyboard-response","217","1084788","0.0-6.0-1.30","4119710","co39175","norming","","","","","","",""
"8160.269999993034","","","post_mooney1_questions","survey-likert","218","1092953","0.0-6.0-2.30","4119710","co39175","norming","","","{""curiosity"":6,""confidence"":4}","[0,1]","../img/tt/1272tt.jpg","",""
"16266.229999950156","","","recognition","survey-text","219","1109236","0.0-6.0-3.30","4119710","co39175","norming","","","{""guess"":""Een panter (katachtige) achter een hek""}","","../img/tt/1272tt.jpg","",""
"null","../img/gs/1272gs.jpg","null","reveal","image-keyboard-response","220","1111241","0.0-6.0-4.30","4119710","co39175","norming","","","","","","",""
"null","../img/tt/1272tt.jpg","null","mooney2","image-keyboard-response","221","1113241","0.0-6.0-5.30","4119710","co39175","norming","","","","","","",""
"11081.56500000041","","","post_reveal_questions","survey-likert","222","1124326","0.0-6.0-6.30","4119710","co39175","norming","","","{""aha"":4}","[0]","../img/tt/1272tt.jpg","",""
"null","<div style=""font-size:60px;""> </div>","null","fixation","html-keyboard-response","223","1124534","0.0-6.0-0.31","4119710","co39175","norming","","","","","","",""
"null","../img/tt/270tt.jpg","null","mooney1","image-keyboard-response","224","1127538","0.0-6.0-1.31","4119710","co39175","norming","","","","","","",""
"7264.6949999034405","","","post_mooney1_questions","survey-likert","225","1134805","0.0-6.0-2.31","4119710","co39175","norming","","","{""curiosity"":6,""confidence"":3}","[0,1]","../img/tt/270tt.jpg","",""
"8589.26000003703","","","recognition","survey-text","226","1143409","0.0-6.0-3.31","4119710","co39175","norming","","","{""guess"":""Poster met mannetjes op""}","","../img/tt/270tt.jpg","",""
"null","../img/gs/270gs.jpg","null","reveal","image-keyboard-response","227","1145414","0.0-6.0-4.31","4119710","co39175","norming","","","","","","",""
"null","../img/tt/270tt.jpg","null","mooney2","image-keyboard-response","228","1147416","0.0-6.0-5.31","4119710","co39175","norming","","","","","","",""
"9097.145000007004","","","post_reveal_questions","survey-likert","229","1156517","0.0-6.0-6.31","4119710","co39175","norming","","","{""aha"":0}","[0]","../img/tt/270tt.jpg","",""
"null","<div style=""font-size:60px;""> </div>","null","fixation","html-keyboard-response","230","1156728","0.0-6.0-0.32","4119710","co39175","norming","","","","","","",""
"null","../img/tt/1232tt.jpg","null","mooney1","image-keyboard-response","231","1159730","0.0-6.0-1.32","4119710","co39175","norming","","","","","","",""
"4419.720000005327","","","post_mooney1_questions","survey-likert","232","1164154","0.0-6.0-2.32","4119710","co39175","norming","","","{""curiosity"":6,""confidence"":0}","[0,1]","../img/tt/1232tt.jpg","",""
"1102.1349999355152","","","recognition","survey-text","233","1165270","0.0-6.0-3.32","4119710","co39175","norming","","","{""guess"":""""}","","../img/tt/1232tt.jpg","",""
"null","../img/gs/1232gs.jpg","null","reveal","image-keyboard-response","234","1167276","0.0-6.0-4.32","4119710","co39175","norming","","","","","","",""
"null","../img/tt/1232tt.jpg","null","mooney2","image-keyboard-response","235","1169277","0.0-6.0-5.32","4119710","co39175","norming","","","","","","",""
"7046.169999986887","","","post_reveal_questions","survey-likert","236","1176325","0.0-6.0-6.32","4119710","co39175","norming","","","{""aha"":1}","[0]","../img/tt/1232tt.jpg","",""
"null","<div style=""font-size:60px;""> </div>","null","fixation","html-keyboard-response","237","1176529","0.0-6.0-0.33","4119710","co39175","norming","","","","","","",""
"null","../img/tt/590tt.jpg","null","mooney1","image-keyboard-response","238","1179533","0.0-6.0-1.33","4119710","co39175","norming","","","","","","",""
"7986.5249999566","","","post_mooney1_questions","survey-likert","239","1187523","0.0-6.0-2.33","4119710","co39175","norming","","","{""curiosity"":6,""confidence"":1}","[0,1]","../img/tt/590tt.jpg","",""
"9808.674999978393","","","recognition","survey-text","240","1197344","0.0-6.0-3.33","4119710","co39175","norming","","","{""guess"":""een boerderij?""}","","../img/tt/590tt.jpg","",""
"null","../img/gs/590gs.jpg","null","reveal","image-keyboard-response","241","1199348","0.0-6.0-4.33","4119710","co39175","norming","","","","","","",""
"null","../img/tt/590tt.jpg","null","mooney2","image-keyboard-response","242","1201350","0.0-6.0-5.33","4119710","co39175","norming","","","","","","",""
"4658.360000001267","","","post_reveal_questions","survey-likert","243","1206012","0.0-6.0-6.33","4119710","co39175","norming","","","{""aha"":0}","[0]","../img/tt/590tt.jpg","",""
"null","<div style=""font-size:60px;""> </div>","null","fixation","html-keyboard-response","244","1206225","0.0-6.0-0.34","4119710","co39175","norming","","","","","","",""
"null","../img/tt/1127tt.jpg","null","mooney1","image-keyboard-response","245","1209227","0.0-6.0-1.34","4119710","co39175","norming","","","","","","",""
"5801.895000040531","","","post_mooney1_questions","survey-likert","246","1215033","0.0-6.0-2.34","4119710","co39175","norming","","","{""curiosity"":5,""confidence"":4}","[0,1]","../img/tt/1127tt.jpg","",""
"10942.66499998048","","","recognition","survey-text","247","1225992","0.0-6.0-3.34","4119710","co39175","norming","","","{""guess"":""Een man die wandelt nr een ander persoon""}","","../img/tt/1127tt.jpg","",""
"null","../img/gs/1127gs.jpg","null","reveal","image-keyboard-response","248","1227996","0.0-6.0-4.34","4119710","co39175","norming","","","","","","",""
"null","../img/tt/1127tt.jpg","null","mooney2","image-keyboard-response","249","1229999","0.0-6.0-5.34","4119710","co39175","norming","","","","","","",""
"3414.185000001453","","","post_reveal_questions","survey-likert","250","1233416","0.0-6.0-6.34","4119710","co39175","norming","","","{""aha"":3}","[0]","../img/tt/1127tt.jpg","",""
"null","<div style=""font-size:60px;""> </div>","null","fixation","html-keyboard-response","251","1233629","0.0-6.0-0.35","4119710","co39175","norming","","","","","","",""
"null","../img/tt/189tt.jpg","null","mooney1","image-keyboard-response","252","1236634","0.0-6.0-1.35","4119710","co39175","norming","","","","","","",""
"9313.644999987446","","","post_mooney1_questions","survey-likert","253","1245952","0.0-6.0-2.35","4119710","co39175","norming","","","{""curiosity"":5,""confidence"":4}","[0,1]","../img/tt/189tt.jpg","",""
"10322.455000015907","","","recognition","survey-text","254","1256288","0.0-6.0-3.35","4119710","co39175","norming","","","{""guess"":""Worstelaar/ bokser""}","","../img/tt/189tt.jpg","",""
"null","../img/gs/189gs.jpg","null","reveal","image-keyboard-response","255","1258290","0.0-6.0-4.35","4119710","co39175","norming","","","","","","",""
"null","../img/tt/189tt.jpg","null","mooney2","image-keyboard-response","256","1260293","0.0-6.0-5.35","4119710","co39175","norming","","","","","","",""
"4765.114999958314","","","post_reveal_questions","survey-likert","257","1265060","0.0-6.0-6.35","4119710","co39175","norming","","","{""aha"":2}","[0]","../img/tt/189tt.jpg","",""
"null","<div style=""font-size:60px;""> </div>","null","fixation","html-keyboard-response","258","1265272","0.0-6.0-0.36","4119710","co39175","norming","","","","","","",""
"null","../img/tt/1159tt.jpg","null","mooney1","image-keyboard-response","259","1268276","0.0-6.0-1.36","4119710","co39175","norming","","","","","","",""
"10251.265000086278","","","post_mooney1_questions","survey-likert","260","1278532","0.0-6.0-2.36","4119710","co39175","norming","","","{""curiosity"":6,""confidence"":5}","[0,1]","../img/tt/1159tt.jpg","",""
"23104.095000075176","","","recognition","survey-text","261","1301650","0.0-6.0-3.36","4119710","co39175","norming","","","{""guess"":""Een man die langs een bootje staat""}","","../img/tt/1159tt.jpg","",""
"null","../img/gs/1159gs.jpg","null","reveal","image-keyboard-response","262","1303653","0.0-6.0-4.36","4119710","co39175","norming","","","","","","",""
"null","../img/tt/1159tt.jpg","null","mooney2","image-keyboard-response","263","1305654","0.0-6.0-5.36","4119710","co39175","norming","","","","","","",""
"3588.729999959469","","","post_reveal_questions","survey-likert","264","1309246","0.0-6.0-6.36","4119710","co39175","norming","","","{""aha"":0}","[0]","../img/tt/1159tt.jpg","",""
"null","<div style=""font-size:60px;""> </div>","null","fixation","html-keyboard-response","265","1309458","0.0-6.0-0.37","4119710","co39175","norming","","","","","","",""
"null","../img/tt/1143tt.jpg","null","mooney1","image-keyboard-response","266","1312462","0.0-6.0-1.37","4119710","co39175","norming","","","","","","",""
"5072.705000056885","","","post_mooney1_questions","survey-likert","267","1317539","0.0-6.0-2.37","4119710","co39175","norming","","","{""curiosity"":3,""confidence"":6}","[0,1]","../img/tt/1143tt.jpg","",""
"16237.11500002537","","","recognition","survey-text","268","1333783","0.0-6.0-3.37","4119710","co39175","norming","","","{""guess"":""Mensen op een rij op fietsen in de fitness""}","","../img/tt/1143tt.jpg","",""
"null","../img/gs/1143gs.jpg","null","reveal","image-keyboard-response","269","1335787","0.0-6.0-4.37","4119710","co39175","norming","","","","","","",""
"null","../img/tt/1143tt.jpg","null","mooney2","image-keyboard-response","270","1337790","0.0-6.0-5.37","4119710","co39175","norming","","","","","","",""
"9720.884999958798","","","post_reveal_questions","survey-likert","271","1347514","0.0-6.0-6.37","4119710","co39175","norming","","","{""aha"":3}","[0]","../img/tt/1143tt.jpg","",""
"null","<div style=""font-size:60px;""> </div>","null","fixation","html-keyboard-response","272","1347727","0.0-6.0-0.38","4119710","co39175","norming","","","","","","",""
"null","../img/tt/1353tt.jpg","null","mooney1","image-keyboard-response","273","1350731","0.0-6.0-1.38","4119710","co39175","norming","","","","","","",""
"6145.604999968782","","","post_mooney1_questions","survey-likert","274","1356881","0.0-6.0-2.38","4119710","co39175","norming","","","{""curiosity"":6,""confidence"":4}","[0,1]","../img/tt/1353tt.jpg","",""
"7578.304999973625","","","recognition","survey-text","275","1364473","0.0-6.0-3.38","4119710","co39175","norming","","","{""guess"":""Muziekinstrument""}","","../img/tt/1353tt.jpg","",""
"null","../img/gs/1353gs.jpg","null","reveal","image-keyboard-response","276","1366478","0.0-6.0-4.38","4119710","co39175","norming","","","","","","",""
"null","../img/tt/1353tt.jpg","null","mooney2","image-keyboard-response","277","1368481","0.0-6.0-5.38","4119710","co39175","norming","","","","","","",""
"5575.695000006817","","","post_reveal_questions","survey-likert","278","1374060","0.0-6.0-6.38","4119710","co39175","norming","","","{""aha"":5}","[0]","../img/tt/1353tt.jpg","",""
"null","<div style=""font-size:60px;""> </div>","null","fixation","html-keyboard-response","279","1374272","0.0-6.0-0.39","4119710","co39175","norming","","","","","","",""
"null","../img/tt/140tt.jpg","null","mooney1","image-keyboard-response","280","1377276","0.0-6.0-1.39","4119710","co39175","norming","","","","","","",""
"10262.960000080056","","","post_mooney1_questions","survey-likert","281","1387544","0.0-6.0-2.39","4119710","co39175","norming","","","{""curiosity"":6,""confidence"":0}","[0,1]","../img/tt/140tt.jpg","",""
"1013.4700000053272","","","recognition","survey-text","282","1388573","0.0-6.0-3.39","4119710","co39175","norming","","","{""guess"":""""}","","../img/tt/140tt.jpg","",""
"null","../img/gs/140gs.jpg","null","reveal","image-keyboard-response","283","1390577","0.0-6.0-4.39","4119710","co39175","norming","","","","","","",""
"null","../img/tt/140tt.jpg","null","mooney2","image-keyboard-response","284","1392580","0.0-6.0-5.39","4119710","co39175","norming","","","","","","",""
"3661.2050000112504","","","post_reveal_questions","survey-likert","285","1396244","0.0-6.0-6.39","4119710","co39175","norming","","","{""aha"":0}","[0]","../img/tt/140tt.jpg","",""
"null","<div style=""font-size:60px;""> </div>","null","fixation","html-keyboard-response","286","1396457","0.0-6.0-0.40","4119710","co39175","norming","","","","","","",""
"null","../img/tt/1211tt.jpg","null","mooney1","image-keyboard-response","287","1399461","0.0-6.0-1.40","4119710","co39175","norming","","","","","","",""
"12735.850000055507","","","post_mooney1_questions","survey-likert","288","1412201","0.0-6.0-2.40","4119710","co39175","norming","","","{""curiosity"":6,""confidence"":2}","[0,1]","../img/tt/1211tt.jpg","",""
"14366.934999939986","","","recognition","survey-text","289","1426583","0.0-6.0-3.40","4119710","co39175","norming","","","{""guess"":""Een meer en paar mensen op de voorgrond""}","","../img/tt/1211tt.jpg","",""
"null","../img/gs/1211gs.jpg","null","reveal","image-keyboard-response","290","1428586","0.0-6.0-4.40","4119710","co39175","norming","","","","","","",""
"null","../img/tt/1211tt.jpg","null","mooney2","image-keyboard-response","291","1430589","0.0-6.0-5.40","4119710","co39175","norming","","","","","","",""
"3390.390000073239","","","post_reveal_questions","survey-likert","292","1433982","0.0-6.0-6.40","4119710","co39175","norming","","","{""aha"":4}","[0]","../img/tt/1211tt.jpg","",""
"null","<div style=""font-size:60px;""> </div>","null","fixation","html-keyboard-response","293","1434195","0.0-6.0-0.41","4119710","co39175","norming","","","","","","",""
"null","../img/tt/497tt.jpg","null","mooney1","image-keyboard-response","294","1437199","0.0-6.0-1.41","4119710","co39175","norming","","","","","","",""
"5686.970000038855","","","post_mooney1_questions","survey-likert","295","1442890","0.0-6.0-2.41","4119710","co39175","norming","","","{""curiosity"":4,""confidence"":5}","[0,1]","../img/tt/497tt.jpg","",""
"10009.425000054762","","","recognition","survey-text","296","1452906","0.0-6.0-3.41","4119710","co39175","norming","","","{""guess"":""Het vuur waar je een kookpot opzet""}","","../img/tt/497tt.jpg","",""
"null","../img/gs/497gs.jpg","null","reveal","image-keyboard-response","297","1454911","0.0-6.0-4.41","4119710","co39175","norming","","","","","","",""
"null","../img/tt/497tt.jpg","null","mooney2","image-keyboard-response","298","1456914","0.0-6.0-5.41","4119710","co39175","norming","","","","","","",""
"2150.6850000005215","","","post_reveal_questions","survey-likert","299","1459065","0.0-6.0-6.41","4119710","co39175","norming","","","{""aha"":5}","[0]","../img/tt/497tt.jpg","",""
"null","<div style=""font-size:60px;""> </div>","null","fixation","html-keyboard-response","300","1459269","0.0-6.0-0.42","4119710","co39175","norming","","","","","","",""
"null","../img/tt/222tt.jpg","null","mooney1","image-keyboard-response","301","1462272","0.0-6.0-1.42","4119710","co39175","norming","","","","","","",""
"5486.889999941923","","","post_mooney1_questions","survey-likert","302","1467763","0.0-6.0-2.42","4119710","co39175","norming","","","{""curiosity"":5,""confidence"":3}","[0,1]","../img/tt/222tt.jpg","",""
"4828.254999942146","","","recognition","survey-text","303","1472605","0.0-6.0-3.42","4119710","co39175","norming","","","{""guess"":""Picknicktafel""}","","../img/tt/222tt.jpg","",""
"null","../img/gs/222gs.jpg","null","reveal","image-keyboard-response","304","1474608","0.0-6.0-4.42","4119710","co39175","norming","","","","","","",""
"null","../img/tt/222tt.jpg","null","mooney2","image-keyboard-response","305","1476611","0.0-6.0-5.42","4119710","co39175","norming","","","","","","",""
"19337.150000035763","","","post_reveal_questions","survey-likert","306","1495952","0.0-6.0-6.42","4119710","co39175","norming","","","{""aha"":0}","[0]","../img/tt/222tt.jpg","",""
"null","<div style=""font-size:60px;""> </div>","null","fixation","html-keyboard-response","307","1496164","0.0-6.0-0.43","4119710","co39175","norming","","","","","","",""
"null","../img/tt/580tt.jpg","null","mooney1","image-keyboard-response","308","1499170","0.0-6.0-1.43","4119710","co39175","norming","","","","","","",""
"5801.824999973178","","","post_mooney1_questions","survey-likert","309","1504974","0.0-6.0-2.43","4119710","co39175","norming","","","{""curiosity"":6,""confidence"":0}","[0,1]","../img/tt/580tt.jpg","",""
"1249.405000009574","","","recognition","survey-text","310","1506229","0.0-6.0-3.43","4119710","co39175","norming","","","{""guess"":""""}","","../img/tt/580tt.jpg","",""
"null","../img/gs/580gs.jpg","null","reveal","image-keyboard-response","311","1508233","0.0-6.0-4.43","4119710","co39175","norming","","","","","","",""
"null","../img/tt/580tt.jpg","null","mooney2","image-keyboard-response","312","1510235","0.0-6.0-5.43","4119710","co39175","norming","","","","","","",""
"2831.4399999799207","","","post_reveal_questions","survey-likert","313","1513070","0.0-6.0-6.43","4119710","co39175","norming","","","{""aha"":0}","[0]","../img/tt/580tt.jpg","",""
"null","<div style=""font-size:60px;""> </div>","null","fixation","html-keyboard-response","314","1513276","0.0-6.0-0.44","4119710","co39175","norming","","","","","","",""
"null","../img/tt/319tt.jpg","null","mooney1","image-keyboard-response","315","1516279","0.0-6.0-1.44","4119710","co39175","norming","","","","","","",""
"5252.914999960922","","","post_mooney1_questions","survey-likert","316","1521536","0.0-6.0-2.44","4119710","co39175","norming","","","{""curiosity"":4,""confidence"":5}","[0,1]","../img/tt/319tt.jpg","",""
"19895.424999995157","","","recognition","survey-text","317","1541446","0.0-6.0-3.44","4119710","co39175","norming","","","{""guess"":""2 koeien""}","","../img/tt/319tt.jpg","",""
"null","../img/gs/319gs.jpg","null","reveal","image-keyboard-response","318","1543448","0.0-6.0-4.44","4119710","co39175","norming","","","","","","",""
"null","../img/tt/319tt.jpg","null","mooney2","image-keyboard-response","319","1545451","0.0-6.0-5.44","4119710","co39175","norming","","","","","","",""
"4844.470000010915","","","post_reveal_questions","survey-likert","320","1550298","0.0-6.0-6.44","4119710","co39175","norming","","","{""aha"":3}","[0]","../img/tt/319tt.jpg","",""
"null","<div style=""font-size:60px;""> </div>","null","fixation","html-keyboard-response","321","1550512","0.0-6.0-0.45","4119710","co39175","norming","","","","","","",""
"null","../img/tt/318tt.jpg","null","mooney1","image-keyboard-response","322","1553515","0.0-6.0-1.45","4119710","co39175","norming","","","","","","",""
"6898.40499998536","","","post_mooney1_questions","survey-likert","323","1560415","0.0-6.0-2.45","4119710","co39175","norming","","","{""curiosity"":6,""confidence"":3}","[0,1]","../img/tt/318tt.jpg","",""
"3991.6799999773502","","","recognition","survey-text","324","1564411","0.0-6.0-3.45","4119710","co39175","norming","","","{""guess"":""Auto""}","","../img/tt/318tt.jpg","",""
"null","../img/gs/318gs.jpg","null","reveal","image-keyboard-response","325","1566415","0.0-6.0-4.45","4119710","co39175","norming","","","","","","",""
"null","../img/tt/318tt.jpg","null","mooney2","image-keyboard-response","326","1568418","0.0-6.0-5.45","4119710","co39175","norming","","","","","","",""
"2130.3749999497086","","","post_reveal_questions","survey-likert","327","1570552","0.0-6.0-6.45","4119710","co39175","norming","","","{""aha"":6}","[0]","../img/tt/318tt.jpg","",""
"null","<div style=""font-size:60px;""> </div>","null","fixation","html-keyboard-response","328","1570765","0.0-6.0-0.46","4119710","co39175","norming","","","","","","",""
"null","../img/tt/1236tt.jpg","null","mooney1","image-keyboard-response","329","1573770","0.0-6.0-1.46","4119710","co39175","norming","","","","","","",""
"7286.979999975301","","","post_mooney1_questions","survey-likert","330","1581061","0.0-6.0-2.46","4119710","co39175","norming","","","{""curiosity"":5,""confidence"":4}","[0,1]","../img/tt/1236tt.jpg","",""
"9270.065000047907","","","recognition","survey-text","331","1590346","0.0-6.0-3.46","4119710","co39175","norming","","","{""guess"":""Iemand staat ergens in de natuur""}","","../img/tt/1236tt.jpg","",""
"null","../img/gs/1236gs.jpg","null","reveal","image-keyboard-response","332","1592350","0.0-6.0-4.46","4119710","co39175","norming","","","","","","",""
"null","../img/tt/1236tt.jpg","null","mooney2","image-keyboard-response","333","1594353","0.0-6.0-5.46","4119710","co39175","norming","","","","","","",""
"5049.884999985807","","","post_reveal_questions","survey-likert","334","1599405","0.0-6.0-6.46","4119710","co39175","norming","","","{""aha"":4}","[0]","../img/tt/1236tt.jpg","",""
"null","<div style=""font-size:60px;""> </div>","null","fixation","html-keyboard-response","335","1599608","0.0-6.0-0.47","4119710","co39175","norming","","","","","","",""
"null","../img/tt/1235tt.jpg","null","mooney1","image-keyboard-response","336","1602612","0.0-6.0-1.47","4119710","co39175","norming","","","","","","",""
"7157.364999991842","","","post_mooney1_questions","survey-likert","337","1609771","0.0-6.0-2.47","4119710","co39175","norming","","","{""curiosity"":4,""confidence"":5}","[0,1]","../img/tt/1235tt.jpg","",""
"12214.464999968186","","","recognition","survey-text","338","1621991","0.0-6.0-3.47","4119710","co39175","norming","","","{""guess"":""2 vogels (flagmino's)""}","","../img/tt/1235tt.jpg","",""
"null","../img/gs/1235gs.jpg","null","reveal","image-keyboard-response","339","1623995","0.0-6.0-4.47","4119710","co39175","norming","","","","","","",""
"null","../img/tt/1235tt.jpg","null","mooney2","image-keyboard-response","340","1625997","0.0-6.0-5.47","4119710","co39175","norming","","","","","","",""
"2147.76000007987","","","post_reveal_questions","survey-likert","341","1628148","0.0-6.0-6.47","4119710","co39175","norming","","","{""aha"":5}","[0]","../img/tt/1235tt.jpg","",""
"null","<div style=""font-size:60px;""> </div>","null","fixation","html-keyboard-response","342","1628360","0.0-6.0-0.48","4119710","co39175","norming","","","","","","",""
"null","../img/tt/1096tt.jpg","null","mooney1","image-keyboard-response","343","1631363","0.0-6.0-1.48","4119710","co39175","norming","","","","","","",""
"9589.975000009872","","","post_mooney1_questions","survey-likert","344","1640957","0.0-6.0-2.48","4119710","co39175","norming","","","{""curiosity"":6,""confidence"":4}","[0,1]","../img/tt/1096tt.jpg","",""
"11704.855000018142","","","recognition","survey-text","345","1652678","0.0-6.0-3.48","4119710","co39175","norming","","","{""guess"":""De binnenkant v/e huis""}","","../img/tt/1096tt.jpg","",""
"null","../img/gs/1096gs.jpg","null","reveal","image-keyboard-response","346","1654682","0.0-6.0-4.48","4119710","co39175","norming","","","","","","",""
"null","../img/tt/1096tt.jpg","null","mooney2","image-keyboard-response","347","1656685","0.0-6.0-5.48","4119710","co39175","norming","","","","","","",""
"32206.030000001192","","","post_reveal_questions","survey-likert","348","1688895","0.0-6.0-6.48","4119710","co39175","norming","","","{""aha"":0}","[0]","../img/tt/1096tt.jpg","",""
"null","<div style=""font-size:60px;""> </div>","null","fixation","html-keyboard-response","349","1689101","0.0-6.0-0.49","4119710","co39175","norming","","","","","","",""
"null","../img/tt/1202tt.jpg","null","mooney1","image-keyboard-response","350","1692103","0.0-6.0-1.49","4119710","co39175","norming","","","","","","",""
"10199.735000031069","","","post_mooney1_questions","survey-likert","351","1702306","0.0-6.0-2.49","4119710","co39175","norming","","","{""curiosity"":6,""confidence"":2}","[0,1]","../img/tt/1202tt.jpg","",""
"17082.565000047907","","","recognition","survey-text","352","1719404","0.0-6.0-3.49","4119710","co39175","norming","","","{""guess"":""Een gevechtsport tss 2 mensen""}","","../img/tt/1202tt.jpg","",""
"null","../img/gs/1202gs.jpg","null","reveal","image-keyboard-response","353","1721407","0.0-6.0-4.49","4119710","co39175","norming","","","","","","",""
"null","../img/tt/1202tt.jpg","null","mooney2","image-keyboard-response","354","1723409","0.0-6.0-5.49","4119710","co39175","norming","","","","","","",""
"25678.32000006456","","","post_reveal_questions","survey-likert","355","1749091","0.0-6.0-6.49","4119710","co39175","norming","","","{""aha"":1}","[0]","../img/tt/1202tt.jpg","",""
"null","<div style=""font-size:60px;""> </div>","null","fixation","html-keyboard-response","356","1749302","0.0-6.0-0.50","4119710","co39175","norming","","","","","","",""
"null","../img/tt/412tt.jpg","null","mooney1","image-keyboard-response","357","1752305","0.0-6.0-1.50","4119710","co39175","norming","","","","","","",""
"6695.760000031441","","","post_mooney1_questions","survey-likert","358","1759005","0.0-6.0-2.50","4119710","co39175","norming","","","{""curiosity"":6,""confidence"":0}","[0,1]","../img/tt/412tt.jpg","",""
"12882.959999958985","","","recognition","survey-text","359","1771903","0.0-6.0-3.50","4119710","co39175","norming","","","{""guess"":""""}","","../img/tt/412tt.jpg","",""
"null","../img/gs/412gs.jpg","null","reveal","image-keyboard-response","360","1773907","0.0-6.0-4.50","4119710","co39175","norming","","","","","","",""
"null","../img/tt/412tt.jpg","null","mooney2","image-keyboard-response","361","1775910","0.0-6.0-5.50","4119710","co39175","norming","","","","","","",""
"1873.2099999906495","","","post_reveal_questions","survey-likert","362","1777786","0.0-6.0-6.50","4119710","co39175","norming","","","{""aha"":0}","[0]","../img/tt/412tt.jpg","",""
"null","<div style=""font-size:60px;""> </div>","null","fixation","html-keyboard-response","363","1777990","0.0-6.0-0.51","4119710","co39175","norming","","","","","","",""
"null","../img/tt/435tt.jpg","null","mooney1","image-keyboard-response","364","1780993","0.0-6.0-1.51","4119710","co39175","norming","","","","","","",""
"5531.844999990426","","","post_mooney1_questions","survey-likert","365","1786528","0.0-6.0-2.51","4119710","co39175","norming","","","{""curiosity"":0,""confidence"":6}","[0,1]","../img/tt/435tt.jpg","",""
"5162.344999960624","","","recognition","survey-text","366","1791708","0.0-6.0-3.51","4119710","co39175","norming","","","{""guess"":""Biljarttafel""}","","../img/tt/435tt.jpg","",""
"null","../img/gs/435gs.jpg","null","reveal","image-keyboard-response","367","1793711","0.0-6.0-4.51","4119710","co39175","norming","","","","","","",""
"null","../img/tt/435tt.jpg","null","mooney2","image-keyboard-response","368","1795714","0.0-6.0-5.51","4119710","co39175","norming","","","","","","",""
"5999.390000011772","","","post_reveal_questions","survey-likert","369","1801715","0.0-6.0-6.51","4119710","co39175","norming","","","{""aha"":0}","[0]","../img/tt/435tt.jpg","",""
"null","<div style=""font-size:60px;""> </div>","null","fixation","html-keyboard-response","370","1801925","0.0-6.0-0.52","4119710","co39175","norming","","","","","","",""
"null","../img/tt/301tt.jpg","null","mooney1","image-keyboard-response","371","1804929","0.0-6.0-1.52","4119710","co39175","norming","","","","","","",""
"12698.340000002645","","","post_mooney1_questions","survey-likert","372","1817631","0.0-6.0-2.52","4119710","co39175","norming","","","{""curiosity"":5,""confidence"":0}","[0,1]","../img/tt/301tt.jpg","",""
"15356.309999944642","","","recognition","survey-text","373","1832992","0.0-6.0-3.52","4119710","co39175","norming","","","{""guess"":""""}","","../img/tt/301tt.jpg","",""
"null","../img/gs/301gs.jpg","null","reveal","image-keyboard-response","374","1834995","0.0-6.0-4.52","4119710","co39175","norming","","","","","","",""
"null","../img/tt/301tt.jpg","null","mooney2","image-keyboard-response","375","1836997","0.0-6.0-5.52","4119710","co39175","norming","","","","","","",""
"5861.039999988861","","","post_reveal_questions","survey-likert","376","1842861","0.0-6.0-6.52","4119710","co39175","norming","","","{""aha"":1}","[0]","../img/tt/301tt.jpg","",""
"null","<div style=""font-size:60px;""> </div>","null","fixation","html-keyboard-response","377","1843067","0.0-6.0-0.53","4119710","co39175","norming","","","","","","",""
"null","../img/tt/481tt.jpg","null","mooney1","image-keyboard-response","378","1846078","0.0-6.0-1.53","4119710","co39175","norming","","","","","","",""
"7564.870000001974","","","post_mooney1_questions","survey-likert","379","1853646","0.0-6.0-2.53","4119710","co39175","norming","","","{""curiosity"":6,""confidence"":1}","[0,1]","../img/tt/481tt.jpg","",""
"9233.63499995321","","","recognition","survey-text","380","1862894","0.0-6.0-3.53","4119710","co39175","norming","","","{""guess"":""Dier, aap""}","","../img/tt/481tt.jpg","",""
"null","../img/gs/481gs.jpg","null","reveal","image-keyboard-response","381","1864898","0.0-6.0-4.53","4119710","co39175","norming","","","","","","",""
"null","../img/tt/481tt.jpg","null","mooney2","image-keyboard-response","382","1866901","0.0-6.0-5.53","4119710","co39175","norming","","","","","","",""
"2989.0350000932813","","","post_reveal_questions","survey-likert","383","1869891","0.0-6.0-6.53","4119710","co39175","norming","","","{""aha"":4}","[0]","../img/tt/481tt.jpg","",""
"null","<div style=""font-size:60px;""> </div>","null","fixation","html-keyboard-response","384","1870095","0.0-6.0-0.54","4119710","co39175","norming","","","","","","",""
"null","../img/tt/098tt.jpg","null","mooney1","image-keyboard-response","385","1873099","0.0-6.0-1.54","4119710","co39175","norming","","","","","","",""
"4266.53499994427","","","post_mooney1_questions","survey-likert","386","1877370","0.0-6.0-2.54","4119710","co39175","norming","","","{""curiosity"":4,""confidence"":5}","[0,1]","../img/tt/098tt.jpg","",""
"20430.88500003796","","","recognition","survey-text","387","1897806","0.0-6.0-3.54","4119710","co39175","norming","","","{""guess"":""Vogels stokje""}","","../img/tt/098tt.jpg","",""
"null","../img/gs/098gs.jpg","null","reveal","image-keyboard-response","388","1899807","0.0-6.0-4.54","4119710","co39175","norming","","","","","","",""
"null","../img/tt/098tt.jpg","null","mooney2","image-keyboard-response","389","1901810","0.0-6.0-5.54","4119710","co39175","norming","","","","","","",""
"3792.060000007041","","","post_reveal_questions","survey-likert","390","1905605","0.0-6.0-6.54","4119710","co39175","norming","","","{""aha"":4}","[0]","../img/tt/098tt.jpg","",""
"null","<div style=""font-size:60px;""> </div>","null","fixation","html-keyboard-response","391","1905810","0.0-6.0-0.55","4119710","co39175","norming","","","","","","",""
"null","../img/tt/082tt.jpg","null","mooney1","image-keyboard-response","392","1908814","0.0-6.0-1.55","4119710","co39175","norming","","","","","","",""
"7161.87000006903","","","post_mooney1_questions","survey-likert","393","1915978","0.0-6.0-2.55","4119710","co39175","norming","","","{""curiosity"":4,""confidence"":6}","[0,1]","../img/tt/082tt.jpg","",""
"15229.939999990165","","","recognition","survey-text","394","1931221","0.0-6.0-3.55","4119710","co39175","norming","","","{""guess"":""Papegaai, salamander""}","","../img/tt/082tt.jpg","",""
"null","../img/gs/082gs.jpg","null","reveal","image-keyboard-response","395","1933224","0.0-6.0-4.55","4119710","co39175","norming","","","","","","",""
"null","../img/tt/082tt.jpg","null","mooney2","image-keyboard-response","396","1935226","0.0-6.0-5.55","4119710","co39175","norming","","","","","","",""
"3691.6049999417737","","","post_reveal_questions","survey-likert","397","1938921","0.0-6.0-6.55","4119710","co39175","norming","","","{""aha"":6}","[0]","../img/tt/082tt.jpg","",""
"null","<div style=""font-size:60px;""> </div>","null","fixation","html-keyboard-response","398","1939126","0.0-6.0-0.56","4119710","co39175","norming","","","","","","",""
"null","../img/tt/105tt.jpg","null","mooney1","image-keyboard-response","399","1942130","0.0-6.0-1.56","4119710","co39175","norming","","","","","","",""
"5202.604999998584","","","post_mooney1_questions","survey-likert","400","1947337","0.0-6.0-2.56","4119710","co39175","norming","","","{""curiosity"":6,""confidence"":5}","[0,1]","../img/tt/105tt.jpg","",""
"8269.319999963045","","","recognition","survey-text","401","1955620","0.0-6.0-3.56","4119710","co39175","norming","","","{""guess"":""Veel paperclips""}","","../img/tt/105tt.jpg","",""
"null","../img/gs/105gs.jpg","null","reveal","image-keyboard-response","402","1957625","0.0-6.0-4.56","4119710","co39175","norming","","","","","","",""
"null","../img/tt/105tt.jpg","null","mooney2","image-keyboard-response","403","1959628","0.0-6.0-5.56","4119710","co39175","norming","","","","","","",""
"4828.389999922365","","","post_reveal_questions","survey-likert","404","1964459","0.0-6.0-6.56","4119710","co39175","norming","","","{""aha"":3}","[0]","../img/tt/105tt.jpg","",""
"null","<div style=""font-size:60px;""> </div>","null","fixation","html-keyboard-response","405","1964669","0.0-6.0-0.57","4119710","co39175","norming","","","","","","",""
"null","../img/tt/031tt.jpg","null","mooney1","image-keyboard-response","406","1967673","0.0-6.0-1.57","4119710","co39175","norming","","","","","","",""
"5577.679999987595","","","post_mooney1_questions","survey-likert","407","1973254","0.0-6.0-2.57","4119710","co39175","norming","","","{""curiosity"":6,""confidence"":4}","[0,1]","../img/tt/031tt.jpg","",""
"7281.05999995023","","","recognition","survey-text","408","1980539","0.0-6.0-3.57","4119710","co39175","norming","","","{""guess"":""Panter, puma""}","","../img/tt/031tt.jpg","",""
"null","../img/gs/031gs.jpg","null","reveal","image-keyboard-response","409","1982541","0.0-6.0-4.57","4119710","co39175","norming","","","","","","",""
"null","../img/tt/031tt.jpg","null","mooney2","image-keyboard-response","410","1984542","0.0-6.0-5.57","4119710","co39175","norming","","","","","","",""
"2456.2900000019","","","post_reveal_questions","survey-likert","411","1987000","0.0-6.0-6.57","4119710","co39175","norming","","","{""aha"":2}","[0]","../img/tt/031tt.jpg","",""
"null","<div style=""font-size:60px;""> </div>","null","fixation","html-keyboard-response","412","1987205","0.0-6.0-0.58","4119710","co39175","norming","","","","","","",""
"null","../img/tt/1205tt.jpg","null","mooney1","image-keyboard-response","413","1990208","0.0-6.0-1.58","4119710","co39175","norming","","","","","","",""
"31768.819999997504","","","post_mooney1_questions","survey-likert","414","2021979","0.0-6.0-2.58","4119710","co39175","norming","","","{""curiosity"":6,""confidence"":0}","[0,1]","../img/tt/1205tt.jpg","",""
"1085.1949999341741","","","recognition","survey-text","415","2023068","0.0-6.0-3.58","4119710","co39175","norming","","","{""guess"":""""}","","../img/tt/1205tt.jpg","",""
"null","../img/gs/1205gs.jpg","null","reveal","image-keyboard-response","416","2025071","0.0-6.0-4.58","4119710","co39175","norming","","","","","","",""
"null","../img/tt/1205tt.jpg","null","mooney2","image-keyboard-response","417","2027073","0.0-6.0-5.58","4119710","co39175","norming","","","","","","",""
"4175.694999983534","","","post_reveal_questions","survey-likert","418","2031252","0.0-6.0-6.58","4119710","co39175","norming","","","{""aha"":1}","[0]","../img/tt/1205tt.jpg","",""
"null","<div style=""font-size:60px;""> </div>","null","fixation","html-keyboard-response","419","2031464","0.0-6.0-0.59","4119710","co39175","norming","","","","","","",""
"null","../img/tt/1024tt.jpg","null","mooney1","image-keyboard-response","420","2034465","0.0-6.0-1.59","4119710","co39175","norming","","","","","","",""
"5853.6150000290945","","","post_mooney1_questions","survey-likert","421","2040323","0.0-6.0-2.59","4119710","co39175","norming","","","{""curiosity"":5,""confidence"":2}","[0,1]","../img/tt/1024tt.jpg","",""
"5237.0649999938905","","","recognition","survey-text","422","2045576","0.0-6.0-3.59","4119710","co39175","norming","","","{""guess"":""Tennisspeler""}","","../img/tt/1024tt.jpg","",""
"null","../img/gs/1024gs.jpg","null","reveal","image-keyboard-response","423","2047580","0.0-6.0-4.59","4119710","co39175","norming","","","","","","",""
"null","../img/tt/1024tt.jpg","null","mooney2","image-keyboard-response","424","2049582","0.0-6.0-5.59","4119710","co39175","norming","","","","","","",""
"6784.95500003919","","","post_reveal_questions","survey-likert","425","2056371","0.0-6.0-6.59","4119710","co39175","norming","","","{""aha"":3}","[0]","../img/tt/1024tt.jpg","",""
"null","<div style=""font-size:60px;""> </div>","null","fixation","html-keyboard-response","426","2056584","0.0-6.0-0.60","4119710","co39175","norming","","","","","","",""
"null","../img/tt/1226tt.jpg","null","mooney1","image-keyboard-response","427","2059586","0.0-6.0-1.60","4119710","co39175","norming","","","","","","",""
"4260.370000032708","","","post_mooney1_questions","survey-likert","428","2063851","0.0-6.0-2.60","4119710","co39175","norming","","","{""curiosity"":3,""confidence"":6}","[0,1]","../img/tt/1226tt.jpg","",""
"2955.420000012964","","","recognition","survey-text","429","2066822","0.0-6.0-3.60","4119710","co39175","norming","","","{""guess"":""Kippen""}","","../img/tt/1226tt.jpg","",""
"null","../img/gs/1226gs.jpg","null","reveal","image-keyboard-response","430","2068825","0.0-6.0-4.60","4119710","co39175","norming","","","","","","",""
"null","../img/tt/1226tt.jpg","null","mooney2","image-keyboard-response","431","2070828","0.0-6.0-5.60","4119710","co39175","norming","","","","","","",""
"3733.2900000037625","","","post_reveal_questions","survey-likert","432","2074563","0.0-6.0-6.60","4119710","co39175","norming","","","{""aha"":4}","[0]","../img/tt/1226tt.jpg","",""
"null","<div style=""font-size:60px;""> </div>","null","fixation","html-keyboard-response","433","2074766","0.0-6.0-0.61","4119710","co39175","norming","","","","","","",""
"null","../img/tt/079tt.jpg","null","mooney1","image-keyboard-response","434","2077767","0.0-6.0-1.61","4119710","co39175","norming","","","","","","",""
"5342.440000036731","","","post_mooney1_questions","survey-likert","435","2083114","0.0-6.0-2.61","4119710","co39175","norming","","","{""curiosity"":5,""confidence"":3}","[0,1]","../img/tt/079tt.jpg","",""
"3883.284999988973","","","recognition","survey-text","436","2087011","0.0-6.0-3.61","4119710","co39175","norming","","","{""guess"":""Beer""}","","../img/tt/079tt.jpg","",""
"null","../img/gs/079gs.jpg","null","reveal","image-keyboard-response","437","2089015","0.0-6.0-4.61","4119710","co39175","norming","","","","","","",""
"null","../img/tt/079tt.jpg","null","mooney2","image-keyboard-response","438","2091019","0.0-6.0-5.61","4119710","co39175","norming","","","","","","",""
"2404.865000047721","","","post_reveal_questions","survey-likert","439","2093427","0.0-6.0-6.61","4119710","co39175","norming","","","{""aha"":2}","[0]","../img/tt/079tt.jpg","",""
"null","<div style=""font-size:60px;""> </div>","null","fixation","html-keyboard-response","440","2093633","0.0-6.0-0.62","4119710","co39175","norming","","","","","","",""
"null","../img/tt/456tt.jpg","null","mooney1","image-keyboard-response","441","2096636","0.0-6.0-1.62","4119710","co39175","norming","","","","","","",""
"8918.915000045672","","","post_mooney1_questions","survey-likert","442","2105557","0.0-6.0-2.62","4119710","co39175","norming","","","{""curiosity"":6,""confidence"":2}","[0,1]","../img/tt/456tt.jpg","",""
"12303.090000059456","","","recognition","survey-text","443","2117874","0.0-6.0-3.62","4119710","co39175","norming","","","{""guess"":""Miereneter""}","","../img/tt/456tt.jpg","",""
"null","../img/gs/456gs.jpg","null","reveal","image-keyboard-response","444","2119876","0.0-6.0-4.62","4119710","co39175","norming","","","","","","",""
"null","../img/tt/456tt.jpg","null","mooney2","image-keyboard-response","445","2121879","0.0-6.0-5.62","4119710","co39175","norming","","","","","","",""
"5348.47000008449","","","post_reveal_questions","survey-likert","446","2127231","0.0-6.0-6.62","4119710","co39175","norming","","","{""aha"":6}","[0]","../img/tt/456tt.jpg","",""
"null","<div style=""font-size:60px;""> </div>","null","fixation","html-keyboard-response","447","2127441","0.0-6.0-0.63","4119710","co39175","norming","","","","","","",""
"null","../img/tt/329tt.jpg","null","mooney1","image-keyboard-response","448","2130444","0.0-6.0-1.63","4119710","co39175","norming","","","","","","",""
"4640.3400000417605","","","post_mooney1_questions","survey-likert","449","2135088","0.0-6.0-2.63","4119710","co39175","norming","","","{""curiosity"":5,""confidence"":2}","[0,1]","../img/tt/329tt.jpg","",""
"4667.9250000743195","","","recognition","survey-text","450","2139771","0.0-6.0-3.63","4119710","co39175","norming","","","{""guess"":""Luiaard""}","","../img/tt/329tt.jpg","",""
"null","../img/gs/329gs.jpg","null","reveal","image-keyboard-response","451","2141775","0.0-6.0-4.63","4119710","co39175","norming","","","","","","",""
"null","../img/tt/329tt.jpg","null","mooney2","image-keyboard-response","452","2143777","0.0-6.0-5.63","4119710","co39175","norming","","","","","","",""
"3716.4199999533594","","","post_reveal_questions","survey-likert","453","2147495","0.0-6.0-6.63","4119710","co39175","norming","","","{""aha"":0}","[0]","../img/tt/329tt.jpg","",""
"null","<div style=""font-size:60px;""> </div>","null","fixation","html-keyboard-response","454","2147707","0.0-6.0-0.64","4119710","co39175","norming","","","","","","",""
"null","../img/tt/549tt.jpg","null","mooney1","image-keyboard-response","455","2150708","0.0-6.0-1.64","4119710","co39175","norming","","","","","","",""
"6361.8700000224635","","","post_mooney1_questions","survey-likert","456","2157073","0.0-6.0-2.64","4119710","co39175","norming","","","{""curiosity"":6,""confidence"":0}","[0,1]","../img/tt/549tt.jpg","",""
"880.9849999379367","","","recognition","survey-text","457","2157961","0.0-6.0-3.64","4119710","co39175","norming","","","{""guess"":""""}","","../img/tt/549tt.jpg","",""
"null","../img/gs/549gs.jpg","null","reveal","image-keyboard-response","458","2159965","0.0-6.0-4.64","4119710","co39175","norming","","","","","","",""
"null","../img/tt/549tt.jpg","null","mooney2","image-keyboard-response","459","2161967","0.0-6.0-5.64","4119710","co39175","norming","","","","","","",""
"3839.159999974072","","","post_reveal_questions","survey-likert","460","2165810","0.0-6.0-6.64","4119710","co39175","norming","","","{""aha"":0}","[0]","../img/tt/549tt.jpg","",""
"null","<div style=""font-size:60px;""> </div>","null","fixation","html-keyboard-response","461","2166022","0.0-6.0-0.65","4119710","co39175","norming","","","","","","",""
"null","../img/tt/1084tt.jpg","null","mooney1","image-keyboard-response","462","2169026","0.0-6.0-1.65","4119710","co39175","norming","","","","","","",""
"7105.075000086799","","","post_mooney1_questions","survey-likert","463","2176134","0.0-6.0-2.65","4119710","co39175","norming","","","{""curiosity"":4,""confidence"":4}","[0,1]","../img/tt/1084tt.jpg","",""
"4541.590000037104","","","recognition","survey-text","464","2180680","0.0-6.0-3.65","4119710","co39175","norming","","","{""guess"":""Tee, taart""}","","../img/tt/1084tt.jpg","",""
"null","../img/gs/1084gs.jpg","null","reveal","image-keyboard-response","465","2182684","0.0-6.0-4.65","4119710","co39175","norming","","","","","","",""
"null","../img/tt/1084tt.jpg","null","mooney2","image-keyboard-response","466","2184686","0.0-6.0-5.65","4119710","co39175","norming","","","","","","",""
"3807.5850000604987","","","post_reveal_questions","survey-likert","467","2188496","0.0-6.0-6.65","4119710","co39175","norming","","","{""aha"":4}","[0]","../img/tt/1084tt.jpg","",""
"null","<div style=""font-size:60px;""> </div>","null","fixation","html-keyboard-response","468","2188708","0.0-6.0-0.66","4119710","co39175","norming","","","","","","",""
"null","../img/tt/194tt.jpg","null","mooney1","image-keyboard-response","469","2191712","0.0-6.0-1.66","4119710","co39175","norming","","","","","","",""
"5596.445000031963","","","post_mooney1_questions","survey-likert","470","2197313","0.0-6.0-2.66","4119710","co39175","norming","","","{""curiosity"":4,""confidence"":6}","[0,1]","../img/tt/194tt.jpg","",""
"22133.09500005562","","","recognition","survey-text","471","2219463","0.0-6.0-3.66","4119710","co39175","norming","","","{""guess"":""Mensen op bankje""}","","../img/tt/194tt.jpg","",""
"null","../img/gs/194gs.jpg","null","reveal","image-keyboard-response","472","2221468","0.0-6.0-4.66","4119710","co39175","norming","","","","","","",""
"null","../img/tt/194tt.jpg","null","mooney2","image-keyboard-response","473","2223470","0.0-6.0-5.66","4119710","co39175","norming","","","","","","",""
"11762.45000003837","","","post_reveal_questions","survey-likert","474","2235236","0.0-6.0-6.66","4119710","co39175","norming","","","{""aha"":3}","[0]","../img/tt/194tt.jpg","",""
"null","<div style=""font-size:60px;""> </div>","null","fixation","html-keyboard-response","475","2235450","0.0-6.0-0.67","4119710","co39175","norming","","","","","","",""
"null","../img/tt/296tt.jpg","null","mooney1","image-keyboard-response","476","2238452","0.0-6.0-1.67","4119710","co39175","norming","","","","","","",""
"6857.760000042617","","","post_mooney1_questions","survey-likert","477","2245314","0.0-6.0-2.67","4119710","co39175","norming","","","{""curiosity"":6,""confidence"":5}","[0,1]","../img/tt/296tt.jpg","",""
"4901.779999956489","","","recognition","survey-text","478","2250231","0.0-6.0-3.67","4119710","co39175","norming","","","{""guess"":""Doodskist""}","","../img/tt/296tt.jpg","",""
"null","../img/gs/296gs.jpg","null","reveal","image-keyboard-response","479","2252234","0.0-6.0-4.67","4119710","co39175","norming","","","","","","",""
"null","../img/tt/296tt.jpg","null","mooney2","image-keyboard-response","480","2254236","0.0-6.0-5.67","4119710","co39175","norming","","","","","","",""
"3201.454999973066","","","post_reveal_questions","survey-likert","481","2257441","0.0-6.0-6.67","4119710","co39175","norming","","","{""aha"":2}","[0]","../img/tt/296tt.jpg","",""
"null","<div style=""font-size:60px;""> </div>","null","fixation","html-keyboard-response","482","2257649","0.0-6.0-0.68","4119710","co39175","norming","","","","","","",""
"null","../img/tt/135tt.jpg","null","mooney1","image-keyboard-response","483","2260651","0.0-6.0-1.68","4119710","co39175","norming","","","","","","",""
"5181.669999961741","","","post_mooney1_questions","survey-likert","484","2265837","0.0-6.0-2.68","4119710","co39175","norming","","","{""curiosity"":0,""confidence"":6}","[0,1]","../img/tt/135tt.jpg","",""
"7848.965000011958","","","recognition","survey-text","485","2273701","0.0-6.0-3.68","4119710","co39175","norming","","","{""guess"":""WC-bril""}","","../img/tt/135tt.jpg","",""
"null","../img/gs/135gs.jpg","null","reveal","image-keyboard-response","486","2275706","0.0-6.0-4.68","4119710","co39175","norming","","","","","","",""
"null","../img/tt/135tt.jpg","null","mooney2","image-keyboard-response","487","2277710","0.0-6.0-5.68","4119710","co39175","norming","","","","","","",""
"2393.6750000575557","","","post_reveal_questions","survey-likert","488","2280104","0.0-6.0-6.68","4119710","co39175","norming","","","{""aha"":0}","[0]","../img/tt/135tt.jpg","",""
"null","<div style=""font-size:60px;""> </div>","null","fixation","html-keyboard-response","489","2280308","0.0-6.0-0.69","4119710","co39175","norming","","","","","","",""
"null","../img/tt/1260tt.jpg","null","mooney1","image-keyboard-response","490","2283312","0.0-6.0-1.69","4119710","co39175","norming","","","","","","",""
"9866.075000027195","","","post_mooney1_questions","survey-likert","491","2293182","0.0-6.0-2.69","4119710","co39175","norming","","","{""curiosity"":5,""confidence"":2}","[0,1]","../img/tt/1260tt.jpg","",""
"3977.934999973513","","","recognition","survey-text","492","2297167","0.0-6.0-3.69","4119710","co39175","norming","","","{""guess"":""Jungle""}","","../img/tt/1260tt.jpg","",""
"null","../img/gs/1260gs.jpg","null","reveal","image-keyboard-response","493","2299172","0.0-6.0-4.69","4119710","co39175","norming","","","","","","",""
"null","../img/tt/1260tt.jpg","null","mooney2","image-keyboard-response","494","2301176","0.0-6.0-5.69","4119710","co39175","norming","","","","","","",""
"4120.04499998875","","","post_reveal_questions","survey-likert","495","2305300","0.0-6.0-6.69","4119710","co39175","norming","","","{""aha"":0}","[0]","../img/tt/1260tt.jpg","",""
"null","<div style=""font-size:60px;""> </div>","null","fixation","html-keyboard-response","496","2305512","0.0-6.0-0.70","4119710","co39175","norming","","","","","","",""
"null","../img/tt/1217tt.jpg","null","mooney1","image-keyboard-response","497","2308516","0.0-6.0-1.70","4119710","co39175","norming","","","","","","",""
"5802.129999967292","","","post_mooney1_questions","survey-likert","498","2314323","0.0-6.0-2.70","4119710","co39175","norming","","","{""curiosity"":5,""confidence"":2}","[0,1]","../img/tt/1217tt.jpg","",""
"6892.289999988861","","","recognition","survey-text","499","2321229","0.0-6.0-3.70","4119710","co39175","norming","","","{""guess"":""Koe in wei""}","","../img/tt/1217tt.jpg","",""
"null","../img/gs/1217gs.jpg","null","reveal","image-keyboard-response","500","2323232","0.0-6.0-4.70","4119710","co39175","norming","","","","","","",""
"null","../img/tt/1217tt.jpg","null","mooney2","image-keyboard-response","501","2325233","0.0-6.0-5.70","4119710","co39175","norming","","","","","","",""
"16534.600000013597","","","post_reveal_questions","survey-likert","502","2341770","0.0-6.0-6.70","4119710","co39175","norming","","","{""aha"":1}","[0]","../img/tt/1217tt.jpg","",""
"null","<div style=""font-size:60px;""> </div>","null","fixation","html-keyboard-response","503","2341973","0.0-6.0-0.71","4119710","co39175","norming","","","","","","",""
"null","../img/tt/1097tt.jpg","null","mooney1","image-keyboard-response","504","2344977","0.0-6.0-1.71","4119710","co39175","norming","","","","","","",""
"6101.784999947995","","","post_mooney1_questions","survey-likert","505","2351083","0.0-6.0-2.71","4119710","co39175","norming","","","{""curiosity"":5,""confidence"":4}","[0,1]","../img/tt/1097tt.jpg","",""
"3979.5300000114366","","","recognition","survey-text","506","2355077","0.0-6.0-3.71","4119710","co39175","norming","","","{""guess"":""Ballerina""}","","../img/tt/1097tt.jpg","",""
"null","../img/gs/1097gs.jpg","null","reveal","image-keyboard-response","507","2357078","0.0-6.0-4.71","4119710","co39175","norming","","","","","","",""
"null","../img/tt/1097tt.jpg","null","mooney2","image-keyboard-response","508","2359080","0.0-6.0-5.71","4119710","co39175","norming","","","","","","",""
"5315.859999973327","","","post_reveal_questions","survey-likert","509","2364397","0.0-6.0-6.71","4119710","co39175","norming","","","{""aha"":0}","[0]","../img/tt/1097tt.jpg","",""
"null","<div style=""font-size:60px;""> </div>","null","fixation","html-keyboard-response","510","2364601","0.0-6.0-0.72","4119710","co39175","norming","","","","","","",""
"null","../img/tt/1048tt.jpg","null","mooney1","image-keyboard-response","511","2367603","0.0-6.0-1.72","4119710","co39175","norming","","","","","","",""
"8110.955000040121","","","post_mooney1_questions","survey-likert","512","2375717","0.0-6.0-2.72","4119710","co39175","norming","","","{""curiosity"":6,""confidence"":0}","[0,1]","../img/tt/1048tt.jpg","",""
"1600.5599999334663","","","recognition","survey-text","513","2377332","0.0-6.0-3.72","4119710","co39175","norming","","","{""guess"":""""}","","../img/tt/1048tt.jpg","",""
"null","../img/gs/1048gs.jpg","null","reveal","image-keyboard-response","514","2379336","0.0-6.0-4.72","4119710","co39175","norming","","","","","","",""
"null","../img/tt/1048tt.jpg","null","mooney2","image-keyboard-response","515","2381339","0.0-6.0-5.72","4119710","co39175","norming","","","","","","",""
"2681.3000000547618","","","post_reveal_questions","survey-likert","516","2384023","0.0-6.0-6.72","4119710","co39175","norming","","","{""aha"":0}","[0]","../img/tt/1048tt.jpg","",""
"null","<div style=""font-size:60px;""> </div>","null","fixation","html-keyboard-response","517","2384235","0.0-6.0-0.73","4119710","co39175","norming","","","","","","",""
"null","../img/tt/013tt.jpg","null","mooney1","image-keyboard-response","518","2387239","0.0-6.0-1.73","4119710","co39175","norming","","","","","","",""
"9843.55999995023","","","post_mooney1_questions","survey-likert","519","2397086","0.0-6.0-2.73","4119710","co39175","norming","","","{""curiosity"":6,""confidence"":0}","[0,1]","../img/tt/013tt.jpg","",""
"1357.9600000521168","","","recognition","survey-text","520","2398451","0.0-6.0-3.73","4119710","co39175","norming","","","{""guess"":""""}","","../img/tt/013tt.jpg","",""
"null","../img/gs/013gs.jpg","null","reveal","image-keyboard-response","521","2400455","0.0-6.0-4.73","4119710","co39175","norming","","","","","","",""
"null","../img/tt/013tt.jpg","null","mooney2","image-keyboard-response","522","2402457","0.0-6.0-5.73","4119710","co39175","norming","","","","","","",""
"3772.069999948144","","","post_reveal_questions","survey-likert","523","2406232","0.0-6.0-6.73","4119710","co39175","norming","","","{""aha"":2}","[0]","../img/tt/013tt.jpg","",""
"null","<div style=""font-size:60px;""> </div>","null","fixation","html-keyboard-response","524","2406438","0.0-6.0-0.74","4119710","co39175","norming","","","","","","",""
"null","../img/tt/1268tt.jpg","null","mooney1","image-keyboard-response","525","2409440","0.0-6.0-1.74","4119710","co39175","norming","","","","","","",""
"13331.460000015795","","","post_mooney1_questions","survey-likert","526","2422775","0.0-6.0-2.74","4119710","co39175","norming","","","{""curiosity"":6,""confidence"":1}","[0,1]","../img/tt/1268tt.jpg","",""
"16162.630000035278","","","recognition","survey-text","527","2438944","0.0-6.0-3.74","4119710","co39175","norming","","","{""guess"":""schaduw""}","","../img/tt/1268tt.jpg","",""
"null","../img/gs/1268gs.jpg","null","reveal","image-keyboard-response","528","2440947","0.0-6.0-4.74","4119710","co39175","norming","","","","","","",""
"null","../img/tt/1268tt.jpg","null","mooney2","image-keyboard-response","529","2442949","0.0-6.0-5.74","4119710","co39175","norming","","","","","","",""
"9232.770000002347","","","post_reveal_questions","survey-likert","530","2452185","0.0-6.0-6.74","4119710","co39175","norming","","","{""aha"":4}","[0]","../img/tt/1268tt.jpg","",""
"null","<div style=""font-size:60px;""> </div>","null","fixation","html-keyboard-response","531","2452392","0.0-6.0-0.75","4119710","co39175","norming","","","","","","",""
"null","../img/tt/007tt.jpg","null","mooney1","image-keyboard-response","532","2455396","0.0-6.0-1.75","4119710","co39175","norming","","","","","","",""
"13092.730000033043","","","post_mooney1_questions","survey-likert","533","2468492","0.0-6.0-2.75","4119710","co39175","norming","","","{""curiosity"":4,""confidence"":6}","[0,1]","../img/tt/007tt.jpg","",""
"6981.21999995783","","","recognition","survey-text","534","2475480","0.0-6.0-3.75","4119710","co39175","norming","","","{""guess"":""Walrus op ijs""}","","../img/tt/007tt.jpg","",""
"null","../img/gs/007gs.jpg","null","reveal","image-keyboard-response","535","2477483","0.0-6.0-4.75","4119710","co39175","norming","","","","","","",""
"null","../img/tt/007tt.jpg","null","mooney2","image-keyboard-response","536","2479485","0.0-6.0-5.75","4119710","co39175","norming","","","","","","",""
"2515.140000032261","","","post_reveal_questions","survey-likert","537","2482003","0.0-6.0-6.75","4119710","co39175","norming","","","{""aha"":0}","[0]","../img/tt/007tt.jpg","",""
"null","<div style=""font-size:60px;""> </div>","null","fixation","html-keyboard-response","538","2482210","0.0-6.0-0.76","4119710","co39175","norming","","","","","","",""
"null","../img/tt/046tt.jpg","null","mooney1","image-keyboard-response","539","2485212","0.0-6.0-1.76","4119710","co39175","norming","","","","","","",""
"5000.5050000036135","","","post_mooney1_questions","survey-likert","540","2490216","0.0-6.0-2.76","4119710","co39175","norming","","","{""curiosity"":2,""confidence"":6}","[0,1]","../img/tt/046tt.jpg","",""
"4963.310000021011","","","recognition","survey-text","541","2495186","0.0-6.0-3.76","4119710","co39175","norming","","","{""guess"":""Hond buiten""}","","../img/tt/046tt.jpg","",""
"null","../img/gs/046gs.jpg","null","reveal","image-keyboard-response","542","2497189","0.0-6.0-4.76","4119710","co39175","norming","","","","","","",""
"null","../img/tt/046tt.jpg","null","mooney2","image-keyboard-response","543","2499192","0.0-6.0-5.76","4119710","co39175","norming","","","","","","",""
"4085.670000058599","","","post_reveal_questions","survey-likert","544","2503279","0.0-6.0-6.76","4119710","co39175","norming","","","{""aha"":1}","[0]","../img/tt/046tt.jpg","",""
"null","<div style=""font-size:60px;""> </div>","null","fixation","html-keyboard-response","545","2503485","0.0-6.0-0.77","4119710","co39175","norming","","","","","","",""
"null","../img/tt/1148tt.jpg","null","mooney1","image-keyboard-response","546","2506487","0.0-6.0-1.77","4119710","co39175","norming","","","","","","",""
"4516.869999933988","","","post_mooney1_questions","survey-likert","547","2511008","0.0-6.0-2.77","4119710","co39175","norming","","","{""curiosity"":6,""confidence"":1}","[0,1]","../img/tt/1148tt.jpg","",""
