"rt","stimulus","key_press","test_part","trial_type","trial_index","time_elapsed","internal_node_id","totalTime","subject","experiment_name","button_pressed","success","responses","question_order","currentStim","old","correct"
"5511.720000067726","Welcome to the experiment. This is an online experiment so please don't close the tab/window until we say goodbye.  Press any key to begin.","13","instructions","html-keyboard-response","0","5518","0.0-0.0","4161391","co39325","norming","","","","","","",""
"20191.669999971054","<div style='word-wrap: break-word; width: 900px'><h3>Please consider this information carefully before deciding whether to participate in this research</h3><ul style='text-align: left; font-size: .8em;'><li><b>Purpose of the research</b>: To examine how people process images.</li><li><b>What you will do in this research</b>:  Stimuli (images) will be presented on the computer and you will be asked different questions about them.</li><li><b>Time required</b>: Participation will take between 45 and 60 minutes to complete.</li><li><b>Risks</b>:  There are no anticipated risks associated with participating in this study. The effects of participating should be comparable to those you would experience from viewing a computer monitor for 30 minutes and using a mouse or keyboard.</li><li><b>Benefits</b>:  This study provides no benefits to you individually except for the credit. The study provides important information about the nature of perception and learning.</li><li><b>Confidentiality</b>:  Your participation in this study will remain confidential. No personally identifiable information will be associated with your data. Your de-identified data may be shared with other researchers and used in future projects.</li><li><b>Participation and withdrawal</b>:  Your participation in this study is completely voluntary and you may refuse to participate or you may choose to withdraw at any time without penalty.</li><li><b>How to contact the researchers</b>: If you have questions or concerns about your participation or payment, or want to request a summary of research findings, please contact Sander Van de Cruys (KU Leuven), at sander.vandecruys@kuleuven.be.</li></ul><p>The nature and purpose of this research have been sufficiently explained and I agree to participate in this study.  I understand that I am free to withdraw at any time without incurring any penalty.</p><p>Please consent by clicking the button below to continue. Otherwise, please exit the study at this time.</p></div>","","instructions","html-button-response","1","25712","0.0-1.0","4161391","co39325","norming","0","","","","","",""
"","","","instructions","fullscreen","2","29771","0.0-2.0","4161391","co39325","norming","","true","","","","",""
"41138.24499992188","","","sona","survey-html-form","3","70912","0.0-3.0","4161391","co39325","norming","","","[{""name"":""sonaid"",""value"":""39325""},{""name"":""debrief"",""value"":""yes""},{""name"":""datajoin"",""value"":""yes""}]","","","",""
"62827.97500002198","<div style='word-wrap: break-word; width: 900px'><h3>Instructions</h3><p>This experiment will have 3 parts. In the first part you will see a series of distorted images like the one below on the left. As you can see in the righthand image, the distorted images are derived from actual photographs. In what follows, you will <strong>briefly</strong> be presented with <strong>only</strong> the distorted image.</p> <div style='float: left; margin-right: 20px;'><img src='../img/018tt.jpg' height='250' width='250'></img></div><div style='float: right; margin-left: 20px;'><img src='../img/018gs.jpg' height='250' width='250'></img></div><p>Subsequently you will be asked a few questions about the image: One question on how <strong>curious</strong> you are about the solution and one on how <strong>confident</strong> you are that you know the solution.</p>Next, we ask you to make a guess on what is in the image. Note that it is OK to name just the <strong>basic level category</strong>. For example when you see a parrot in the image, 'parrot' will obviously be a correct answer but also correct is 'bird'. However, 'animal' will <strong>not</strong> be counted as a correct response. For the example above, 'rose' would be correct or 'flower', but not 'plant'. When soccer players are depicted, 'soccer', 'football', 'soccer players' will be correct, but not 'humans', 'outdoors', or 'sports'. You do not need to describe the image in full, just name the main object in it <strong>in one or two words</strong>. All images depict objects from one of the following broad level categories: animals, inanimate objects, plants, sports, vehicles, and food. Recognizing means knowing <strong>more</strong> than these broad labels for a given image. But we always encourage you to <strong>make a guess</strong> if you can. Note that you are allowed to use <strong>Dutch and English</strong> in your answers, whatever comes easiest for you.</p><p>Press any key to continue.</p></div>","13","instructions","html-keyboard-response","4","133744","0.0-4.0","4161391","co39325","norming","","","","","","",""
"20731.705000041984","<div style='word-wrap: break-word; width: 900px'><h3>Instructions</h3> <p>Next, the solution image will be revealed to you and you'll be asked to indicate how strong your <strong>aha-experience</strong> was after seeing the solution. This describes the positive feeling of the 'click' you sometimes experience, when the pieces of the 'puzzle' fall together and you suddenly have 'insight' in the image.</p><img src='aha.jpg' height='188' width='250'></img><p>Note that there are no right or wrong answers. We are interested in what <strong>you</strong> see in the image and how <strong>you</strong> feel about it.</p><p>Press any key to start the experiment.</p></div>","13","instructions","html-keyboard-response","5","154477","0.0-5.0","4161391","co39325","norming","","","","","","",""
"null","<div style=""font-size:60px;""> </div>","null","fixation","html-keyboard-response","6","154688","0.0-6.0-0.0","4161391","co39325","norming","","","","","","",""
"null","../img/tt/118tt.jpg","null","mooney1","image-keyboard-response","7","157697","0.0-6.0-1.0","4161391","co39325","norming","","","","","","",""
"8807.505000033416","","","post_mooney1_questions","survey-likert","8","166510","0.0-6.0-2.0","4161391","co39325","norming","","","{""curiosity"":6,""confidence"":0}","[0,1]","../img/tt/118tt.jpg","",""
"6959.839999908581","","","recognition","survey-text","9","173477","0.0-6.0-3.0","4161391","co39325","norming","","","{""guess"":""""}","","../img/tt/118tt.jpg","",""
"null","../img/gs/118gs.jpg","null","reveal","image-keyboard-response","10","175496","0.0-6.0-4.0","4161391","co39325","norming","","","","","","",""
"null","../img/tt/118tt.jpg","null","mooney2","image-keyboard-response","11","177510","0.0-6.0-5.0","4161391","co39325","norming","","","","","","",""
"4222.765000071377","","","post_reveal_questions","survey-likert","12","181736","0.0-6.0-6.0","4161391","co39325","norming","","","{""aha"":5}","[0]","../img/tt/118tt.jpg","",""
"null","<div style=""font-size:60px;""> </div>","null","fixation","html-keyboard-response","13","181954","0.0-6.0-0.1","4161391","co39325","norming","","","","","","",""
"null","../img/tt/105tt.jpg","null","mooney1","image-keyboard-response","14","184969","0.0-6.0-1.1","4161391","co39325","norming","","","","","","",""
"5919.514999957755","","","post_mooney1_questions","survey-likert","15","190892","0.0-6.0-2.1","4161391","co39325","norming","","","{""curiosity"":3,""confidence"":5}","[0,1]","../img/tt/105tt.jpg","",""
"4779.394999961369","","","recognition","survey-text","16","195677","0.0-6.0-3.1","4161391","co39325","norming","","","{""guess"":""pins""}","","../img/tt/105tt.jpg","",""
"null","../img/gs/105gs.jpg","null","reveal","image-keyboard-response","17","197683","0.0-6.0-4.1","4161391","co39325","norming","","","","","","",""
"null","../img/tt/105tt.jpg","null","mooney2","image-keyboard-response","18","199700","0.0-6.0-5.1","4161391","co39325","norming","","","","","","",""
"3506.9450000301003","","","post_reveal_questions","survey-likert","19","203210","0.0-6.0-6.1","4161391","co39325","norming","","","{""aha"":0}","[0]","../img/tt/105tt.jpg","",""
"null","<div style=""font-size:60px;""> </div>","null","fixation","html-keyboard-response","20","203413","0.0-6.0-0.2","4161391","co39325","norming","","","","","","",""
"null","../img/tt/063tt.jpg","null","mooney1","image-keyboard-response","21","206426","0.0-6.0-1.2","4161391","co39325","norming","","","","","","",""
"4352.740000002086","","","post_mooney1_questions","survey-likert","22","210782","0.0-6.0-2.2","4161391","co39325","norming","","","{""curiosity"":5,""confidence"":1}","[0,1]","../img/tt/063tt.jpg","",""
"870.1949999667704","","","recognition","survey-text","23","211658","0.0-6.0-3.2","4161391","co39325","norming","","","{""guess"":""""}","","../img/tt/063tt.jpg","",""
"null","../img/gs/063gs.jpg","null","reveal","image-keyboard-response","24","213664","0.0-6.0-4.2","4161391","co39325","norming","","","","","","",""
"null","../img/tt/063tt.jpg","null","mooney2","image-keyboard-response","25","215673","0.0-6.0-5.2","4161391","co39325","norming","","","","","","",""
"2950.1999999629334","","","post_reveal_questions","survey-likert","26","218626","0.0-6.0-6.2","4161391","co39325","norming","","","{""aha"":4}","[0]","../img/tt/063tt.jpg","",""
"null","<div style=""font-size:60px;""> </div>","null","fixation","html-keyboard-response","27","218836","0.0-6.0-0.3","4161391","co39325","norming","","","","","","",""
"null","../img/tt/1128tt.jpg","null","mooney1","image-keyboard-response","28","221845","0.0-6.0-1.3","4161391","co39325","norming","","","","","","",""
"5979.949999949895","","","post_mooney1_questions","survey-likert","29","227827","0.0-6.0-2.3","4161391","co39325","norming","","","{""curiosity"":5,""confidence"":3}","[0,1]","../img/tt/1128tt.jpg","",""
"2052.310000057332","","","recognition","survey-text","30","229883","0.0-6.0-3.3","4161391","co39325","norming","","","{""guess"":""cat""}","","../img/tt/1128tt.jpg","",""
"null","../img/gs/1128gs.jpg","null","reveal","image-keyboard-response","31","231900","0.0-6.0-4.3","4161391","co39325","norming","","","","","","",""
"null","../img/tt/1128tt.jpg","null","mooney2","image-keyboard-response","32","233903","0.0-6.0-5.3","4161391","co39325","norming","","","","","","",""
"2161.3150000339374","","","post_reveal_questions","survey-likert","33","236067","0.0-6.0-6.3","4161391","co39325","norming","","","{""aha"":6}","[0]","../img/tt/1128tt.jpg","",""
"null","<div style=""font-size:60px;""> </div>","null","fixation","html-keyboard-response","34","236282","0.0-6.0-0.4","4161391","co39325","norming","","","","","","",""
"null","../img/tt/406tt.jpg","null","mooney1","image-keyboard-response","35","239291","0.0-6.0-1.4","4161391","co39325","norming","","","","","","",""
"3739.8299999767914","","","post_mooney1_questions","survey-likert","36","243034","0.0-6.0-2.4","4161391","co39325","norming","","","{""curiosity"":6,""confidence"":0}","[0,1]","../img/tt/406tt.jpg","",""
"941.9350000098348","","","recognition","survey-text","37","243982","0.0-6.0-3.4","4161391","co39325","norming","","","{""guess"":""""}","","../img/tt/406tt.jpg","",""
"null","../img/gs/406gs.jpg","null","reveal","image-keyboard-response","38","245988","0.0-6.0-4.4","4161391","co39325","norming","","","","","","",""
"null","../img/tt/406tt.jpg","null","mooney2","image-keyboard-response","39","247993","0.0-6.0-5.4","4161391","co39325","norming","","","","","","",""
"2912.144999951124","","","post_reveal_questions","survey-likert","40","250908","0.0-6.0-6.4","4161391","co39325","norming","","","{""aha"":5}","[0]","../img/tt/406tt.jpg","",""
"null","<div style=""font-size:60px;""> </div>","null","fixation","html-keyboard-response","41","251121","0.0-6.0-0.5","4161391","co39325","norming","","","","","","",""
"null","../img/tt/307tt.jpg","null","mooney1","image-keyboard-response","42","254125","0.0-6.0-1.5","4161391","co39325","norming","","","","","","",""
"4939.05500008259","","","post_mooney1_questions","survey-likert","43","259067","0.0-6.0-2.5","4161391","co39325","norming","","","{""curiosity"":5,""confidence"":5}","[0,1]","../img/tt/307tt.jpg","",""
"2756.05500000529","","","recognition","survey-text","44","261828","0.0-6.0-3.5","4161391","co39325","norming","","","{""guess"":""snail""}","","../img/tt/307tt.jpg","",""
"null","../img/gs/307gs.jpg","null","reveal","image-keyboard-response","45","263842","0.0-6.0-4.5","4161391","co39325","norming","","","","","","",""
"null","../img/tt/307tt.jpg","null","mooney2","image-keyboard-response","46","265845","0.0-6.0-5.5","4161391","co39325","norming","","","","","","",""
"4121.754999971017","","","post_reveal_questions","survey-likert","47","269970","0.0-6.0-6.5","4161391","co39325","norming","","","{""aha"":3}","[0]","../img/tt/307tt.jpg","",""
"null","<div style=""font-size:60px;""> </div>","null","fixation","html-keyboard-response","48","270176","0.0-6.0-0.6","4161391","co39325","norming","","","","","","",""
"null","../img/tt/1202tt.jpg","null","mooney1","image-keyboard-response","49","273185","0.0-6.0-1.6","4161391","co39325","norming","","","","","","",""
"7114.260000060312","","","post_mooney1_questions","survey-likert","50","280303","0.0-6.0-2.6","4161391","co39325","norming","","","{""curiosity"":5,""confidence"":1}","[0,1]","../img/tt/1202tt.jpg","",""
"5418.790000025183","","","recognition","survey-text","51","285727","0.0-6.0-3.6","4161391","co39325","norming","","","{""guess"":""sport""}","","../img/tt/1202tt.jpg","",""
"null","../img/gs/1202gs.jpg","null","reveal","image-keyboard-response","52","287732","0.0-6.0-4.6","4161391","co39325","norming","","","","","","",""
"null","../img/tt/1202tt.jpg","null","mooney2","image-keyboard-response","53","289739","0.0-6.0-5.6","4161391","co39325","norming","","","","","","",""
"3900.9349999250844","","","post_reveal_questions","survey-likert","54","293644","0.0-6.0-6.6","4161391","co39325","norming","","","{""aha"":2}","[0]","../img/tt/1202tt.jpg","",""
"null","<div style=""font-size:60px;""> </div>","null","fixation","html-keyboard-response","55","293859","0.0-6.0-0.7","4161391","co39325","norming","","","","","","",""
"null","../img/tt/189tt.jpg","null","mooney1","image-keyboard-response","56","296865","0.0-6.0-1.7","4161391","co39325","norming","","","","","","",""
"5367.550000082701","","","post_mooney1_questions","survey-likert","57","302235","0.0-6.0-2.7","4161391","co39325","norming","","","{""curiosity"":3,""confidence"":2}","[0,1]","../img/tt/189tt.jpg","",""
"1522.1150000579655","","","recognition","survey-text","58","303761","0.0-6.0-3.7","4161391","co39325","norming","","","{""guess"":""sport""}","","../img/tt/189tt.jpg","",""
"null","../img/gs/189gs.jpg","null","reveal","image-keyboard-response","59","305770","0.0-6.0-4.7","4161391","co39325","norming","","","","","","",""
"null","../img/tt/189tt.jpg","null","mooney2","image-keyboard-response","60","307774","0.0-6.0-5.7","4161391","co39325","norming","","","","","","",""
"2042.2249999828637","","","post_reveal_questions","survey-likert","61","309818","0.0-6.0-6.7","4161391","co39325","norming","","","{""aha"":6}","[0]","../img/tt/189tt.jpg","",""
"null","<div style=""font-size:60px;""> </div>","null","fixation","html-keyboard-response","62","310036","0.0-6.0-0.8","4161391","co39325","norming","","","","","","",""
"null","../img/tt/296tt.jpg","null","mooney1","image-keyboard-response","63","313041","0.0-6.0-1.8","4161391","co39325","norming","","","","","","",""
"8226.780000026338","","","post_mooney1_questions","survey-likert","64","321271","0.0-6.0-2.8","4161391","co39325","norming","","","{""curiosity"":6,""confidence"":5}","[0,1]","../img/tt/296tt.jpg","",""
"4391.085000010207","","","recognition","survey-text","65","325666","0.0-6.0-3.8","4161391","co39325","norming","","","{""guess"":""computer""}","","../img/tt/296tt.jpg","",""
"null","../img/gs/296gs.jpg","null","reveal","image-keyboard-response","66","327672","0.0-6.0-4.8","4161391","co39325","norming","","","","","","",""
"null","../img/tt/296tt.jpg","null","mooney2","image-keyboard-response","67","329678","0.0-6.0-5.8","4161391","co39325","norming","","","","","","",""
"2345.225000055507","","","post_reveal_questions","survey-likert","68","332027","0.0-6.0-6.8","4161391","co39325","norming","","","{""aha"":6}","[0]","../img/tt/296tt.jpg","",""
"null","<div style=""font-size:60px;""> </div>","null","fixation","html-keyboard-response","69","332245","0.0-6.0-0.9","4161391","co39325","norming","","","","","","",""
"null","../img/tt/1243tt.jpg","null","mooney1","image-keyboard-response","70","335521","0.0-6.0-1.9","4161391","co39325","norming","","","","","","",""
"58586.29000000656","","","post_mooney1_questions","survey-likert","71","394109","0.0-6.0-2.9","4161391","co39325","norming","","","{""curiosity"":6,""confidence"":0}","[0,1]","../img/tt/1243tt.jpg","",""
"1965.9049999900162","","","recognition","survey-text","72","396081","0.0-6.0-3.9","4161391","co39325","norming","","","{""guess"":""""}","","../img/tt/1243tt.jpg","",""
"null","../img/gs/1243gs.jpg","null","reveal","image-keyboard-response","73","398087","0.0-6.0-4.9","4161391","co39325","norming","","","","","","",""
"null","../img/tt/1243tt.jpg","null","mooney2","image-keyboard-response","74","400095","0.0-6.0-5.9","4161391","co39325","norming","","","","","","",""
"371512.8699999768","","","post_reveal_questions","survey-likert","75","771611","0.0-6.0-6.9","4161391","co39325","norming","","","{""aha"":6}","[0]","../img/tt/1243tt.jpg","",""
"null","<div style=""font-size:60px;""> </div>","null","fixation","html-keyboard-response","76","771816","0.0-6.0-0.10","4161391","co39325","norming","","","","","","",""
"null","../img/tt/1118tt.jpg","null","mooney1","image-keyboard-response","77","774824","0.0-6.0-1.10","4161391","co39325","norming","","","","","","",""
"5899.29500001017","","","post_mooney1_questions","survey-likert","78","780727","0.0-6.0-2.10","4161391","co39325","norming","","","{""curiosity"":5,""confidence"":0}","[0,1]","../img/tt/1118tt.jpg","",""
"1367.5149999326095","","","recognition","survey-text","79","782107","0.0-6.0-3.10","4161391","co39325","norming","","","{""guess"":""""}","","../img/tt/1118tt.jpg","",""
"null","../img/gs/1118gs.jpg","null","reveal","image-keyboard-response","80","784113","0.0-6.0-4.10","4161391","co39325","norming","","","","","","",""
"null","../img/tt/1118tt.jpg","null","mooney2","image-keyboard-response","81","786126","0.0-6.0-5.10","4161391","co39325","norming","","","","","","",""
"4099.1350000258535","","","post_reveal_questions","survey-likert","82","790228","0.0-6.0-6.10","4161391","co39325","norming","","","{""aha"":5}","[0]","../img/tt/1118tt.jpg","",""
"null","<div style=""font-size:60px;""> </div>","null","fixation","html-keyboard-response","83","790441","0.0-6.0-0.11","4161391","co39325","norming","","","","","","",""
"null","../img/tt/1247tt.jpg","null","mooney1","image-keyboard-response","84","793463","0.0-6.0-1.11","4161391","co39325","norming","","","","","","",""
"6475.70499998983","","","post_mooney1_questions","survey-likert","85","799941","0.0-6.0-2.11","4161391","co39325","norming","","","{""curiosity"":4,""confidence"":3}","[0,1]","../img/tt/1247tt.jpg","",""
"1729.174999985844","","","recognition","survey-text","86","801676","0.0-6.0-3.11","4161391","co39325","norming","","","{""guess"":""plant""}","","../img/tt/1247tt.jpg","",""
"null","../img/gs/1247gs.jpg","null","reveal","image-keyboard-response","87","803681","0.0-6.0-4.11","4161391","co39325","norming","","","","","","",""
"null","../img/tt/1247tt.jpg","null","mooney2","image-keyboard-response","88","805693","0.0-6.0-5.11","4161391","co39325","norming","","","","","","",""
"2634.775000042282","","","post_reveal_questions","survey-likert","89","808331","0.0-6.0-6.11","4161391","co39325","norming","","","{""aha"":6}","[0]","../img/tt/1247tt.jpg","",""
"null","<div style=""font-size:60px;""> </div>","null","fixation","html-keyboard-response","90","808548","0.0-6.0-0.12","4161391","co39325","norming","","","","","","",""
"null","../img/tt/435tt.jpg","null","mooney1","image-keyboard-response","91","811563","0.0-6.0-1.12","4161391","co39325","norming","","","","","","",""
"4984.034999972209","","","post_mooney1_questions","survey-likert","92","816551","0.0-6.0-2.12","4161391","co39325","norming","","","{""curiosity"":5,""confidence"":0}","[0,1]","../img/tt/435tt.jpg","",""
"1809.6150000346825","","","recognition","survey-text","93","818367","0.0-6.0-3.12","4161391","co39325","norming","","","{""guess"":""flag""}","","../img/tt/435tt.jpg","",""
"null","../img/gs/435gs.jpg","null","reveal","image-keyboard-response","94","820369","0.0-6.0-4.12","4161391","co39325","norming","","","","","","",""
"null","../img/tt/435tt.jpg","null","mooney2","image-keyboard-response","95","822386","0.0-6.0-5.12","4161391","co39325","norming","","","","","","",""
"3864.3050000537187","","","post_reveal_questions","survey-likert","96","826252","0.0-6.0-6.12","4161391","co39325","norming","","","{""aha"":5}","[0]","../img/tt/435tt.jpg","",""
"null","<div style=""font-size:60px;""> </div>","null","fixation","html-keyboard-response","97","826459","0.0-6.0-0.13","4161391","co39325","norming","","","","","","",""
"null","../img/tt/378tt.jpg","null","mooney1","image-keyboard-response","98","829471","0.0-6.0-1.13","4161391","co39325","norming","","","","","","",""
"5523.4150000615045","","","post_mooney1_questions","survey-likert","99","834997","0.0-6.0-2.13","4161391","co39325","norming","","","{""curiosity"":5,""confidence"":3}","[0,1]","../img/tt/378tt.jpg","",""
"1813.910000026226","","","recognition","survey-text","100","836816","0.0-6.0-3.13","4161391","co39325","norming","","","{""guess"":""animal""}","","../img/tt/378tt.jpg","",""
"null","../img/gs/378gs.jpg","null","reveal","image-keyboard-response","101","838820","0.0-6.0-4.13","4161391","co39325","norming","","","","","","",""
"null","../img/tt/378tt.jpg","null","mooney2","image-keyboard-response","102","840822","0.0-6.0-5.13","4161391","co39325","norming","","","","","","",""
"1904.5049999840558","","","post_reveal_questions","survey-likert","103","842729","0.0-6.0-6.13","4161391","co39325","norming","","","{""aha"":3}","[0]","../img/tt/378tt.jpg","",""
"null","<div style=""font-size:60px;""> </div>","null","fixation","html-keyboard-response","104","842935","0.0-6.0-0.14","4161391","co39325","norming","","","","","","",""
"null","../img/tt/056tt.jpg","null","mooney1","image-keyboard-response","105","845943","0.0-6.0-1.14","4161391","co39325","norming","","","","","","",""
"6124.485000036657","","","post_mooney1_questions","survey-likert","106","852074","0.0-6.0-2.14","4161391","co39325","norming","","","{""curiosity"":3,""confidence"":4}","[0,1]","../img/tt/056tt.jpg","",""
"1563.6800000211224","","","recognition","survey-text","107","853641","0.0-6.0-3.14","4161391","co39325","norming","","","{""guess"":""lion""}","","../img/tt/056tt.jpg","",""
"null","../img/gs/056gs.jpg","null","reveal","image-keyboard-response","108","855644","0.0-6.0-4.14","4161391","co39325","norming","","","","","","",""
"null","../img/tt/056tt.jpg","null","mooney2","image-keyboard-response","109","857646","0.0-6.0-5.14","4161391","co39325","norming","","","","","","",""
"3348.6200000625104","","","post_reveal_questions","survey-likert","110","860998","0.0-6.0-6.14","4161391","co39325","norming","","","{""aha"":1}","[0]","../img/tt/056tt.jpg","",""
"null","<div style=""font-size:60px;""> </div>","null","fixation","html-keyboard-response","111","861204","0.0-6.0-0.15","4161391","co39325","norming","","","","","","",""
"null","../img/tt/049tt.jpg","null","mooney1","image-keyboard-response","112","864216","0.0-6.0-1.15","4161391","co39325","norming","","","","","","",""
"6160.800000070594","","","post_mooney1_questions","survey-likert","113","870380","0.0-6.0-2.15","4161391","co39325","norming","","","{""curiosity"":2,""confidence"":4}","[0,1]","../img/tt/049tt.jpg","",""
"1959.3600000953302","","","recognition","survey-text","114","872346","0.0-6.0-3.15","4161391","co39325","norming","","","{""guess"":""animal""}","","../img/tt/049tt.jpg","",""
"null","../img/gs/049gs.jpg","null","reveal","image-keyboard-response","115","874365","0.0-6.0-4.15","4161391","co39325","norming","","","","","","",""
"null","../img/tt/049tt.jpg","null","mooney2","image-keyboard-response","116","876370","0.0-6.0-5.15","4161391","co39325","norming","","","","","","",""
"1749.8350000241771","","","post_reveal_questions","survey-likert","117","878123","0.0-6.0-6.15","4161391","co39325","norming","","","{""aha"":4}","[0]","../img/tt/049tt.jpg","",""
"null","<div style=""font-size:60px;""> </div>","null","fixation","html-keyboard-response","118","878329","0.0-6.0-0.16","4161391","co39325","norming","","","","","","",""
"null","../img/tt/096tt.jpg","null","mooney1","image-keyboard-response","119","881341","0.0-6.0-1.16","4161391","co39325","norming","","","","","","",""
"5325.995000079274","","","post_mooney1_questions","survey-likert","120","886671","0.0-6.0-2.16","4161391","co39325","norming","","","{""curiosity"":1,""confidence"":5}","[0,1]","../img/tt/096tt.jpg","",""
"4543.440000037663","","","recognition","survey-text","121","891220","0.0-6.0-3.16","4161391","co39325","norming","","","{""guess"":""piano""}","","../img/tt/096tt.jpg","",""
"null","../img/gs/096gs.jpg","null","reveal","image-keyboard-response","122","893225","0.0-6.0-4.16","4161391","co39325","norming","","","","","","",""
"null","../img/tt/096tt.jpg","null","mooney2","image-keyboard-response","123","895228","0.0-6.0-5.16","4161391","co39325","norming","","","","","","",""
"2246.9799999380484","","","post_reveal_questions","survey-likert","124","897478","0.0-6.0-6.16","4161391","co39325","norming","","","{""aha"":0}","[0]","../img/tt/096tt.jpg","",""
"null","<div style=""font-size:60px;""> </div>","null","fixation","html-keyboard-response","125","897686","0.0-6.0-0.17","4161391","co39325","norming","","","","","","",""
"null","../img/tt/306tt.jpg","null","mooney1","image-keyboard-response","126","900689","0.0-6.0-1.17","4161391","co39325","norming","","","","","","",""
"4328.145000035875","","","post_mooney1_questions","survey-likert","127","905020","0.0-6.0-2.17","4161391","co39325","norming","","","{""curiosity"":6,""confidence"":0}","[0,1]","../img/tt/306tt.jpg","",""
"711.5149999735877","","","recognition","survey-text","128","905738","0.0-6.0-3.17","4161391","co39325","norming","","","{""guess"":""""}","","../img/tt/306tt.jpg","",""
"null","../img/gs/306gs.jpg","null","reveal","image-keyboard-response","129","907759","0.0-6.0-4.17","4161391","co39325","norming","","","","","","",""
"null","../img/tt/306tt.jpg","null","mooney2","image-keyboard-response","130","909763","0.0-6.0-5.17","4161391","co39325","norming","","","","","","",""
"1978.2600000035018","","","post_reveal_questions","survey-likert","131","911744","0.0-6.0-6.17","4161391","co39325","norming","","","{""aha"":6}","[0]","../img/tt/306tt.jpg","",""
"null","<div style=""font-size:60px;""> </div>","null","fixation","html-keyboard-response","132","911954","0.0-6.0-0.18","4161391","co39325","norming","","","","","","",""
"null","../img/tt/1116tt.jpg","null","mooney1","image-keyboard-response","133","914957","0.0-6.0-1.18","4161391","co39325","norming","","","","","","",""
"4970.470000058413","","","post_mooney1_questions","survey-likert","134","919931","0.0-6.0-2.18","4161391","co39325","norming","","","{""curiosity"":4,""confidence"":4}","[0,1]","../img/tt/1116tt.jpg","",""
"2178.455000044778","","","recognition","survey-text","135","922114","0.0-6.0-3.18","4161391","co39325","norming","","","{""guess"":""airplane""}","","../img/tt/1116tt.jpg","",""
"null","../img/gs/1116gs.jpg","null","reveal","image-keyboard-response","136","924118","0.0-6.0-4.18","4161391","co39325","norming","","","","","","",""
"null","../img/tt/1116tt.jpg","null","mooney2","image-keyboard-response","137","926127","0.0-6.0-5.18","4161391","co39325","norming","","","","","","",""
"2317.310000071302","","","post_reveal_questions","survey-likert","138","928448","0.0-6.0-6.18","4161391","co39325","norming","","","{""aha"":0}","[0]","../img/tt/1116tt.jpg","",""
"null","<div style=""font-size:60px;""> </div>","null","fixation","html-keyboard-response","139","928655","0.0-6.0-0.19","4161391","co39325","norming","","","","","","",""
"null","../img/tt/1279tt.jpg","null","mooney1","image-keyboard-response","140","931671","0.0-6.0-1.19","4161391","co39325","norming","","","","","","",""
"5917.0000000158325","","","post_mooney1_questions","survey-likert","141","937591","0.0-6.0-2.19","4161391","co39325","norming","","","{""curiosity"":4,""confidence"":1}","[0,1]","../img/tt/1279tt.jpg","",""
"2043.8549999380484","","","recognition","survey-text","142","939641","0.0-6.0-3.19","4161391","co39325","norming","","","{""guess"":""animal""}","","../img/tt/1279tt.jpg","",""
"null","../img/gs/1279gs.jpg","null","reveal","image-keyboard-response","143","941652","0.0-6.0-4.19","4161391","co39325","norming","","","","","","",""
"null","../img/tt/1279tt.jpg","null","mooney2","image-keyboard-response","144","943658","0.0-6.0-5.19","4161391","co39325","norming","","","","","","",""
"2858.835000079125","","","post_reveal_questions","survey-likert","145","946519","0.0-6.0-6.19","4161391","co39325","norming","","","{""aha"":3}","[0]","../img/tt/1279tt.jpg","",""
"null","<div style=""font-size:60px;""> </div>","null","fixation","html-keyboard-response","146","946733","0.0-6.0-0.20","4161391","co39325","norming","","","","","","",""
"null","../img/tt/515tt.jpg","null","mooney1","image-keyboard-response","147","949745","0.0-6.0-1.20","4161391","co39325","norming","","","","","","",""
"8018.225000007078","","","post_mooney1_questions","survey-likert","148","957766","0.0-6.0-2.20","4161391","co39325","norming","","","{""curiosity"":4,""confidence"":3}","[0,1]","../img/tt/515tt.jpg","",""
"1732.9800000879914","","","recognition","survey-text","149","959503","0.0-6.0-3.20","4161391","co39325","norming","","","{""guess"":""tail""}","","../img/tt/515tt.jpg","",""
"null","../img/gs/515gs.jpg","null","reveal","image-keyboard-response","150","961513","0.0-6.0-4.20","4161391","co39325","norming","","","","","","",""
"null","../img/tt/515tt.jpg","null","mooney2","image-keyboard-response","151","963522","0.0-6.0-5.20","4161391","co39325","norming","","","","","","",""
"2759.9349999800324","","","post_reveal_questions","survey-likert","152","966285","0.0-6.0-6.20","4161391","co39325","norming","","","{""aha"":5}","[0]","../img/tt/515tt.jpg","",""
"null","<div style=""font-size:60px;""> </div>","null","fixation","html-keyboard-response","153","966498","0.0-6.0-0.21","4161391","co39325","norming","","","","","","",""
"null","../img/tt/1251tt.jpg","null","mooney1","image-keyboard-response","154","969507","0.0-6.0-1.21","4161391","co39325","norming","","","","","","",""
"4739.034999976866","","","post_mooney1_questions","survey-likert","155","974250","0.0-6.0-2.21","4161391","co39325","norming","","","{""curiosity"":3,""confidence"":5}","[0,1]","../img/tt/1251tt.jpg","",""
"1973.079999908805","","","recognition","survey-text","156","976229","0.0-6.0-3.21","4161391","co39325","norming","","","{""guess"":""bear""}","","../img/tt/1251tt.jpg","",""
"null","../img/gs/1251gs.jpg","null","reveal","image-keyboard-response","157","978232","0.0-6.0-4.21","4161391","co39325","norming","","","","","","",""
"null","../img/tt/1251tt.jpg","null","mooney2","image-keyboard-response","158","980248","0.0-6.0-5.21","4161391","co39325","norming","","","","","","",""
"2634.330000029877","","","post_reveal_questions","survey-likert","159","982885","0.0-6.0-6.21","4161391","co39325","norming","","","{""aha"":0}","[0]","../img/tt/1251tt.jpg","",""
"null","<div style=""font-size:60px;""> </div>","null","fixation","html-keyboard-response","160","983102","0.0-6.0-0.22","4161391","co39325","norming","","","","","","",""
"null","../img/tt/319tt.jpg","null","mooney1","image-keyboard-response","161","986108","0.0-6.0-1.22","4161391","co39325","norming","","","","","","",""
"5121.505000046454","","","post_mooney1_questions","survey-likert","162","991233","0.0-6.0-2.22","4161391","co39325","norming","","","{""curiosity"":1,""confidence"":5}","[0,1]","../img/tt/319tt.jpg","",""
"1952.8250000439584","","","recognition","survey-text","163","993190","0.0-6.0-3.22","4161391","co39325","norming","","","{""guess"":""donkey""}","","../img/tt/319tt.jpg","",""
"null","../img/gs/319gs.jpg","null","reveal","image-keyboard-response","164","995207","0.0-6.0-4.22","4161391","co39325","norming","","","","","","",""
"null","../img/tt/319tt.jpg","null","mooney2","image-keyboard-response","165","997214","0.0-6.0-5.22","4161391","co39325","norming","","","","","","",""
"2345.869999960996","","","post_reveal_questions","survey-likert","166","999563","0.0-6.0-6.22","4161391","co39325","norming","","","{""aha"":0}","[0]","../img/tt/319tt.jpg","",""
"null","<div style=""font-size:60px;""> </div>","null","fixation","html-keyboard-response","167","999771","0.0-6.0-0.23","4161391","co39325","norming","","","","","","",""
"null","../img/tt/1237tt.jpg","null","mooney1","image-keyboard-response","168","1002777","0.0-6.0-1.23","4161391","co39325","norming","","","","","","",""
"5432.670000009239","","","post_mooney1_questions","survey-likert","169","1008212","0.0-6.0-2.23","4161391","co39325","norming","","","{""curiosity"":3,""confidence"":4}","[0,1]","../img/tt/1237tt.jpg","",""
"6929.074999992736","","","recognition","survey-text","170","1015147","0.0-6.0-3.23","4161391","co39325","norming","","","{""guess"":""animal in water""}","","../img/tt/1237tt.jpg","",""
"null","../img/gs/1237gs.jpg","null","reveal","image-keyboard-response","171","1017149","0.0-6.0-4.23","4161391","co39325","norming","","","","","","",""
"null","../img/tt/1237tt.jpg","null","mooney2","image-keyboard-response","172","1019155","0.0-6.0-5.23","4161391","co39325","norming","","","","","","",""
"3240.7599999569356","","","post_reveal_questions","survey-likert","173","1022399","0.0-6.0-6.23","4161391","co39325","norming","","","{""aha"":0}","[0]","../img/tt/1237tt.jpg","",""
"null","<div style=""font-size:60px;""> </div>","null","fixation","html-keyboard-response","174","1022615","0.0-6.0-0.24","4161391","co39325","norming","","","","","","",""
"null","../img/tt/1217tt.jpg","null","mooney1","image-keyboard-response","175","1025622","0.0-6.0-1.24","4161391","co39325","norming","","","","","","",""
"7964.084999985062","","","post_mooney1_questions","survey-likert","176","1033589","0.0-6.0-2.24","4161391","co39325","norming","","","{""curiosity"":4,""confidence"":4}","[0,1]","../img/tt/1217tt.jpg","",""
"3899.6899999910966","","","recognition","survey-text","177","1037492","0.0-6.0-3.24","4161391","co39325","norming","","","{""guess"":""players""}","","../img/tt/1217tt.jpg","",""
"null","../img/gs/1217gs.jpg","null","reveal","image-keyboard-response","178","1039498","0.0-6.0-4.24","4161391","co39325","norming","","","","","","",""
"null","../img/tt/1217tt.jpg","null","mooney2","image-keyboard-response","179","1041519","0.0-6.0-5.24","4161391","co39325","norming","","","","","","",""
"1989.4100000383332","","","post_reveal_questions","survey-likert","180","1043512","0.0-6.0-6.24","4161391","co39325","norming","","","{""aha"":1}","[0]","../img/tt/1217tt.jpg","",""
"null","<div style=""font-size:60px;""> </div>","null","fixation","html-keyboard-response","181","1043716","0.0-6.0-0.25","4161391","co39325","norming","","","","","","",""
"null","../img/tt/194tt.jpg","null","mooney1","image-keyboard-response","182","1046731","0.0-6.0-1.25","4161391","co39325","norming","","","","","","",""
"6825.955000007525","","","post_mooney1_questions","survey-likert","183","1053561","0.0-6.0-2.25","4161391","co39325","norming","","","{""curiosity"":0,""confidence"":5}","[0,1]","../img/tt/194tt.jpg","",""
"4006.874999962747","","","recognition","survey-text","184","1057574","0.0-6.0-3.25","4161391","co39325","norming","","","{""guess"":""harp player""}","","../img/tt/194tt.jpg","",""
"null","../img/gs/194gs.jpg","null","reveal","image-keyboard-response","185","1059580","0.0-6.0-4.25","4161391","co39325","norming","","","","","","",""
"null","../img/tt/194tt.jpg","null","mooney2","image-keyboard-response","186","1061582","0.0-6.0-5.25","4161391","co39325","norming","","","","","","",""
"2883.9650000445545","","","post_reveal_questions","survey-likert","187","1064469","0.0-6.0-6.25","4161391","co39325","norming","","","{""aha"":0}","[0]","../img/tt/194tt.jpg","",""
"null","<div style=""font-size:60px;""> </div>","null","fixation","html-keyboard-response","188","1064678","0.0-6.0-0.26","4161391","co39325","norming","","","","","","",""
"null","../img/tt/318tt.jpg","null","mooney1","image-keyboard-response","189","1067692","0.0-6.0-1.26","4161391","co39325","norming","","","","","","",""
"4981.829999946058","","","post_mooney1_questions","survey-likert","190","1072678","0.0-6.0-2.26","4161391","co39325","norming","","","{""curiosity"":5,""confidence"":0}","[0,1]","../img/tt/318tt.jpg","",""
"737.1350000612438","","","recognition","survey-text","191","1073421","0.0-6.0-3.26","4161391","co39325","norming","","","{""guess"":""""}","","../img/tt/318tt.jpg","",""
"null","../img/gs/318gs.jpg","null","reveal","image-keyboard-response","192","1075440","0.0-6.0-4.26","4161391","co39325","norming","","","","","","",""
"null","../img/tt/318tt.jpg","null","mooney2","image-keyboard-response","193","1077443","0.0-6.0-5.26","4161391","co39325","norming","","","","","","",""
"3594.9000000255182","","","post_reveal_questions","survey-likert","194","1081040","0.0-6.0-6.26","4161391","co39325","norming","","","{""aha"":5}","[0]","../img/tt/318tt.jpg","",""
"null","<div style=""font-size:60px;""> </div>","null","fixation","html-keyboard-response","195","1081243","0.0-6.0-0.27","4161391","co39325","norming","","","","","","",""
"null","../img/tt/1262tt.jpg","null","mooney1","image-keyboard-response","196","1084251","0.0-6.0-1.27","4161391","co39325","norming","","","","","","",""
"4148.099999991246","","","post_mooney1_questions","survey-likert","197","1088402","0.0-6.0-2.27","4161391","co39325","norming","","","{""curiosity"":4,""confidence"":1}","[0,1]","../img/tt/1262tt.jpg","",""
"1442.5549999577925","","","recognition","survey-text","198","1089850","0.0-6.0-3.27","4161391","co39325","norming","","","{""guess"":""""}","","../img/tt/1262tt.jpg","",""
"null","../img/gs/1262gs.jpg","null","reveal","image-keyboard-response","199","1091866","0.0-6.0-4.27","4161391","co39325","norming","","","","","","",""
"null","../img/tt/1262tt.jpg","null","mooney2","image-keyboard-response","200","1093868","0.0-6.0-5.27","4161391","co39325","norming","","","","","","",""
"2145.2600000193343","","","post_reveal_questions","survey-likert","201","1096016","0.0-6.0-6.27","4161391","co39325","norming","","","{""aha"":1}","[0]","../img/tt/1262tt.jpg","",""
"null","<div style=""font-size:60px;""> </div>","null","fixation","html-keyboard-response","202","1096219","0.0-6.0-0.28","4161391","co39325","norming","","","","","","",""
"null","../img/tt/440tt.jpg","null","mooney1","image-keyboard-response","203","1099224","0.0-6.0-1.28","4161391","co39325","norming","","","","","","",""
"5105.2050000289455","","","post_mooney1_questions","survey-likert","204","1104333","0.0-6.0-2.28","4161391","co39325","norming","","","{""curiosity"":4,""confidence"":2}","[0,1]","../img/tt/440tt.jpg","",""
"1680.8699999237433","","","recognition","survey-text","205","1106020","0.0-6.0-3.28","4161391","co39325","norming","","","{""guess"":""fence""}","","../img/tt/440tt.jpg","",""
"null","../img/gs/440gs.jpg","null","reveal","image-keyboard-response","206","1108022","0.0-6.0-4.28","4161391","co39325","norming","","","","","","",""
"null","../img/tt/440tt.jpg","null","mooney2","image-keyboard-response","207","1110026","0.0-6.0-5.28","4161391","co39325","norming","","","","","","",""
"1723.7800000002608","","","post_reveal_questions","survey-likert","208","1111753","0.0-6.0-6.28","4161391","co39325","norming","","","{""aha"":5}","[0]","../img/tt/440tt.jpg","",""
"null","<div style=""font-size:60px;""> </div>","null","fixation","html-keyboard-response","209","1111962","0.0-6.0-0.29","4161391","co39325","norming","","","","","","",""
"null","../img/tt/1033tt.jpg","null","mooney1","image-keyboard-response","210","1114968","0.0-6.0-1.29","4161391","co39325","norming","","","","","","",""
"6240.799999912269","","","post_mooney1_questions","survey-likert","211","1121212","0.0-6.0-2.29","4161391","co39325","norming","","","{""curiosity"":4,""confidence"":3}","[0,1]","../img/tt/1033tt.jpg","",""
"5449.9249999644235","","","recognition","survey-text","212","1126668","0.0-6.0-3.29","4161391","co39325","norming","","","{""guess"":""ink feather""}","","../img/tt/1033tt.jpg","",""
"null","../img/gs/1033gs.jpg","null","reveal","image-keyboard-response","213","1128670","0.0-6.0-4.29","4161391","co39325","norming","","","","","","",""
"null","../img/tt/1033tt.jpg","null","mooney2","image-keyboard-response","214","1130685","0.0-6.0-5.29","4161391","co39325","norming","","","","","","",""
"2115.4000000096858","","","post_reveal_questions","survey-likert","215","1132803","0.0-6.0-6.29","4161391","co39325","norming","","","{""aha"":6}","[0]","../img/tt/1033tt.jpg","",""
"null","<div style=""font-size:60px;""> </div>","null","fixation","html-keyboard-response","216","1133010","0.0-6.0-0.30","4161391","co39325","norming","","","","","","",""
"null","../img/tt/1196tt.jpg","null","mooney1","image-keyboard-response","217","1136026","0.0-6.0-1.30","4161391","co39325","norming","","","","","","",""
"4406.115000019781","","","post_mooney1_questions","survey-likert","218","1140436","0.0-6.0-2.30","4161391","co39325","norming","","","{""curiosity"":4,""confidence"":3}","[0,1]","../img/tt/1196tt.jpg","",""
"2809.9050000309944","","","recognition","survey-text","219","1143251","0.0-6.0-3.30","4161391","co39325","norming","","","{""guess"":""cheerleaders""}","","../img/tt/1196tt.jpg","",""
"null","../img/gs/1196gs.jpg","null","reveal","image-keyboard-response","220","1145260","0.0-6.0-4.30","4161391","co39325","norming","","","","","","",""
"null","../img/tt/1196tt.jpg","null","mooney2","image-keyboard-response","221","1147262","0.0-6.0-5.30","4161391","co39325","norming","","","","","","",""
"2262.6649999292567","","","post_reveal_questions","survey-likert","222","1149527","0.0-6.0-6.30","4161391","co39325","norming","","","{""aha"":1}","[0]","../img/tt/1196tt.jpg","",""
"null","<div style=""font-size:60px;""> </div>","null","fixation","html-keyboard-response","223","1149741","0.0-6.0-0.31","4161391","co39325","norming","","","","","","",""
"null","../img/tt/126tt.jpg","null","mooney1","image-keyboard-response","224","1152745","0.0-6.0-1.31","4161391","co39325","norming","","","","","","",""
"4471.490000025369","","","post_mooney1_questions","survey-likert","225","1157218","0.0-6.0-2.31","4161391","co39325","norming","","","{""curiosity"":1,""confidence"":5}","[0,1]","../img/tt/126tt.jpg","",""
"1470.7449999405071","","","recognition","survey-text","226","1158695","0.0-6.0-3.31","4161391","co39325","norming","","","{""guess"":""cow""}","","../img/tt/126tt.jpg","",""
"null","../img/gs/126gs.jpg","null","reveal","image-keyboard-response","227","1160697","0.0-6.0-4.31","4161391","co39325","norming","","","","","","",""
"null","../img/tt/126tt.jpg","null","mooney2","image-keyboard-response","228","1162703","0.0-6.0-5.31","4161391","co39325","norming","","","","","","",""
"2822.039999999106","","","post_reveal_questions","survey-likert","229","1165528","0.0-6.0-6.31","4161391","co39325","norming","","","{""aha"":0}","[0]","../img/tt/126tt.jpg","",""
"null","<div style=""font-size:60px;""> </div>","null","fixation","html-keyboard-response","230","1165732","0.0-6.0-0.32","4161391","co39325","norming","","","","","","",""
"null","../img/tt/1066tt.jpg","null","mooney1","image-keyboard-response","231","1168736","0.0-6.0-1.32","4161391","co39325","norming","","","","","","",""
"6115.639999974519","","","post_mooney1_questions","survey-likert","232","1174854","0.0-6.0-2.32","4161391","co39325","norming","","","{""curiosity"":3,""confidence"":4}","[0,1]","../img/tt/1066tt.jpg","",""
"1901.2250000378117","","","recognition","survey-text","233","1176761","0.0-6.0-3.32","4161391","co39325","norming","","","{""guess"":""truck""}","","../img/tt/1066tt.jpg","",""
"null","../img/gs/1066gs.jpg","null","reveal","image-keyboard-response","234","1178772","0.0-6.0-4.32","4161391","co39325","norming","","","","","","",""
"null","../img/tt/1066tt.jpg","null","mooney2","image-keyboard-response","235","1180777","0.0-6.0-5.32","4161391","co39325","norming","","","","","","",""
"2773.7200000556186","","","post_reveal_questions","survey-likert","236","1183553","0.0-6.0-6.32","4161391","co39325","norming","","","{""aha"":1}","[0]","../img/tt/1066tt.jpg","",""
"null","<div style=""font-size:60px;""> </div>","null","fixation","html-keyboard-response","237","1183770","0.0-6.0-0.33","4161391","co39325","norming","","","","","","",""
"null","../img/tt/584tt.jpg","null","mooney1","image-keyboard-response","238","1186779","0.0-6.0-1.33","4161391","co39325","norming","","","","","","",""
"16238.844999927096","","","post_mooney1_questions","survey-likert","239","1203021","0.0-6.0-2.33","4161391","co39325","norming","","","{""curiosity"":4,""confidence"":3}","[0,1]","../img/tt/584tt.jpg","",""
"1617.5100000109524","","","recognition","survey-text","240","1204643","0.0-6.0-3.33","4161391","co39325","norming","","","{""guess"":""tools""}","","../img/tt/584tt.jpg","",""
"null","../img/gs/584gs.jpg","null","reveal","image-keyboard-response","241","1206647","0.0-6.0-4.33","4161391","co39325","norming","","","","","","",""
"null","../img/tt/584tt.jpg","null","mooney2","image-keyboard-response","242","1208653","0.0-6.0-5.33","4161391","co39325","norming","","","","","","",""
"2093.2150000007823","","","post_reveal_questions","survey-likert","243","1210749","0.0-6.0-6.33","4161391","co39325","norming","","","{""aha"":2}","[0]","../img/tt/584tt.jpg","",""
"null","<div style=""font-size:60px;""> </div>","null","fixation","html-keyboard-response","244","1210953","0.0-6.0-0.34","4161391","co39325","norming","","","","","","",""
"null","../img/tt/121tt.jpg","null","mooney1","image-keyboard-response","245","1213964","0.0-6.0-1.34","4161391","co39325","norming","","","","","","",""
"7892.34999998007","","","post_mooney1_questions","survey-likert","246","1221861","0.0-6.0-2.34","4161391","co39325","norming","","","{""curiosity"":5,""confidence"":0}","[0,1]","../img/tt/121tt.jpg","",""
"879.8899999819696","","","recognition","survey-text","247","1222746","0.0-6.0-3.34","4161391","co39325","norming","","","{""guess"":""""}","","../img/tt/121tt.jpg","",""
"null","../img/gs/121gs.jpg","null","reveal","image-keyboard-response","248","1224757","0.0-6.0-4.34","4161391","co39325","norming","","","","","","",""
"null","../img/tt/121tt.jpg","null","mooney2","image-keyboard-response","249","1226761","0.0-6.0-5.34","4161391","co39325","norming","","","","","","",""
"3982.6950000133365","","","post_reveal_questions","survey-likert","250","1230746","0.0-6.0-6.34","4161391","co39325","norming","","","{""aha"":4}","[0]","../img/tt/121tt.jpg","",""
"null","<div style=""font-size:60px;""> </div>","null","fixation","html-keyboard-response","251","1230948","0.0-6.0-0.35","4161391","co39325","norming","","","","","","",""
"null","../img/tt/140tt.jpg","null","mooney1","image-keyboard-response","252","1233956","0.0-6.0-1.35","4161391","co39325","norming","","","","","","",""
"4603.635000064969","","","post_mooney1_questions","survey-likert","253","1238563","0.0-6.0-2.35","4161391","co39325","norming","","","{""curiosity"":5,""confidence"":2}","[0,1]","../img/tt/140tt.jpg","",""
"2355.074999970384","","","recognition","survey-text","254","1240924","0.0-6.0-3.35","4161391","co39325","norming","","","{""guess"":""bird""}","","../img/tt/140tt.jpg","",""
"null","../img/gs/140gs.jpg","null","reveal","image-keyboard-response","255","1242937","0.0-6.0-4.35","4161391","co39325","norming","","","","","","",""
"null","../img/tt/140tt.jpg","null","mooney2","image-keyboard-response","256","1244939","0.0-6.0-5.35","4161391","co39325","norming","","","","","","",""
"2788.9150000410154","","","post_reveal_questions","survey-likert","257","1247731","0.0-6.0-6.35","4161391","co39325","norming","","","{""aha"":5}","[0]","../img/tt/140tt.jpg","",""
"null","<div style=""font-size:60px;""> </div>","null","fixation","html-keyboard-response","258","1247935","0.0-6.0-0.36","4161391","co39325","norming","","","","","","",""
"null","../img/tt/064tt.jpg","null","mooney1","image-keyboard-response","259","1250941","0.0-6.0-1.36","4161391","co39325","norming","","","","","","",""
"5839.815000072122","","","post_mooney1_questions","survey-likert","260","1256784","0.0-6.0-2.36","4161391","co39325","norming","","","{""curiosity"":3,""confidence"":1}","[0,1]","../img/tt/064tt.jpg","",""
"584.2600000323728","","","recognition","survey-text","261","1257373","0.0-6.0-3.36","4161391","co39325","norming","","","{""guess"":""""}","","../img/tt/064tt.jpg","",""
"null","../img/gs/064gs.jpg","null","reveal","image-keyboard-response","262","1259379","0.0-6.0-4.36","4161391","co39325","norming","","","","","","",""
"null","../img/tt/064tt.jpg","null","mooney2","image-keyboard-response","263","1261393","0.0-6.0-5.36","4161391","co39325","norming","","","","","","",""
"2147.289999993518","","","post_reveal_questions","survey-likert","264","1263543","0.0-6.0-6.36","4161391","co39325","norming","","","{""aha"":3}","[0]","../img/tt/064tt.jpg","",""
"null","<div style=""font-size:60px;""> </div>","null","fixation","html-keyboard-response","265","1263755","0.0-6.0-0.37","4161391","co39325","norming","","","","","","",""
"null","../img/tt/1260tt.jpg","null","mooney1","image-keyboard-response","266","1266761","0.0-6.0-1.37","4161391","co39325","norming","","","","","","",""
"6085.755000007339","","","post_mooney1_questions","survey-likert","267","1272850","0.0-6.0-2.37","4161391","co39325","norming","","","{""curiosity"":4,""confidence"":3}","[0,1]","../img/tt/1260tt.jpg","",""
"1876.7350000562146","","","recognition","survey-text","268","1274730","0.0-6.0-3.37","4161391","co39325","norming","","","{""guess"":""plant""}","","../img/tt/1260tt.jpg","",""
"null","../img/gs/1260gs.jpg","null","reveal","image-keyboard-response","269","1276734","0.0-6.0-4.37","4161391","co39325","norming","","","","","","",""
"null","../img/tt/1260tt.jpg","null","mooney2","image-keyboard-response","270","1278750","0.0-6.0-5.37","4161391","co39325","norming","","","","","","",""
"3321.624999982305","","","post_reveal_questions","survey-likert","271","1282075","0.0-6.0-6.37","4161391","co39325","norming","","","{""aha"":4}","[0]","../img/tt/1260tt.jpg","",""
"null","<div style=""font-size:60px;""> </div>","null","fixation","html-keyboard-response","272","1282292","0.0-6.0-0.38","4161391","co39325","norming","","","","","","",""
"null","../img/tt/1096tt.jpg","null","mooney1","image-keyboard-response","273","1285303","0.0-6.0-1.38","4161391","co39325","norming","","","","","","",""
"6187.975000008009","","","post_mooney1_questions","survey-likert","274","1291495","0.0-6.0-2.38","4161391","co39325","norming","","","{""curiosity"":2,""confidence"":0}","[0,1]","../img/tt/1096tt.jpg","",""
"691.1149999359623","","","recognition","survey-text","275","1292192","0.0-6.0-3.38","4161391","co39325","norming","","","{""guess"":""""}","","../img/tt/1096tt.jpg","",""
"null","../img/gs/1096gs.jpg","null","reveal","image-keyboard-response","276","1294197","0.0-6.0-4.38","4161391","co39325","norming","","","","","","",""
"null","../img/tt/1096tt.jpg","null","mooney2","image-keyboard-response","277","1296209","0.0-6.0-5.38","4161391","co39325","norming","","","","","","",""
"5700.5199999548495","","","post_reveal_questions","survey-likert","278","1301912","0.0-6.0-6.38","4161391","co39325","norming","","","{""aha"":2}","[0]","../img/tt/1096tt.jpg","",""
"null","<div style=""font-size:60px;""> </div>","null","fixation","html-keyboard-response","279","1302116","0.0-6.0-0.39","4161391","co39325","norming","","","","","","",""
"null","../img/tt/329tt.jpg","null","mooney1","image-keyboard-response","280","1305130","0.0-6.0-1.39","4161391","co39325","norming","","","","","","",""
"6293.859999976121","","","post_mooney1_questions","survey-likert","281","1311428","0.0-6.0-2.39","4161391","co39325","norming","","","{""curiosity"":4,""confidence"":1}","[0,1]","../img/tt/329tt.jpg","",""
"2751.3749999925494","","","recognition","survey-text","282","1314184","0.0-6.0-3.39","4161391","co39325","norming","","","{""guess"":""object""}","","../img/tt/329tt.jpg","",""
"null","../img/gs/329gs.jpg","null","reveal","image-keyboard-response","283","1316194","0.0-6.0-4.39","4161391","co39325","norming","","","","","","",""
"null","../img/tt/329tt.jpg","null","mooney2","image-keyboard-response","284","1318206","0.0-6.0-5.39","4161391","co39325","norming","","","","","","",""
"2166.939999908209","","","post_reveal_questions","survey-likert","285","1320377","0.0-6.0-6.39","4161391","co39325","norming","","","{""aha"":5}","[0]","../img/tt/329tt.jpg","",""
"null","<div style=""font-size:60px;""> </div>","null","fixation","html-keyboard-response","286","1320588","0.0-6.0-0.40","4161391","co39325","norming","","","","","","",""
"null","../img/tt/418tt.jpg","null","mooney1","image-keyboard-response","287","1323609","0.0-6.0-1.40","4161391","co39325","norming","","","","","","",""
"6275.5499999038875","","","post_mooney1_questions","survey-likert","288","1329887","0.0-6.0-2.40","4161391","co39325","norming","","","{""curiosity"":1,""confidence"":5}","[0,1]","../img/tt/418tt.jpg","",""
"2443.1550001027063","","","recognition","survey-text","289","1332336","0.0-6.0-3.40","4161391","co39325","norming","","","{""guess"":""blueberry""}","","../img/tt/418tt.jpg","",""
"null","../img/gs/418gs.jpg","null","reveal","image-keyboard-response","290","1334338","0.0-6.0-4.40","4161391","co39325","norming","","","","","","",""
"null","../img/tt/418tt.jpg","null","mooney2","image-keyboard-response","291","1336344","0.0-6.0-5.40","4161391","co39325","norming","","","","","","",""
"4147.364999982528","","","post_reveal_questions","survey-likert","292","1340495","0.0-6.0-6.40","4161391","co39325","norming","","","{""aha"":4}","[0]","../img/tt/418tt.jpg","",""
"null","<div style=""font-size:60px;""> </div>","null","fixation","html-keyboard-response","293","1340707","0.0-6.0-0.41","4161391","co39325","norming","","","","","","",""
"null","../img/tt/1254tt.jpg","null","mooney1","image-keyboard-response","294","1343715","0.0-6.0-1.41","4161391","co39325","norming","","","","","","",""
"4830.915000056848","","","post_mooney1_questions","survey-likert","295","1348550","0.0-6.0-2.41","4161391","co39325","norming","","","{""curiosity"":4,""confidence"":0}","[0,1]","../img/tt/1254tt.jpg","",""
"1648.325000074692","","","recognition","survey-text","296","1350203","0.0-6.0-3.41","4161391","co39325","norming","","","{""guess"":""people""}","","../img/tt/1254tt.jpg","",""
"null","../img/gs/1254gs.jpg","null","reveal","image-keyboard-response","297","1352207","0.0-6.0-4.41","4161391","co39325","norming","","","","","","",""
"null","../img/tt/1254tt.jpg","null","mooney2","image-keyboard-response","298","1354227","0.0-6.0-5.41","4161391","co39325","norming","","","","","","",""
"6178.799999994226","","","post_reveal_questions","survey-likert","299","1360408","0.0-6.0-6.41","4161391","co39325","norming","","","{""aha"":2}","[0]","../img/tt/1254tt.jpg","",""
"null","<div style=""font-size:60px;""> </div>","null","fixation","html-keyboard-response","300","1360618","0.0-6.0-0.42","4161391","co39325","norming","","","","","","",""
"null","../img/tt/001tt.jpg","null","mooney1","image-keyboard-response","301","1363630","0.0-6.0-1.42","4161391","co39325","norming","","","","","","",""
"6391.000000061467","","","post_mooney1_questions","survey-likert","302","1370023","0.0-6.0-2.42","4161391","co39325","norming","","","{""curiosity"":3,""confidence"":3}","[0,1]","../img/tt/001tt.jpg","",""
"1506.4949999796227","","","recognition","survey-text","303","1371533","0.0-6.0-3.42","4161391","co39325","norming","","","{""guess"":""dog""}","","../img/tt/001tt.jpg","",""
"null","../img/gs/001gs.jpg","null","reveal","image-keyboard-response","304","1373537","0.0-6.0-4.42","4161391","co39325","norming","","","","","","",""
"null","../img/tt/001tt.jpg","null","mooney2","image-keyboard-response","305","1375554","0.0-6.0-5.42","4161391","co39325","norming","","","","","","",""
"1030845.7599999383","","","post_reveal_questions","survey-likert","306","2406403","0.0-6.0-6.42","4161391","co39325","norming","","","{""aha"":3}","[0]","../img/tt/001tt.jpg","",""
"null","<div style=""font-size:60px;""> </div>","null","fixation","html-keyboard-response","307","2406609","0.0-6.0-0.43","4161391","co39325","norming","","","","","","",""
"null","../img/tt/477tt.jpg","null","mooney1","image-keyboard-response","308","2409614","0.0-6.0-1.43","4161391","co39325","norming","","","","","","",""
"5920.049999956973","","","post_mooney1_questions","survey-likert","309","2415539","0.0-6.0-2.43","4161391","co39325","norming","","","{""curiosity"":2,""confidence"":4}","[0,1]","../img/tt/477tt.jpg","",""
"6328.47499998752","","","recognition","survey-text","310","2421872","0.0-6.0-3.43","4161391","co39325","norming","","","{""guess"":""bowl fish""}","","../img/tt/477tt.jpg","",""
"null","../img/gs/477gs.jpg","null","reveal","image-keyboard-response","311","2423885","0.0-6.0-4.43","4161391","co39325","norming","","","","","","",""
"null","../img/tt/477tt.jpg","null","mooney2","image-keyboard-response","312","2425887","0.0-6.0-5.43","4161391","co39325","norming","","","","","","",""
"4595.164999947883","","","post_reveal_questions","survey-likert","313","2430486","0.0-6.0-6.43","4161391","co39325","norming","","","{""aha"":5}","[0]","../img/tt/477tt.jpg","",""
"null","<div style=""font-size:60px;""> </div>","null","fixation","html-keyboard-response","314","2430689","0.0-6.0-0.44","4161391","co39325","norming","","","","","","",""
"null","../img/tt/108tt.jpg","null","mooney1","image-keyboard-response","315","2433695","0.0-6.0-1.44","4161391","co39325","norming","","","","","","",""
"4822.609999915585","","","post_mooney1_questions","survey-likert","316","2438522","0.0-6.0-2.44","4161391","co39325","norming","","","{""curiosity"":2,""confidence"":4}","[0,1]","../img/tt/108tt.jpg","",""
"2922.469999990426","","","recognition","survey-text","317","2441450","0.0-6.0-3.44","4161391","co39325","norming","","","{""guess"":""monkey""}","","../img/tt/108tt.jpg","",""
"null","../img/gs/108gs.jpg","null","reveal","image-keyboard-response","318","2443467","0.0-6.0-4.44","4161391","co39325","norming","","","","","","",""
"null","../img/tt/108tt.jpg","null","mooney2","image-keyboard-response","319","2445482","0.0-6.0-5.44","4161391","co39325","norming","","","","","","",""
"3243.5500000137836","","","post_reveal_questions","survey-likert","320","2448728","0.0-6.0-6.44","4161391","co39325","norming","","","{""aha"":3}","[0]","../img/tt/108tt.jpg","",""
"null","<div style=""font-size:60px;""> </div>","null","fixation","html-keyboard-response","321","2448944","0.0-6.0-0.45","4161391","co39325","norming","","","","","","",""
"null","../img/tt/1307tt.jpg","null","mooney1","image-keyboard-response","322","2451956","0.0-6.0-1.45","4161391","co39325","norming","","","","","","",""
"14003.254999988712","","","post_mooney1_questions","survey-likert","323","2465962","0.0-6.0-2.45","4161391","co39325","norming","","","{""curiosity"":4,""confidence"":4}","[0,1]","../img/tt/1307tt.jpg","",""
"3393.750000046566","","","recognition","survey-text","324","2469360","0.0-6.0-3.45","4161391","co39325","norming","","","{""guess"":""wheel""}","","../img/tt/1307tt.jpg","",""
"null","../img/gs/1307gs.jpg","null","reveal","image-keyboard-response","325","2471365","0.0-6.0-4.45","4161391","co39325","norming","","","","","","",""
"null","../img/tt/1307tt.jpg","null","mooney2","image-keyboard-response","326","2473368","0.0-6.0-5.45","4161391","co39325","norming","","","","","","",""
"2904.8799999291077","","","post_reveal_questions","survey-likert","327","2476275","0.0-6.0-6.45","4161391","co39325","norming","","","{""aha"":3}","[0]","../img/tt/1307tt.jpg","",""
"null","<div style=""font-size:60px;""> </div>","null","fixation","html-keyboard-response","328","2476491","0.0-6.0-0.46","4161391","co39325","norming","","","","","","",""
"null","../img/tt/222tt.jpg","null","mooney1","image-keyboard-response","329","2479503","0.0-6.0-1.46","4161391","co39325","norming","","","","","","",""
"6971.879999968223","","","post_mooney1_questions","survey-likert","330","2486479","0.0-6.0-2.46","4161391","co39325","norming","","","{""curiosity"":3,""confidence"":4}","[0,1]","../img/tt/222tt.jpg","",""
"2574.8400000156835","","","recognition","survey-text","331","2489058","0.0-6.0-3.46","4161391","co39325","norming","","","{""guess"":""train""}","","../img/tt/222tt.jpg","",""
"null","../img/gs/222gs.jpg","null","reveal","image-keyboard-response","332","2491063","0.0-6.0-4.46","4161391","co39325","norming","","","","","","",""
"null","../img/tt/222tt.jpg","null","mooney2","image-keyboard-response","333","2493067","0.0-6.0-5.46","4161391","co39325","norming","","","","","","",""
"6584.894999978133","","","post_reveal_questions","survey-likert","334","2499655","0.0-6.0-6.46","4161391","co39325","norming","","","{""aha"":5}","[0]","../img/tt/222tt.jpg","",""
"null","<div style=""font-size:60px;""> </div>","null","fixation","html-keyboard-response","335","2499869","0.0-6.0-0.47","4161391","co39325","norming","","","","","","",""
"null","../img/tt/590tt.jpg","null","mooney1","image-keyboard-response","336","2502884","0.0-6.0-1.47","4161391","co39325","norming","","","","","","",""
"5580.345000023954","","","post_mooney1_questions","survey-likert","337","2508467","0.0-6.0-2.47","4161391","co39325","norming","","","{""curiosity"":5,""confidence"":0}","[0,1]","../img/tt/590tt.jpg","",""
"1010.1049999939278","","","recognition","survey-text","338","2509482","0.0-6.0-3.47","4161391","co39325","norming","","","{""guess"":""""}","","../img/tt/590tt.jpg","",""
"null","../img/gs/590gs.jpg","null","reveal","image-keyboard-response","339","2511496","0.0-6.0-4.47","4161391","co39325","norming","","","","","","",""
"null","../img/tt/590tt.jpg","null","mooney2","image-keyboard-response","340","2513499","0.0-6.0-5.47","4161391","co39325","norming","","","","","","",""
"2607.1049999445677","","","post_reveal_questions","survey-likert","341","2516109","0.0-6.0-6.47","4161391","co39325","norming","","","{""aha"":2}","[0]","../img/tt/590tt.jpg","",""
"null","<div style=""font-size:60px;""> </div>","null","fixation","html-keyboard-response","342","2516318","0.0-6.0-0.48","4161391","co39325","norming","","","","","","",""
"null","../img/tt/1272tt.jpg","null","mooney1","image-keyboard-response","343","2519331","0.0-6.0-1.48","4161391","co39325","norming","","","","","","",""
"6331.684999982826","","","post_mooney1_questions","survey-likert","344","2525666","0.0-6.0-2.48","4161391","co39325","norming","","","{""curiosity"":4,""confidence"":4}","[0,1]","../img/tt/1272tt.jpg","",""
"3243.144999956712","","","recognition","survey-text","345","2528913","0.0-6.0-3.48","4161391","co39325","norming","","","{""guess"":""player""}","","../img/tt/1272tt.jpg","",""
"null","../img/gs/1272gs.jpg","null","reveal","image-keyboard-response","346","2530917","0.0-6.0-4.48","4161391","co39325","norming","","","","","","",""
"null","../img/tt/1272tt.jpg","null","mooney2","image-keyboard-response","347","2532921","0.0-6.0-5.48","4161391","co39325","norming","","","","","","",""
"3088.634999934584","","","post_reveal_questions","survey-likert","348","2536011","0.0-6.0-6.48","4161391","co39325","norming","","","{""aha"":3}","[0]","../img/tt/1272tt.jpg","",""
"null","<div style=""font-size:60px;""> </div>","null","fixation","html-keyboard-response","349","2536220","0.0-6.0-0.49","4161391","co39325","norming","","","","","","",""
"null","../img/tt/1181tt.jpg","null","mooney1","image-keyboard-response","350","2539233","0.0-6.0-1.49","4161391","co39325","norming","","","","","","",""
"9029.649999924004","","","post_mooney1_questions","survey-likert","351","2548266","0.0-6.0-2.49","4161391","co39325","norming","","","{""curiosity"":1,""confidence"":4}","[0,1]","../img/tt/1181tt.jpg","",""
"4691.5850000223145","","","recognition","survey-text","352","2552962","0.0-6.0-3.49","4161391","co39325","norming","","","{""guess"":""people""}","","../img/tt/1181tt.jpg","",""
"null","../img/gs/1181gs.jpg","null","reveal","image-keyboard-response","353","2554974","0.0-6.0-4.49","4161391","co39325","norming","","","","","","",""
"null","../img/tt/1181tt.jpg","null","mooney2","image-keyboard-response","354","2556988","0.0-6.0-5.49","4161391","co39325","norming","","","","","","",""
"2704.5299999881536","","","post_reveal_questions","survey-likert","355","2559695","0.0-6.0-6.49","4161391","co39325","norming","","","{""aha"":4}","[0]","../img/tt/1181tt.jpg","",""
"null","<div style=""font-size:60px;""> </div>","null","fixation","html-keyboard-response","356","2559913","0.0-6.0-0.50","4161391","co39325","norming","","","","","","",""
"null","../img/tt/1171tt.jpg","null","mooney1","image-keyboard-response","357","2562918","0.0-6.0-1.50","4161391","co39325","norming","","","","","","",""
"5095.100000035018","","","post_mooney1_questions","survey-likert","358","2568016","0.0-6.0-2.50","4161391","co39325","norming","","","{""curiosity"":2,""confidence"":5}","[0,1]","../img/tt/1171tt.jpg","",""
"3001.99000001885","","","recognition","survey-text","359","2571022","0.0-6.0-3.50","4161391","co39325","norming","","","{""guess"":""woman""}","","../img/tt/1171tt.jpg","",""
"null","../img/gs/1171gs.jpg","null","reveal","image-keyboard-response","360","2573025","0.0-6.0-4.50","4161391","co39325","norming","","","","","","",""
"null","../img/tt/1171tt.jpg","null","mooney2","image-keyboard-response","361","2575028","0.0-6.0-5.50","4161391","co39325","norming","","","","","","",""
"3574.9599999981","","","post_reveal_questions","survey-likert","362","2578606","0.0-6.0-6.50","4161391","co39325","norming","","","{""aha"":1}","[0]","../img/tt/1171tt.jpg","",""
"null","<div style=""font-size:60px;""> </div>","null","fixation","html-keyboard-response","363","2578817","0.0-6.0-0.51","4161391","co39325","norming","","","","","","",""
"null","../img/tt/481tt.jpg","null","mooney1","image-keyboard-response","364","2581824","0.0-6.0-1.51","4161391","co39325","norming","","","","","","",""
"6364.120000042021","","","post_mooney1_questions","survey-likert","365","2588192","0.0-6.0-2.51","4161391","co39325","norming","","","{""curiosity"":3,""confidence"":1}","[0,1]","../img/tt/481tt.jpg","",""
"1515.955000068061","","","recognition","survey-text","366","2589712","0.0-6.0-3.51","4161391","co39325","norming","","","{""guess"":""""}","","../img/tt/481tt.jpg","",""
"null","../img/gs/481gs.jpg","null","reveal","image-keyboard-response","367","2591728","0.0-6.0-4.51","4161391","co39325","norming","","","","","","",""
"null","../img/tt/481tt.jpg","null","mooney2","image-keyboard-response","368","2593731","0.0-6.0-5.51","4161391","co39325","norming","","","","","","",""
"4435.934999957681","","","post_reveal_questions","survey-likert","369","2598169","0.0-6.0-6.51","4161391","co39325","norming","","","{""aha"":4}","[0]","../img/tt/481tt.jpg","",""
"null","<div style=""font-size:60px;""> </div>","null","fixation","html-keyboard-response","370","2598381","0.0-6.0-0.52","4161391","co39325","norming","","","","","","",""
"null","../img/tt/1087tt.jpg","null","mooney1","image-keyboard-response","371","2601385","0.0-6.0-1.52","4161391","co39325","norming","","","","","","",""
"5074.309999938123","","","post_mooney1_questions","survey-likert","372","2606463","0.0-6.0-2.52","4161391","co39325","norming","","","{""curiosity"":4,""confidence"":5}","[0,1]","../img/tt/1087tt.jpg","",""
"1658.1999999471009","","","recognition","survey-text","373","2608127","0.0-6.0-3.52","4161391","co39325","norming","","","{""guess"":""animals""}","","../img/tt/1087tt.jpg","",""
"null","../img/gs/1087gs.jpg","null","reveal","image-keyboard-response","374","2610138","0.0-6.0-4.52","4161391","co39325","norming","","","","","","",""
"null","../img/tt/1087tt.jpg","null","mooney2","image-keyboard-response","375","2612142","0.0-6.0-5.52","4161391","co39325","norming","","","","","","",""
"3651.1149998987094","","","post_reveal_questions","survey-likert","376","2615797","0.0-6.0-6.52","4161391","co39325","norming","","","{""aha"":3}","[0]","../img/tt/1087tt.jpg","",""
"null","<div style=""font-size:60px;""> </div>","null","fixation","html-keyboard-response","377","2616004","0.0-6.0-0.53","4161391","co39325","norming","","","","","","",""
"null","../img/tt/603tt.jpg","null","mooney1","image-keyboard-response","378","2619014","0.0-6.0-1.53","4161391","co39325","norming","","","","","","",""
"5395.309999934398","","","post_mooney1_questions","survey-likert","379","2624413","0.0-6.0-2.53","4161391","co39325","norming","","","{""curiosity"":3,""confidence"":5}","[0,1]","../img/tt/603tt.jpg","",""
"1661.8000000016764","","","recognition","survey-text","380","2626080","0.0-6.0-3.53","4161391","co39325","norming","","","{""guess"":""eyes""}","","../img/tt/603tt.jpg","",""
"null","../img/gs/603gs.jpg","null","reveal","image-keyboard-response","381","2628089","0.0-6.0-4.53","4161391","co39325","norming","","","","","","",""
"null","../img/tt/603tt.jpg","null","mooney2","image-keyboard-response","382","2630106","0.0-6.0-5.53","4161391","co39325","norming","","","","","","",""
"2911.225000047125","","","post_reveal_questions","survey-likert","383","2633020","0.0-6.0-6.53","4161391","co39325","norming","","","{""aha"":2}","[0]","../img/tt/603tt.jpg","",""
"null","<div style=""font-size:60px;""> </div>","null","fixation","html-keyboard-response","384","2633236","0.0-6.0-0.54","4161391","co39325","norming","","","","","","",""
"null","../img/tt/163tt.jpg","null","mooney1","image-keyboard-response","385","2636243","0.0-6.0-1.54","4161391","co39325","norming","","","","","","",""
"5277.604999952018","","","post_mooney1_questions","survey-likert","386","2641524","0.0-6.0-2.54","4161391","co39325","norming","","","{""curiosity"":2,""confidence"":5}","[0,1]","../img/tt/163tt.jpg","",""
"1615.3700000140816","","","recognition","survey-text","387","2643145","0.0-6.0-3.54","4161391","co39325","norming","","","{""guess"":""frog""}","","../img/tt/163tt.jpg","",""
"null","../img/gs/163gs.jpg","null","reveal","image-keyboard-response","388","2645154","0.0-6.0-4.54","4161391","co39325","norming","","","","","","",""
"null","../img/tt/163tt.jpg","null","mooney2","image-keyboard-response","389","2647157","0.0-6.0-5.54","4161391","co39325","norming","","","","","","",""
"3835.480000008829","","","post_reveal_questions","survey-likert","390","2650996","0.0-6.0-6.54","4161391","co39325","norming","","","{""aha"":5}","[0]","../img/tt/163tt.jpg","",""
"null","<div style=""font-size:60px;""> </div>","null","fixation","html-keyboard-response","391","2651211","0.0-6.0-0.55","4161391","co39325","norming","","","","","","",""
"null","../img/tt/1154tt.jpg","null","mooney1","image-keyboard-response","392","2654231","0.0-6.0-1.55","4161391","co39325","norming","","","","","","",""
"7171.540000010282","","","post_mooney1_questions","survey-likert","393","2661407","0.0-6.0-2.55","4161391","co39325","norming","","","{""curiosity"":4,""confidence"":5}","[0,1]","../img/tt/1154tt.jpg","",""
"1897.5149999605492","","","recognition","survey-text","394","2663310","0.0-6.0-3.55","4161391","co39325","norming","","","{""guess"":""kayak""}","","../img/tt/1154tt.jpg","",""
"null","../img/gs/1154gs.jpg","null","reveal","image-keyboard-response","395","2665319","0.0-6.0-4.55","4161391","co39325","norming","","","","","","",""
"null","../img/tt/1154tt.jpg","null","mooney2","image-keyboard-response","396","2667329","0.0-6.0-5.55","4161391","co39325","norming","","","","","","",""
"2538.5950000490993","","","post_reveal_questions","survey-likert","397","2669871","0.0-6.0-6.55","4161391","co39325","norming","","","{""aha"":5}","[0]","../img/tt/1154tt.jpg","",""
"null","<div style=""font-size:60px;""> </div>","null","fixation","html-keyboard-response","398","2670076","0.0-6.0-0.56","4161391","co39325","norming","","","","","","",""
"null","../img/tt/124tt.jpg","null","mooney1","image-keyboard-response","399","2673086","0.0-6.0-1.56","4161391","co39325","norming","","","","","","",""
"8263.329999987036","","","post_mooney1_questions","survey-likert","400","2681354","0.0-6.0-2.56","4161391","co39325","norming","","","{""curiosity"":4,""confidence"":3}","[0,1]","../img/tt/124tt.jpg","",""
"2118.2300000218675","","","recognition","survey-text","401","2683475","0.0-6.0-3.56","4161391","co39325","norming","","","{""guess"":""gorilla""}","","../img/tt/124tt.jpg","",""
"null","../img/gs/124gs.jpg","null","reveal","image-keyboard-response","402","2685490","0.0-6.0-4.56","4161391","co39325","norming","","","","","","",""
"null","../img/tt/124tt.jpg","null","mooney2","image-keyboard-response","403","2687494","0.0-6.0-5.56","4161391","co39325","norming","","","","","","",""
"3016.285000019707","","","post_reveal_questions","survey-likert","404","2690513","0.0-6.0-6.56","4161391","co39325","norming","","","{""aha"":5}","[0]","../img/tt/124tt.jpg","",""
"null","<div style=""font-size:60px;""> </div>","null","fixation","html-keyboard-response","405","2690717","0.0-6.0-0.57","4161391","co39325","norming","","","","","","",""
"null","../img/tt/357tt.jpg","null","mooney1","image-keyboard-response","406","2693720","0.0-6.0-1.57","4161391","co39325","norming","","","","","","",""
"17871.924999984913","","","post_mooney1_questions","survey-likert","407","2711596","0.0-6.0-2.57","4161391","co39325","norming","","","{""curiosity"":2,""confidence"":5}","[0,1]","../img/tt/357tt.jpg","",""
"6834.344999981113","","","recognition","survey-text","408","2718437","0.0-6.0-3.57","4161391","co39325","norming","","","{""guess"":""porcupine""}","","../img/tt/357tt.jpg","",""
"null","../img/gs/357gs.jpg","null","reveal","image-keyboard-response","409","2720449","0.0-6.0-4.57","4161391","co39325","norming","","","","","","",""
"null","../img/tt/357tt.jpg","null","mooney2","image-keyboard-response","410","2722451","0.0-6.0-5.57","4161391","co39325","norming","","","","","","",""
"3410.310000064783","","","post_reveal_questions","survey-likert","411","2725864","0.0-6.0-6.57","4161391","co39325","norming","","","{""aha"":4}","[0]","../img/tt/357tt.jpg","",""
"null","<div style=""font-size:60px;""> </div>","null","fixation","html-keyboard-response","412","2726078","0.0-6.0-0.58","4161391","co39325","norming","","","","","","",""
"null","../img/tt/1070tt.jpg","null","mooney1","image-keyboard-response","413","2729083","0.0-6.0-1.58","4161391","co39325","norming","","","","","","",""
"4126.879999996163","","","post_mooney1_questions","survey-likert","414","2733214","0.0-6.0-2.58","4161391","co39325","norming","","","{""curiosity"":4,""confidence"":4}","[0,1]","../img/tt/1070tt.jpg","",""
"1426.7250000266358","","","recognition","survey-text","415","2734645","0.0-6.0-3.58","4161391","co39325","norming","","","{""guess"":""food""}","","../img/tt/1070tt.jpg","",""
"null","../img/gs/1070gs.jpg","null","reveal","image-keyboard-response","416","2737521","0.0-6.0-4.58","4161391","co39325","norming","","","","","","",""
"null","../img/tt/1070tt.jpg","null","mooney2","image-keyboard-response","417","2740518","0.0-6.0-5.58","4161391","co39325","norming","","","","","","",""
"3527.875000028871","","","post_reveal_questions","survey-likert","418","2744048","0.0-6.0-6.58","4161391","co39325","norming","","","{""aha"":4}","[0]","../img/tt/1070tt.jpg","",""
"null","<div style=""font-size:60px;""> </div>","null","fixation","html-keyboard-response","419","2744265","0.0-6.0-0.59","4161391","co39325","norming","","","","","","",""
"null","../img/tt/1261tt.jpg","null","mooney1","image-keyboard-response","420","2747270","0.0-6.0-1.59","4161391","co39325","norming","","","","","","",""
"5308.0400000326335","","","post_mooney1_questions","survey-likert","421","2752582","0.0-6.0-2.59","4161391","co39325","norming","","","{""curiosity"":2,""confidence"":0}","[0,1]","../img/tt/1261tt.jpg","",""
"1305.5600000079721","","","recognition","survey-text","422","2753894","0.0-6.0-3.59","4161391","co39325","norming","","","{""guess"":""""}","","../img/tt/1261tt.jpg","",""
"null","../img/gs/1261gs.jpg","null","reveal","image-keyboard-response","423","2755901","0.0-6.0-4.59","4161391","co39325","norming","","","","","","",""
"null","../img/tt/1261tt.jpg","null","mooney2","image-keyboard-response","424","2757915","0.0-6.0-5.59","4161391","co39325","norming","","","","","","",""
"2447.2400000086054","","","post_reveal_questions","survey-likert","425","2760365","0.0-6.0-6.59","4161391","co39325","norming","","","{""aha"":3}","[0]","../img/tt/1261tt.jpg","",""
"null","<div style=""font-size:60px;""> </div>","null","fixation","html-keyboard-response","426","2760568","0.0-6.0-0.60","4161391","co39325","norming","","","","","","",""
"null","../img/tt/1255tt.jpg","null","mooney1","image-keyboard-response","427","2763572","0.0-6.0-1.60","4161391","co39325","norming","","","","","","",""
"6187.7250000834465","","","post_mooney1_questions","survey-likert","428","2769764","0.0-6.0-2.60","4161391","co39325","norming","","","{""curiosity"":3,""confidence"":3}","[0,1]","../img/tt/1255tt.jpg","",""
"2191.840000101365","","","recognition","survey-text","429","2771962","0.0-6.0-3.60","4161391","co39325","norming","","","{""guess"":""animal""}","","../img/tt/1255tt.jpg","",""
"null","../img/gs/1255gs.jpg","null","reveal","image-keyboard-response","430","2773976","0.0-6.0-4.60","4161391","co39325","norming","","","","","","",""
"null","../img/tt/1255tt.jpg","null","mooney2","image-keyboard-response","431","2775979","0.0-6.0-5.60","4161391","co39325","norming","","","","","","",""
"2434.4099999871105","","","post_reveal_questions","survey-likert","432","2778417","0.0-6.0-6.60","4161391","co39325","norming","","","{""aha"":3}","[0]","../img/tt/1255tt.jpg","",""
"null","<div style=""font-size:60px;""> </div>","null","fixation","html-keyboard-response","433","2778620","0.0-6.0-0.61","4161391","co39325","norming","","","","","","",""
"null","../img/tt/091tt.jpg","null","mooney1","image-keyboard-response","434","2781638","0.0-6.0-1.61","4161391","co39325","norming","","","","","","",""
"5007.0499998983","","","post_mooney1_questions","survey-likert","435","2786649","0.0-6.0-2.61","4161391","co39325","norming","","","{""curiosity"":4,""confidence"":5}","[0,1]","../img/tt/091tt.jpg","",""
"2497.080000001006","","","recognition","survey-text","436","2789151","0.0-6.0-3.61","4161391","co39325","norming","","","{""guess"":""animal""}","","../img/tt/091tt.jpg","",""
"null","../img/gs/091gs.jpg","null","reveal","image-keyboard-response","437","2791154","0.0-6.0-4.61","4161391","co39325","norming","","","","","","",""
"null","../img/tt/091tt.jpg","null","mooney2","image-keyboard-response","438","2793174","0.0-6.0-5.61","4161391","co39325","norming","","","","","","",""
"2848.8499999511987","","","post_reveal_questions","survey-likert","439","2796026","0.0-6.0-6.61","4161391","co39325","norming","","","{""aha"":2}","[0]","../img/tt/091tt.jpg","",""
"null","<div style=""font-size:60px;""> </div>","null","fixation","html-keyboard-response","440","2796244","0.0-6.0-0.62","4161391","co39325","norming","","","","","","",""
"null","../img/tt/468tt.jpg","null","mooney1","image-keyboard-response","441","2799260","0.0-6.0-1.62","4161391","co39325","norming","","","","","","",""
"3991.4349999744445","","","post_mooney1_questions","survey-likert","442","2803255","0.0-6.0-2.62","4161391","co39325","norming","","","{""curiosity"":6,""confidence"":0}","[0,1]","../img/tt/468tt.jpg","",""
"737.18000005465","","","recognition","survey-text","443","2803995","0.0-6.0-3.62","4161391","co39325","norming","","","{""guess"":""""}","","../img/tt/468tt.jpg","",""
"null","../img/gs/468gs.jpg","null","reveal","image-keyboard-response","444","2805999","0.0-6.0-4.62","4161391","co39325","norming","","","","","","",""
"null","../img/tt/468tt.jpg","null","mooney2","image-keyboard-response","445","2808004","0.0-6.0-5.62","4161391","co39325","norming","","","","","","",""
"2412.419999949634","","","post_reveal_questions","survey-likert","446","2810419","0.0-6.0-6.62","4161391","co39325","norming","","","{""aha"":2}","[0]","../img/tt/468tt.jpg","",""
"null","<div style=""font-size:60px;""> </div>","null","fixation","html-keyboard-response","447","2810637","0.0-6.0-0.63","4161391","co39325","norming","","","","","","",""
"null","../img/tt/1130tt.jpg","null","mooney1","image-keyboard-response","448","2813644","0.0-6.0-1.63","4161391","co39325","norming","","","","","","",""
"4569.890000042506","","","post_mooney1_questions","survey-likert","449","2818218","0.0-6.0-2.63","4161391","co39325","norming","","","{""curiosity"":1,""confidence"":5}","[0,1]","../img/tt/1130tt.jpg","",""
"1749.805000028573","","","recognition","survey-text","450","2819973","0.0-6.0-3.63","4161391","co39325","norming","","","{""guess"":""runner""}","","../img/tt/1130tt.jpg","",""
"null","../img/gs/1130gs.jpg","null","reveal","image-keyboard-response","451","2821983","0.0-6.0-4.63","4161391","co39325","norming","","","","","","",""
"null","../img/tt/1130tt.jpg","null","mooney2","image-keyboard-response","452","2823994","0.0-6.0-5.63","4161391","co39325","norming","","","","","","",""
"1867.3649999545887","","","post_reveal_questions","survey-likert","453","2825864","0.0-6.0-6.63","4161391","co39325","norming","","","{""aha"":1}","[0]","../img/tt/1130tt.jpg","",""
"null","<div style=""font-size:60px;""> </div>","null","fixation","html-keyboard-response","454","2826068","0.0-6.0-0.64","4161391","co39325","norming","","","","","","",""
"null","../img/tt/1227tt.jpg","null","mooney1","image-keyboard-response","455","2829080","0.0-6.0-1.64","4161391","co39325","norming","","","","","","",""
"6895.254999981262","","","post_mooney1_questions","survey-likert","456","2835978","0.0-6.0-2.64","4161391","co39325","norming","","","{""curiosity"":3,""confidence"":5}","[0,1]","../img/tt/1227tt.jpg","",""
"1260.8350000809878","","","recognition","survey-text","457","2837242","0.0-6.0-3.64","4161391","co39325","norming","","","{""guess"":""hen""}","","../img/tt/1227tt.jpg","",""
"null","../img/gs/1227gs.jpg","null","reveal","image-keyboard-response","458","2839247","0.0-6.0-4.64","4161391","co39325","norming","","","","","","",""
"null","../img/tt/1227tt.jpg","null","mooney2","image-keyboard-response","459","2841254","0.0-6.0-5.64","4161391","co39325","norming","","","","","","",""
"3389.199999975972","","","post_reveal_questions","survey-likert","460","2844646","0.0-6.0-6.64","4161391","co39325","norming","","","{""aha"":4}","[0]","../img/tt/1227tt.jpg","",""
"null","<div style=""font-size:60px;""> </div>","null","fixation","html-keyboard-response","461","2844859","0.0-6.0-0.65","4161391","co39325","norming","","","","","","",""
"null","../img/tt/098tt.jpg","null","mooney1","image-keyboard-response","462","2847863","0.0-6.0-1.65","4161391","co39325","norming","","","","","","",""
"4145.490000024438","","","post_mooney1_questions","survey-likert","463","2852012","0.0-6.0-2.65","4161391","co39325","norming","","","{""curiosity"":1,""confidence"":1}","[0,1]","../img/tt/098tt.jpg","",""
"681.8249999778345","","","recognition","survey-text","464","2852700","0.0-6.0-3.65","4161391","co39325","norming","","","{""guess"":""""}","","../img/tt/098tt.jpg","",""
"null","../img/gs/098gs.jpg","null","reveal","image-keyboard-response","465","2854706","0.0-6.0-4.65","4161391","co39325","norming","","","","","","",""
"null","../img/tt/098tt.jpg","null","mooney2","image-keyboard-response","466","2856711","0.0-6.0-5.65","4161391","co39325","norming","","","","","","",""
"2792.9699999513105","","","post_reveal_questions","survey-likert","467","2859508","0.0-6.0-6.65","4161391","co39325","norming","","","{""aha"":3}","[0]","../img/tt/098tt.jpg","",""
"null","<div style=""font-size:60px;""> </div>","null","fixation","html-keyboard-response","468","2859715","0.0-6.0-0.66","4161391","co39325","norming","","","","","","",""
"null","../img/tt/060tt.jpg","null","mooney1","image-keyboard-response","469","2862732","0.0-6.0-1.66","4161391","co39325","norming","","","","","","",""
"6787.10499999579","","","post_mooney1_questions","survey-likert","470","2869522","0.0-6.0-2.66","4161391","co39325","norming","","","{""curiosity"":3,""confidence"":3}","[0,1]","../img/tt/060tt.jpg","",""
"2205.985000007786","","","recognition","survey-text","471","2871734","0.0-6.0-3.66","4161391","co39325","norming","","","{""guess"":""mushroom""}","","../img/tt/060tt.jpg","",""
"null","../img/gs/060gs.jpg","null","reveal","image-keyboard-response","472","2873746","0.0-6.0-4.66","4161391","co39325","norming","","","","","","",""
"null","../img/tt/060tt.jpg","null","mooney2","image-keyboard-response","473","2875750","0.0-6.0-5.66","4161391","co39325","norming","","","","","","",""
"3634.84499999322","","","post_reveal_questions","survey-likert","474","2879389","0.0-6.0-6.66","4161391","co39325","norming","","","{""aha"":4}","[0]","../img/tt/060tt.jpg","",""
"null","<div style=""font-size:60px;""> </div>","null","fixation","html-keyboard-response","475","2879592","0.0-6.0-0.67","4161391","co39325","norming","","","","","","",""
"null","../img/tt/111tt.jpg","null","mooney1","image-keyboard-response","476","2882596","0.0-6.0-1.67","4161391","co39325","norming","","","","","","",""
"8637.644999893382","","","post_mooney1_questions","survey-likert","477","2891237","0.0-6.0-2.67","4161391","co39325","norming","","","{""curiosity"":1,""confidence"":5}","[0,1]","../img/tt/111tt.jpg","",""
"5738.000000012107","","","recognition","survey-text","478","2896980","0.0-6.0-3.67","4161391","co39325","norming","","","{""guess"":""shower nozzle""}","","../img/tt/111tt.jpg","",""
"null","../img/gs/111gs.jpg","null","reveal","image-keyboard-response","479","2898982","0.0-6.0-4.67","4161391","co39325","norming","","","","","","",""
"null","../img/tt/111tt.jpg","null","mooney2","image-keyboard-response","480","2900987","0.0-6.0-5.67","4161391","co39325","norming","","","","","","",""
"3448.495000018738","","","post_reveal_questions","survey-likert","481","2904439","0.0-6.0-6.67","4161391","co39325","norming","","","{""aha"":0}","[0]","../img/tt/111tt.jpg","",""
"null","<div style=""font-size:60px;""> </div>","null","fixation","html-keyboard-response","482","2904657","0.0-6.0-0.68","4161391","co39325","norming","","","","","","",""
"null","../img/tt/1363tt.jpg","null","mooney1","image-keyboard-response","483","2907671","0.0-6.0-1.68","4161391","co39325","norming","","","","","","",""
"4686.479999916628","","","post_mooney1_questions","survey-likert","484","2912362","0.0-6.0-2.68","4161391","co39325","norming","","","{""curiosity"":4,""confidence"":3}","[0,1]","../img/tt/1363tt.jpg","",""
"3734.609999926761","","","recognition","survey-text","485","2916101","0.0-6.0-3.68","4161391","co39325","norming","","","{""guess"":""pouring something""}","","../img/tt/1363tt.jpg","",""
"null","../img/gs/1363gs.jpg","null","reveal","image-keyboard-response","486","2918111","0.0-6.0-4.68","4161391","co39325","norming","","","","","","",""
"null","../img/tt/1363tt.jpg","null","mooney2","image-keyboard-response","487","2920114","0.0-6.0-5.68","4161391","co39325","norming","","","","","","",""
"4714.96000001207","","","post_reveal_questions","survey-likert","488","2924832","0.0-6.0-6.68","4161391","co39325","norming","","","{""aha"":5}","[0]","../img/tt/1363tt.jpg","",""
"null","<div style=""font-size:60px;""> </div>","null","fixation","html-keyboard-response","489","2925038","0.0-6.0-0.69","4161391","co39325","norming","","","","","","",""
"null","../img/tt/1142tt.jpg","null","mooney1","image-keyboard-response","490","2928042","0.0-6.0-1.69","4161391","co39325","norming","","","","","","",""
"5168.650000006892","","","post_mooney1_questions","survey-likert","491","2933214","0.0-6.0-2.69","4161391","co39325","norming","","","{""curiosity"":0,""confidence"":5}","[0,1]","../img/tt/1142tt.jpg","",""
"4752.104999963194","","","recognition","survey-text","492","2937972","0.0-6.0-3.69","4161391","co39325","norming","","","{""guess"":""high jump athlete""}","","../img/tt/1142tt.jpg","",""
"null","../img/gs/1142gs.jpg","null","reveal","image-keyboard-response","493","2939975","0.0-6.0-4.69","4161391","co39325","norming","","","","","","",""
"null","../img/tt/1142tt.jpg","null","mooney2","image-keyboard-response","494","2941987","0.0-6.0-5.69","4161391","co39325","norming","","","","","","",""
"2047.5449999794364","","","post_reveal_questions","survey-likert","495","2944038","0.0-6.0-6.69","4161391","co39325","norming","","","{""aha"":0}","[0]","../img/tt/1142tt.jpg","",""
"null","<div style=""font-size:60px;""> </div>","null","fixation","html-keyboard-response","496","2944254","0.0-6.0-0.70","4161391","co39325","norming","","","","","","",""
"null","../img/tt/1283tt.jpg","null","mooney1","image-keyboard-response","497","2947266","0.0-6.0-1.70","4161391","co39325","norming","","","","","","",""
"3997.9150000726804","","","post_mooney1_questions","survey-likert","498","2951267","0.0-6.0-2.70","4161391","co39325","norming","","","{""curiosity"":3,""confidence"":0}","[0,1]","../img/tt/1283tt.jpg","",""
"1079.3200000189245","","","recognition","survey-text","499","2952352","0.0-6.0-3.70","4161391","co39325","norming","","","{""guess"":""""}","","../img/tt/1283tt.jpg","",""
"null","../img/gs/1283gs.jpg","null","reveal","image-keyboard-response","500","2954358","0.0-6.0-4.70","4161391","co39325","norming","","","","","","",""
"null","../img/tt/1283tt.jpg","null","mooney2","image-keyboard-response","501","2956374","0.0-6.0-5.70","4161391","co39325","norming","","","","","","",""
"2332.6499999966472","","","post_reveal_questions","survey-likert","502","2958711","0.0-6.0-6.70","4161391","co39325","norming","","","{""aha"":3}","[0]","../img/tt/1283tt.jpg","",""
"null","<div style=""font-size:60px;""> </div>","null","fixation","html-keyboard-response","503","2958927","0.0-6.0-0.71","4161391","co39325","norming","","","","","","",""
"null","../img/tt/036tt.jpg","null","mooney1","image-keyboard-response","504","2961941","0.0-6.0-1.71","4161391","co39325","norming","","","","","","",""
"7324.784999946132","","","post_mooney1_questions","survey-likert","505","2969269","0.0-6.0-2.71","4161391","co39325","norming","","","{""curiosity"":3,""confidence"":0}","[0,1]","../img/tt/036tt.jpg","",""
"976.5600000973791","","","recognition","survey-text","506","2970252","0.0-6.0-3.71","4161391","co39325","norming","","","{""guess"":""""}","","../img/tt/036tt.jpg","",""
"null","../img/gs/036gs.jpg","null","reveal","image-keyboard-response","507","2972261","0.0-6.0-4.71","4161391","co39325","norming","","","","","","",""
"null","../img/tt/036tt.jpg","null","mooney2","image-keyboard-response","508","2974275","0.0-6.0-5.71","4161391","co39325","norming","","","","","","",""
"11094.694999977946","","","post_reveal_questions","survey-likert","509","2985373","0.0-6.0-6.71","4161391","co39325","norming","","","{""aha"":4}","[0]","../img/tt/036tt.jpg","",""
"null","<div style=""font-size:60px;""> </div>","null","fixation","html-keyboard-response","510","2985576","0.0-6.0-0.72","4161391","co39325","norming","","","","","","",""
"null","../img/tt/046tt.jpg","null","mooney1","image-keyboard-response","511","2988580","0.0-6.0-1.72","4161391","co39325","norming","","","","","","",""
"5785.649999976158","","","post_mooney1_questions","survey-likert","512","2994369","0.0-6.0-2.72","4161391","co39325","norming","","","{""curiosity"":0,""confidence"":0}","[0,1]","../img/tt/046tt.jpg","",""
"1216.3500000024214","","","recognition","survey-text","513","2995592","0.0-6.0-3.72","4161391","co39325","norming","","","{""guess"":""""}","","../img/tt/046tt.jpg","",""
"null","../img/gs/046gs.jpg","null","reveal","image-keyboard-response","514","2997596","0.0-6.0-4.72","4161391","co39325","norming","","","","","","",""
"null","../img/tt/046tt.jpg","null","mooney2","image-keyboard-response","515","2999601","0.0-6.0-5.72","4161391","co39325","norming","","","","","","",""
"2651.205000001937","","","post_reveal_questions","survey-likert","516","3002256","0.0-6.0-6.72","4161391","co39325","norming","","","{""aha"":3}","[0]","../img/tt/046tt.jpg","",""
"null","<div style=""font-size:60px;""> </div>","null","fixation","html-keyboard-response","517","3002462","0.0-6.0-0.73","4161391","co39325","norming","","","","","","",""
"null","../img/tt/438tt.jpg","null","mooney1","image-keyboard-response","518","3005480","0.0-6.0-1.73","4161391","co39325","norming","","","","","","",""
"6615.9249999327585","","","post_mooney1_questions","survey-likert","519","3012099","0.0-6.0-2.73","4161391","co39325","norming","","","{""curiosity"":4,""confidence"":0}","[0,1]","../img/tt/438tt.jpg","",""
"1193.2749999687076","","","recognition","survey-text","520","3013297","0.0-6.0-3.73","4161391","co39325","norming","","","{""guess"":""""}","","../img/tt/438tt.jpg","",""
"null","../img/gs/438gs.jpg","null","reveal","image-keyboard-response","521","3015312","0.0-6.0-4.73","4161391","co39325","norming","","","","","","",""
"null","../img/tt/438tt.jpg","null","mooney2","image-keyboard-response","522","3017327","0.0-6.0-5.73","4161391","co39325","norming","","","","","","",""
"2145.1799999922514","","","post_reveal_questions","survey-likert","523","3019476","0.0-6.0-6.73","4161391","co39325","norming","","","{""aha"":2}","[0]","../img/tt/438tt.jpg","",""
"null","<div style=""font-size:60px;""> </div>","null","fixation","html-keyboard-response","524","3019680","0.0-6.0-0.74","4161391","co39325","norming","","","","","","",""
"null","../img/tt/552tt.jpg","null","mooney1","image-keyboard-response","525","3023520","0.0-6.0-1.74","4161391","co39325","norming","","","","","","",""
"12406.839999952354","","","post_mooney1_questions","survey-likert","526","3035930","0.0-6.0-2.74","4161391","co39325","norming","","","{""curiosity"":3,""confidence"":5}","[0,1]","../img/tt/552tt.jpg","",""
"1866.2300000432879","","","recognition","survey-text","527","3037802","0.0-6.0-3.74","4161391","co39325","norming","","","{""guess"":""skunk""}","","../img/tt/552tt.jpg","",""
"null","../img/gs/552gs.jpg","null","reveal","image-keyboard-response","528","3039816","0.0-6.0-4.74","4161391","co39325","norming","","","","","","",""
"null","../img/tt/552tt.jpg","null","mooney2","image-keyboard-response","529","3041818","0.0-6.0-5.74","4161391","co39325","norming","","","","","","",""
"1944.5249999407679","","","post_reveal_questions","survey-likert","530","3043764","0.0-6.0-6.74","4161391","co39325","norming","","","{""aha"":6}","[0]","../img/tt/552tt.jpg","",""
"null","<div style=""font-size:60px;""> </div>","null","fixation","html-keyboard-response","531","3043976","0.0-6.0-0.75","4161391","co39325","norming","","","","","","",""
"null","../img/tt/1236tt.jpg","null","mooney1","image-keyboard-response","532","3046993","0.0-6.0-1.75","4161391","co39325","norming","","","","","","",""
"8392.585000023246","","","post_mooney1_questions","survey-likert","533","3055389","0.0-6.0-2.75","4161391","co39325","norming","","","{""curiosity"":2,""confidence"":1}","[0,1]","../img/tt/1236tt.jpg","",""
"6301.01499997545","","","recognition","survey-text","534","3061695","0.0-6.0-3.75","4161391","co39325","norming","","","{""guess"":""something with water""}","","../img/tt/1236tt.jpg","",""
"null","../img/gs/1236gs.jpg","null","reveal","image-keyboard-response","535","3063709","0.0-6.0-4.75","4161391","co39325","norming","","","","","","",""
"null","../img/tt/1236tt.jpg","null","mooney2","image-keyboard-response","536","3065726","0.0-6.0-5.75","4161391","co39325","norming","","","","","","",""
"3708.4650000324473","","","post_reveal_questions","survey-likert","537","3069437","0.0-6.0-6.75","4161391","co39325","norming","","","{""aha"":4}","[0]","../img/tt/1236tt.jpg","",""
"null","<div style=""font-size:60px;""> </div>","null","fixation","html-keyboard-response","538","3069651","0.0-6.0-0.76","4161391","co39325","norming","","","","","","",""
"null","../img/tt/078tt.jpg","null","mooney1","image-keyboard-response","539","3072654","0.0-6.0-1.76","4161391","co39325","norming","","","","","","",""
"5021.41499996651","","","post_mooney1_questions","survey-likert","540","3077678","0.0-6.0-2.76","4161391","co39325","norming","","","{""curiosity"":1,""confidence"":5}","[0,1]","../img/tt/078tt.jpg","",""
"2458.299999940209","","","recognition","survey-text","541","3080141","0.0-6.0-3.76","4161391","co39325","norming","","","{""guess"":""grapes""}","","../img/tt/078tt.jpg","",""
"null","../img/gs/078gs.jpg","null","reveal","image-keyboard-response","542","3082157","0.0-6.0-4.76","4161391","co39325","norming","","","","","","",""
"null","../img/tt/078tt.jpg","null","mooney2","image-keyboard-response","543","3084165","0.0-6.0-5.76","4161391","co39325","norming","","","","","","",""
"4955.545000033453","","","post_reveal_questions","survey-likert","544","3089123","0.0-6.0-6.76","4161391","co39325","norming","","","{""aha"":2}","[0]","../img/tt/078tt.jpg","",""
"null","<div style=""font-size:60px;""> </div>","null","fixation","html-keyboard-response","545","3089336","0.0-6.0-0.77","4161391","co39325","norming","","","","","","",""
"null","../img/tt/044tt.jpg","null","mooney1","image-keyboard-response","546","3092346","0.0-6.0-1.77","4161391","co39325","norming","","","","","","",""
"6372.19499994535","","","post_mooney1_questions","survey-likert","547","3098722","0.0-6.0-2.77","4161391","co39325","norming","","","{""curiosity"":4,""confidence"":1}","[0,1]","../img/tt/044tt.jpg","",""
"3877.53000005614","","","recognition","survey-text","548","3102606","0.0-6.0-3.77","4161391","co39325","norming","","","{""guess"":""person""}","","../img/tt/044tt.jpg","",""
"null","../img/gs/044gs.jpg","null","reveal","image-keyboard-response","549","3104610","0.0-6.0-4.77","4161391","co39325","norming","","","","","","",""
"null","../img/tt/044tt.jpg","null","mooney2","image-keyboard-response","550","3106613","0.0-6.0-5.77","4161391","co39325","norming","","","","","","",""
"2325.2699999138713","","","post_reveal_questions","survey-likert","551","3108942","0.0-6.0-6.77","4161391","co39325","norming","","","{""aha"":6}","[0]","../img/tt/044tt.jpg","",""
