"rt","stimulus","key_press","test_part","trial_type","trial_index","time_elapsed","internal_node_id","totalTime","subject","experiment_name","button_pressed","success","responses","question_order","currentStim","old","correct"
"7981.819999986328","Welcome to the experiment. This is an online experiment so please don't close the tab/window until we say goodbye.  Press any key to begin.","32","instructions","html-keyboard-response","0","8063","0.0-0.0","2955911","co39031","norming","","","","","","",""
"27233.47500001546","<div style='word-wrap: break-word; width: 900px'><h3>Please consider this information carefully before deciding whether to participate in this research</h3><ul style='text-align: left; font-size: .8em;'><li><b>Purpose of the research</b>: To examine how people process images.</li><li><b>What you will do in this research</b>:  Stimuli (images) will be presented on the computer and you will be asked different questions about them.</li><li><b>Time required</b>: Participation will take between 45 and 60 minutes to complete.</li><li><b>Risks</b>:  There are no anticipated risks associated with participating in this study. The effects of participating should be comparable to those you would experience from viewing a computer monitor for 30 minutes and using a mouse or keyboard.</li><li><b>Benefits</b>:  This study provides no benefits to you individually except for the credit. The study provides important information about the nature of perception and learning.</li><li><b>Confidentiality</b>:  Your participation in this study will remain confidential. No personally identifiable information will be associated with your data. Your de-identified data may be shared with other researchers and used in future projects.</li><li><b>Participation and withdrawal</b>:  Your participation in this study is completely voluntary and you may refuse to participate or you may choose to withdraw at any time without penalty.</li><li><b>How to contact the researchers</b>: If you have questions or concerns about your participation or payment, or want to request a summary of research findings, please contact Sander Van de Cruys (KU Leuven), at sander.vandecruys@kuleuven.be.</li></ul><p>The nature and purpose of this research have been sufficiently explained and I agree to participate in this study.  I understand that I am free to withdraw at any time without incurring any penalty.</p><p>Please consent by clicking the button below to continue. Otherwise, please exit the study at this time.</p></div>","","instructions","html-button-response","1","35301","0.0-1.0","2955911","co39031","norming","0","","","","","",""
"","","","instructions","fullscreen","2","39952","0.0-2.0","2955911","co39031","norming","","true","","","","",""
"24682.339999941178","","","sona","survey-html-form","3","64640","0.0-3.0","2955911","co39031","norming","","","[{""name"":""sonaid"",""value"":""39031""},{""name"":""debrief"",""value"":""yes""},{""name"":""datajoin"",""value"":""yes""}]","","","",""
"57046.80999997072","<div style='word-wrap: break-word; width: 900px'><h3>Instructions</h3><p>This experiment will have 3 parts. In the first part you will see a series of distorted images like the one below on the left. As you can see in the righthand image, the distorted images are derived from actual photographs. In what follows, you will <strong>briefly</strong> be presented with <strong>only</strong> the distorted image.</p> <div style='float: left; margin-right: 20px;'><img src='../img/018tt.jpg' height='250' width='250'></img></div><div style='float: right; margin-left: 20px;'><img src='../img/018gs.jpg' height='250' width='250'></img></div><p>Subsequently you will be asked a few questions about the image: One question on how <strong>curious</strong> you are about the solution and one on how <strong>confident</strong> you are that you know the solution.</p>Next, we ask you to make a guess on what is in the image. Note that it is OK to name just the <strong>basic level category</strong>. For example when you see a parrot in the image, 'parrot' will obviously be a correct answer but also correct is 'bird'. However, 'animal' will <strong>not</strong> be counted as a correct response. For the example above, 'rose' would be correct or 'flower', but not 'plant'. When soccer players are depicted, 'soccer', 'football', 'soccer players' will be correct, but not 'humans', 'outdoors', or 'sports'. You do not need to describe the image in full, just name the main object in it <strong>in one or two words</strong>. All images depict objects from one of the following broad level categories: animals, inanimate objects, plants, sports, vehicles, and food. Recognizing means knowing <strong>more</strong> than these broad labels for a given image. But we always encourage you to <strong>make a guess</strong> if you can. Note that you are allowed to use <strong>Dutch and English</strong> in your answers, whatever comes easiest for you.</p><p>Press any key to continue.</p></div>","32","instructions","html-keyboard-response","4","121689","0.0-4.0","2955911","co39031","norming","","","","","","",""
"19071.299999952316","<div style='word-wrap: break-word; width: 900px'><h3>Instructions</h3> <p>Next, the solution image will be revealed to you and you'll be asked to indicate how strong your <strong>aha-experience</strong> was after seeing the solution. This describes the positive feeling of the 'click' you sometimes experience, when the pieces of the 'puzzle' fall together and you suddenly have 'insight' in the image.</p><img src='aha.jpg' height='188' width='250'></img><p>Note that there are no right or wrong answers. We are interested in what <strong>you</strong> see in the image and how <strong>you</strong> feel about it.</p><p>Press any key to start the experiment.</p></div>","32","instructions","html-keyboard-response","5","140761","0.0-5.0","2955911","co39031","norming","","","","","","",""
"null","<div style=""font-size:60px;""> </div>","null","fixation","html-keyboard-response","6","140967","0.0-6.0-0.0","2955911","co39031","norming","","","","","","",""
"null","../img/tt/1063tt.jpg","null","mooney1","image-keyboard-response","7","143974","0.0-6.0-1.0","2955911","co39031","norming","","","","","","",""
"11758.694999967702","","","post_mooney1_questions","survey-likert","8","155735","0.0-6.0-2.0","2955911","co39031","norming","","","{""curiosity"":4,""confidence"":4}","[0,1]","../img/tt/1063tt.jpg","",""
"5535.3949998971075","","","recognition","survey-text","9","161275","0.0-6.0-3.0","2955911","co39031","norming","","","{""guess"":""koe""}","","../img/tt/1063tt.jpg","",""
"null","../img/gs/1063gs.jpg","null","reveal","image-keyboard-response","10","163281","0.0-6.0-4.0","2955911","co39031","norming","","","","","","",""
"null","../img/tt/1063tt.jpg","null","mooney2","image-keyboard-response","11","165287","0.0-6.0-5.0","2955911","co39031","norming","","","","","","",""
"4643.830000073649","","","post_reveal_questions","survey-likert","12","169934","0.0-6.0-6.0","2955911","co39031","norming","","","{""aha"":0}","[0]","../img/tt/1063tt.jpg","",""
"null","<div style=""font-size:60px;""> </div>","null","fixation","html-keyboard-response","13","170138","0.0-6.0-0.1","2955911","co39031","norming","","","","","","",""
"null","../img/tt/1237tt.jpg","null","mooney1","image-keyboard-response","14","173142","0.0-6.0-1.1","2955911","co39031","norming","","","","","","",""
"11319.735000026412","","","post_mooney1_questions","survey-likert","15","184465","0.0-6.0-2.1","2955911","co39031","norming","","","{""curiosity"":6,""confidence"":2}","[0,1]","../img/tt/1237tt.jpg","",""
"6196.0399999516085","","","recognition","survey-text","16","190664","0.0-6.0-3.1","2955911","co39031","norming","","","{""guess"":""koe""}","","../img/tt/1237tt.jpg","",""
"null","../img/gs/1237gs.jpg","null","reveal","image-keyboard-response","17","192672","0.0-6.0-4.1","2955911","co39031","norming","","","","","","",""
"null","../img/tt/1237tt.jpg","null","mooney2","image-keyboard-response","18","194677","0.0-6.0-5.1","2955911","co39031","norming","","","","","","",""
"4229.48500001803","","","post_reveal_questions","survey-likert","19","198910","0.0-6.0-6.1","2955911","co39031","norming","","","{""aha"":2}","[0]","../img/tt/1237tt.jpg","",""
"null","<div style=""font-size:60px;""> </div>","null","fixation","html-keyboard-response","20","199117","0.0-6.0-0.2","2955911","co39031","norming","","","","","","",""
"null","../img/tt/064tt.jpg","null","mooney1","image-keyboard-response","21","202121","0.0-6.0-1.2","2955911","co39031","norming","","","","","","",""
"7985.665000043809","","","post_mooney1_questions","survey-likert","22","210110","0.0-6.0-2.2","2955911","co39031","norming","","","{""curiosity"":5,""confidence"":1}","[0,1]","../img/tt/064tt.jpg","",""
"3600.7549999048933","","","recognition","survey-text","23","213714","0.0-6.0-3.2","2955911","co39031","norming","","","{""guess"":""nijlpaard""}","","../img/tt/064tt.jpg","",""
"null","../img/gs/064gs.jpg","null","reveal","image-keyboard-response","24","215719","0.0-6.0-4.2","2955911","co39031","norming","","","","","","",""
"null","../img/tt/064tt.jpg","null","mooney2","image-keyboard-response","25","217722","0.0-6.0-5.2","2955911","co39031","norming","","","","","","",""
"5106.749999918975","","","post_reveal_questions","survey-likert","26","222831","0.0-6.0-6.2","2955911","co39031","norming","","","{""aha"":2}","[0]","../img/tt/064tt.jpg","",""
"null","<div style=""font-size:60px;""> </div>","null","fixation","html-keyboard-response","27","223035","0.0-6.0-0.3","2955911","co39031","norming","","","","","","",""
"null","../img/tt/517tt.jpg","null","mooney1","image-keyboard-response","28","226042","0.0-6.0-1.3","2955911","co39031","norming","","","","","","",""
"6080.779999960214","","","post_mooney1_questions","survey-likert","29","232126","0.0-6.0-2.3","2955911","co39031","norming","","","{""curiosity"":3,""confidence"":4}","[0,1]","../img/tt/517tt.jpg","",""
"3764.710000017658","","","recognition","survey-text","30","235894","0.0-6.0-3.3","2955911","co39031","norming","","","{""guess"":""panda""}","","../img/tt/517tt.jpg","",""
"null","../img/gs/517gs.jpg","null","reveal","image-keyboard-response","31","237899","0.0-6.0-4.3","2955911","co39031","norming","","","","","","",""
"null","../img/tt/517tt.jpg","null","mooney2","image-keyboard-response","32","239905","0.0-6.0-5.3","2955911","co39031","norming","","","","","","",""
"8061.864999937825","","","post_reveal_questions","survey-likert","33","247969","0.0-6.0-6.3","2955911","co39031","norming","","","{""aha"":5}","[0]","../img/tt/517tt.jpg","",""
"null","<div style=""font-size:60px;""> </div>","null","fixation","html-keyboard-response","34","248174","0.0-6.0-0.4","2955911","co39031","norming","","","","","","",""
"null","../img/tt/1123tt.jpg","null","mooney1","image-keyboard-response","35","251181","0.0-6.0-1.4","2955911","co39031","norming","","","","","","",""
"8121.29499996081","","","post_mooney1_questions","survey-likert","36","259305","0.0-6.0-2.4","2955911","co39031","norming","","","{""curiosity"":6,""confidence"":1}","[0,1]","../img/tt/1123tt.jpg","",""
"1690.1399999624118","","","recognition","survey-text","37","260999","0.0-6.0-3.4","2955911","co39031","norming","","","{""guess"":"" ""}","","../img/tt/1123tt.jpg","",""
"null","../img/gs/1123gs.jpg","null","reveal","image-keyboard-response","38","263004","0.0-6.0-4.4","2955911","co39031","norming","","","","","","",""
"null","../img/tt/1123tt.jpg","null","mooney2","image-keyboard-response","39","265011","0.0-6.0-5.4","2955911","co39031","norming","","","","","","",""
"2949.6799999615178","","","post_reveal_questions","survey-likert","40","267963","0.0-6.0-6.4","2955911","co39031","norming","","","{""aha"":2}","[0]","../img/tt/1123tt.jpg","",""
"null","<div style=""font-size:60px;""> </div>","null","fixation","html-keyboard-response","41","268167","0.0-6.0-0.5","2955911","co39031","norming","","","","","","",""
"null","../img/tt/515tt.jpg","null","mooney1","image-keyboard-response","42","271173","0.0-6.0-1.5","2955911","co39031","norming","","","","","","",""
"10434.159999946132","","","post_mooney1_questions","survey-likert","43","281611","0.0-6.0-2.5","2955911","co39031","norming","","","{""curiosity"":3,""confidence"":4}","[0,1]","../img/tt/515tt.jpg","",""
"1840.2950000017881","","","recognition","survey-text","44","283454","0.0-6.0-3.5","2955911","co39031","norming","","","{""guess"":""kip""}","","../img/tt/515tt.jpg","",""
"null","../img/gs/515gs.jpg","null","reveal","image-keyboard-response","45","285459","0.0-6.0-4.5","2955911","co39031","norming","","","","","","",""
"null","../img/tt/515tt.jpg","null","mooney2","image-keyboard-response","46","287463","0.0-6.0-5.5","2955911","co39031","norming","","","","","","",""
"4484.705000068061","","","post_reveal_questions","survey-likert","47","291950","0.0-6.0-6.5","2955911","co39031","norming","","","{""aha"":4}","[0]","../img/tt/515tt.jpg","",""
"null","<div style=""font-size:60px;""> </div>","null","fixation","html-keyboard-response","48","292156","0.0-6.0-0.6","2955911","co39031","norming","","","","","","",""
"null","../img/tt/1279tt.jpg","null","mooney1","image-keyboard-response","49","295161","0.0-6.0-1.6","2955911","co39031","norming","","","","","","",""
"6102.06000006292","","","post_mooney1_questions","survey-likert","50","301266","0.0-6.0-2.6","2955911","co39031","norming","","","{""curiosity"":5,""confidence"":1}","[0,1]","../img/tt/1279tt.jpg","",""
"732.6449999818578","","","recognition","survey-text","51","302002","0.0-6.0-3.6","2955911","co39031","norming","","","{""guess"":""""}","","../img/tt/1279tt.jpg","",""
"null","../img/gs/1279gs.jpg","null","reveal","image-keyboard-response","52","304006","0.0-6.0-4.6","2955911","co39031","norming","","","","","","",""
"null","../img/tt/1279tt.jpg","null","mooney2","image-keyboard-response","53","306009","0.0-6.0-5.6","2955911","co39031","norming","","","","","","",""
"3115.4799999203533","","","post_reveal_questions","survey-likert","54","309126","0.0-6.0-6.6","2955911","co39031","norming","","","{""aha"":4}","[0]","../img/tt/1279tt.jpg","",""
"null","<div style=""font-size:60px;""> </div>","null","fixation","html-keyboard-response","55","309329","0.0-6.0-0.7","2955911","co39031","norming","","","","","","",""
"null","../img/tt/1227tt.jpg","null","mooney1","image-keyboard-response","56","312333","0.0-6.0-1.7","2955911","co39031","norming","","","","","","",""
"6080.859999987297","","","post_mooney1_questions","survey-likert","57","318418","0.0-6.0-2.7","2955911","co39031","norming","","","{""curiosity"":4,""confidence"":5}","[0,1]","../img/tt/1227tt.jpg","",""
"3069.3450000835583","","","recognition","survey-text","58","321491","0.0-6.0-3.7","2955911","co39031","norming","","","{""guess"":""kippen""}","","../img/tt/1227tt.jpg","",""
"null","../img/gs/1227gs.jpg","null","reveal","image-keyboard-response","59","323497","0.0-6.0-4.7","2955911","co39031","norming","","","","","","",""
"null","../img/tt/1227tt.jpg","null","mooney2","image-keyboard-response","60","325501","0.0-6.0-5.7","2955911","co39031","norming","","","","","","",""
"8266.43000007607","","","post_reveal_questions","survey-likert","61","333771","0.0-6.0-6.7","2955911","co39031","norming","","","{""aha"":1}","[0]","../img/tt/1227tt.jpg","",""
"null","<div style=""font-size:60px;""> </div>","null","fixation","html-keyboard-response","62","333977","0.0-6.0-0.8","2955911","co39031","norming","","","","","","",""
"null","../img/tt/1004tt.jpg","null","mooney1","image-keyboard-response","63","336988","0.0-6.0-1.8","2955911","co39031","norming","","","","","","",""
"8375","","","post_mooney1_questions","survey-likert","64","345367","0.0-6.0-2.8","2955911","co39031","norming","","","{""curiosity"":5,""confidence"":0}","[0,1]","../img/tt/1004tt.jpg","",""
"1375.3449999494478","","","recognition","survey-text","65","346745","0.0-6.0-3.8","2955911","co39031","norming","","","{""guess"":""""}","","../img/tt/1004tt.jpg","",""
"null","../img/gs/1004gs.jpg","null","reveal","image-keyboard-response","66","348751","0.0-6.0-4.8","2955911","co39031","norming","","","","","","",""
"null","../img/tt/1004tt.jpg","null","mooney2","image-keyboard-response","67","350756","0.0-6.0-5.8","2955911","co39031","norming","","","","","","",""
"3079.7499999171123","","","post_reveal_questions","survey-likert","68","353839","0.0-6.0-6.8","2955911","co39031","norming","","","{""aha"":4}","[0]","../img/tt/1004tt.jpg","",""
"null","<div style=""font-size:60px;""> </div>","null","fixation","html-keyboard-response","69","354049","0.0-6.0-0.9","2955911","co39031","norming","","","","","","",""
"null","../img/tt/135tt.jpg","null","mooney1","image-keyboard-response","70","357057","0.0-6.0-1.9","2955911","co39031","norming","","","","","","",""
"5771.9550000038","","","post_mooney1_questions","survey-likert","71","362832","0.0-6.0-2.9","2955911","co39031","norming","","","{""curiosity"":3,""confidence"":5}","[0,1]","../img/tt/135tt.jpg","",""
"1787.6000000396743","","","recognition","survey-text","72","364623","0.0-6.0-3.9","2955911","co39031","norming","","","{""guess"":""wc""}","","../img/tt/135tt.jpg","",""
"null","../img/gs/135gs.jpg","null","reveal","image-keyboard-response","73","366628","0.0-6.0-4.9","2955911","co39031","norming","","","","","","",""
"null","../img/tt/135tt.jpg","null","mooney2","image-keyboard-response","74","368630","0.0-6.0-5.9","2955911","co39031","norming","","","","","","",""
"6039.119999972172","","","post_reveal_questions","survey-likert","75","374672","0.0-6.0-6.9","2955911","co39031","norming","","","{""aha"":1}","[0]","../img/tt/135tt.jpg","",""
"null","<div style=""font-size:60px;""> </div>","null","fixation","html-keyboard-response","76","374877","0.0-6.0-0.10","2955911","co39031","norming","","","","","","",""
"null","../img/tt/1087tt.jpg","null","mooney1","image-keyboard-response","77","377883","0.0-6.0-1.10","2955911","co39031","norming","","","","","","",""
"7455.865000025369","","","post_mooney1_questions","survey-likert","78","385342","0.0-6.0-2.10","2955911","co39031","norming","","","{""curiosity"":4,""confidence"":5}","[0,1]","../img/tt/1087tt.jpg","",""
"4836.5800000028685","","","recognition","survey-text","79","390182","0.0-6.0-3.10","2955911","co39031","norming","","","{""guess"":""bizon en beer""}","","../img/tt/1087tt.jpg","",""
"null","../img/gs/1087gs.jpg","null","reveal","image-keyboard-response","80","392185","0.0-6.0-4.10","2955911","co39031","norming","","","","","","",""
"null","../img/tt/1087tt.jpg","null","mooney2","image-keyboard-response","81","394189","0.0-6.0-5.10","2955911","co39031","norming","","","","","","",""
"3549.6900000143796","","","post_reveal_questions","survey-likert","82","397742","0.0-6.0-6.10","2955911","co39031","norming","","","{""aha"":1}","[0]","../img/tt/1087tt.jpg","",""
"null","<div style=""font-size:60px;""> </div>","null","fixation","html-keyboard-response","83","397947","0.0-6.0-0.11","2955911","co39031","norming","","","","","","",""
"null","../img/tt/1175tt.jpg","null","mooney1","image-keyboard-response","84","400951","0.0-6.0-1.11","2955911","co39031","norming","","","","","","",""
"5575.479999999516","","","post_mooney1_questions","survey-likert","85","406529","0.0-6.0-2.11","2955911","co39031","norming","","","{""curiosity"":5,""confidence"":1}","[0,1]","../img/tt/1175tt.jpg","",""
"309.32499992195517","","","recognition","survey-text","86","406842","0.0-6.0-3.11","2955911","co39031","norming","","","{""guess"":""""}","","../img/tt/1175tt.jpg","",""
"null","../img/gs/1175gs.jpg","null","reveal","image-keyboard-response","87","408847","0.0-6.0-4.11","2955911","co39031","norming","","","","","","",""
"null","../img/tt/1175tt.jpg","null","mooney2","image-keyboard-response","88","410850","0.0-6.0-5.11","2955911","co39031","norming","","","","","","",""
"5901.079999981448","","","post_reveal_questions","survey-likert","89","416754","0.0-6.0-6.11","2955911","co39031","norming","","","{""aha"":5}","[0]","../img/tt/1175tt.jpg","",""
"null","<div style=""font-size:60px;""> </div>","null","fixation","html-keyboard-response","90","416958","0.0-6.0-0.12","2955911","co39031","norming","","","","","","",""
"null","../img/tt/222tt.jpg","null","mooney1","image-keyboard-response","91","419964","0.0-6.0-1.12","2955911","co39031","norming","","","","","","",""
"6770.2799999387935","","","post_mooney1_questions","survey-likert","92","426736","0.0-6.0-2.12","2955911","co39031","norming","","","{""curiosity"":5,""confidence"":1}","[0,1]","../img/tt/222tt.jpg","",""
"1964.879999984987","","","recognition","survey-text","93","428704","0.0-6.0-3.12","2955911","co39031","norming","","","{""guess"":""kikker""}","","../img/tt/222tt.jpg","",""
"null","../img/gs/222gs.jpg","null","reveal","image-keyboard-response","94","430707","0.0-6.0-4.12","2955911","co39031","norming","","","","","","",""
"null","../img/tt/222tt.jpg","null","mooney2","image-keyboard-response","95","432712","0.0-6.0-5.12","2955911","co39031","norming","","","","","","",""
"3036.874999990687","","","post_reveal_questions","survey-likert","96","435752","0.0-6.0-6.12","2955911","co39031","norming","","","{""aha"":5}","[0]","../img/tt/222tt.jpg","",""
"null","<div style=""font-size:60px;""> </div>","null","fixation","html-keyboard-response","97","435958","0.0-6.0-0.13","2955911","co39031","norming","","","","","","",""
"null","../img/tt/1202tt.jpg","null","mooney1","image-keyboard-response","98","438963","0.0-6.0-1.13","2955911","co39031","norming","","","","","","",""
"6178.220000001602","","","post_mooney1_questions","survey-likert","99","445144","0.0-6.0-2.13","2955911","co39031","norming","","","{""curiosity"":5,""confidence"":1}","[0,1]","../img/tt/1202tt.jpg","",""
"2079.7749999910593","","","recognition","survey-text","100","447227","0.0-6.0-3.13","2955911","co39031","norming","","","{""guess"":""dansers""}","","../img/tt/1202tt.jpg","",""
"null","../img/gs/1202gs.jpg","null","reveal","image-keyboard-response","101","449231","0.0-6.0-4.13","2955911","co39031","norming","","","","","","",""
"null","../img/tt/1202tt.jpg","null","mooney2","image-keyboard-response","102","451233","0.0-6.0-5.13","2955911","co39031","norming","","","","","","",""
"4033.244999940507","","","post_reveal_questions","survey-likert","103","455269","0.0-6.0-6.13","2955911","co39031","norming","","","{""aha"":4}","[0]","../img/tt/1202tt.jpg","",""
"null","<div style=""font-size:60px;""> </div>","null","fixation","html-keyboard-response","104","455472","0.0-6.0-0.14","2955911","co39031","norming","","","","","","",""
"null","../img/tt/1196tt.jpg","null","mooney1","image-keyboard-response","105","458475","0.0-6.0-1.14","2955911","co39031","norming","","","","","","",""
"5301.534999976866","","","post_mooney1_questions","survey-likert","106","463780","0.0-6.0-2.14","2955911","co39031","norming","","","{""curiosity"":4,""confidence"":2}","[0,1]","../img/tt/1196tt.jpg","",""
"2554.2900000000373","","","recognition","survey-text","107","466338","0.0-6.0-3.14","2955911","co39031","norming","","","{""guess"":""monnik""}","","../img/tt/1196tt.jpg","",""
"null","../img/gs/1196gs.jpg","null","reveal","image-keyboard-response","108","468340","0.0-6.0-4.14","2955911","co39031","norming","","","","","","",""
"null","../img/tt/1196tt.jpg","null","mooney2","image-keyboard-response","109","470343","0.0-6.0-5.14","2955911","co39031","norming","","","","","","",""
"2902.724999934435","","","post_reveal_questions","survey-likert","110","473247","0.0-6.0-6.14","2955911","co39031","norming","","","{""aha"":4}","[0]","../img/tt/1196tt.jpg","",""
"null","<div style=""font-size:60px;""> </div>","null","fixation","html-keyboard-response","111","473452","0.0-6.0-0.15","2955911","co39031","norming","","","","","","",""
"null","../img/tt/603tt.jpg","null","mooney1","image-keyboard-response","112","476458","0.0-6.0-1.15","2955911","co39031","norming","","","","","","",""
"5094.189999974333","","","post_mooney1_questions","survey-likert","113","481553","0.0-6.0-2.15","2955911","co39031","norming","","","{""curiosity"":4,""confidence"":3}","[0,1]","../img/tt/603tt.jpg","",""
"1561.5750000579283","","","recognition","survey-text","114","483118","0.0-6.0-3.15","2955911","co39031","norming","","","{""guess"":""wolf""}","","../img/tt/603tt.jpg","",""
"null","../img/gs/603gs.jpg","null","reveal","image-keyboard-response","115","485124","0.0-6.0-4.15","2955911","co39031","norming","","","","","","",""
"null","../img/tt/603tt.jpg","null","mooney2","image-keyboard-response","116","487128","0.0-6.0-5.15","2955911","co39031","norming","","","","","","",""
"2082.234999979846","","","post_reveal_questions","survey-likert","117","489213","0.0-6.0-6.15","2955911","co39031","norming","","","{""aha"":2}","[0]","../img/tt/603tt.jpg","",""
"null","<div style=""font-size:60px;""> </div>","null","fixation","html-keyboard-response","118","489418","0.0-6.0-0.16","2955911","co39031","norming","","","","","","",""
"null","../img/tt/1242tt.jpg","null","mooney1","image-keyboard-response","119","492421","0.0-6.0-1.16","2955911","co39031","norming","","","","","","",""
"7339.329999987967","","","post_mooney1_questions","survey-likert","120","499762","0.0-6.0-2.16","2955911","co39031","norming","","","{""curiosity"":3,""confidence"":6}","[0,1]","../img/tt/1242tt.jpg","",""
"1933.4449999732897","","","recognition","survey-text","121","501699","0.0-6.0-3.16","2955911","co39031","norming","","","{""guess"":""vos""}","","../img/tt/1242tt.jpg","",""
"null","../img/gs/1242gs.jpg","null","reveal","image-keyboard-response","122","503702","0.0-6.0-4.16","2955911","co39031","norming","","","","","","",""
"null","../img/tt/1242tt.jpg","null","mooney2","image-keyboard-response","123","505706","0.0-6.0-5.16","2955911","co39031","norming","","","","","","",""
"5325.50000003539","","","post_reveal_questions","survey-likert","124","511035","0.0-6.0-6.16","2955911","co39031","norming","","","{""aha"":0}","[0]","../img/tt/1242tt.jpg","",""
"null","<div style=""font-size:60px;""> </div>","null","fixation","html-keyboard-response","125","511240","0.0-6.0-0.17","2955911","co39031","norming","","","","","","",""
"null","../img/tt/522tt.jpg","null","mooney1","image-keyboard-response","126","514247","0.0-6.0-1.17","2955911","co39031","norming","","","","","","",""
"6453.680000035092","","","post_mooney1_questions","survey-likert","127","520704","0.0-6.0-2.17","2955911","co39031","norming","","","{""curiosity"":6,""confidence"":0}","[0,1]","../img/tt/522tt.jpg","",""
"2070.3999999677762","","","recognition","survey-text","128","522777","0.0-6.0-3.17","2955911","co39031","norming","","","{""guess"":""""}","","../img/tt/522tt.jpg","",""
"null","../img/gs/522gs.jpg","null","reveal","image-keyboard-response","129","524782","0.0-6.0-4.17","2955911","co39031","norming","","","","","","",""
"null","../img/tt/522tt.jpg","null","mooney2","image-keyboard-response","130","526789","0.0-6.0-5.17","2955911","co39031","norming","","","","","","",""
"2836.070000077598","","","post_reveal_questions","survey-likert","131","529628","0.0-6.0-6.17","2955911","co39031","norming","","","{""aha"":5}","[0]","../img/tt/522tt.jpg","",""
"null","<div style=""font-size:60px;""> </div>","null","fixation","html-keyboard-response","132","529831","0.0-6.0-0.18","2955911","co39031","norming","","","","","","",""
"null","../img/tt/1255tt.jpg","null","mooney1","image-keyboard-response","133","532841","0.0-6.0-1.18","2955911","co39031","norming","","","","","","",""
"9176.319999969564","","","post_mooney1_questions","survey-likert","134","542021","0.0-6.0-2.18","2955911","co39031","norming","","","{""curiosity"":6,""confidence"":1}","[0,1]","../img/tt/1255tt.jpg","",""
"3684.7049999050796","","","recognition","survey-text","135","545709","0.0-6.0-3.18","2955911","co39031","norming","","","{""guess"":""spelende kat""}","","../img/tt/1255tt.jpg","",""
"null","../img/gs/1255gs.jpg","null","reveal","image-keyboard-response","136","547714","0.0-6.0-4.18","2955911","co39031","norming","","","","","","",""
"null","../img/tt/1255tt.jpg","null","mooney2","image-keyboard-response","137","549721","0.0-6.0-5.18","2955911","co39031","norming","","","","","","",""
"3678.179999929853","","","post_reveal_questions","survey-likert","138","553402","0.0-6.0-6.18","2955911","co39031","norming","","","{""aha"":2}","[0]","../img/tt/1255tt.jpg","",""
"null","<div style=""font-size:60px;""> </div>","null","fixation","html-keyboard-response","139","553608","0.0-6.0-0.19","2955911","co39031","norming","","","","","","",""
"null","../img/tt/1353tt.jpg","null","mooney1","image-keyboard-response","140","556617","0.0-6.0-1.19","2955911","co39031","norming","","","","","","",""
"5026.640000054613","","","post_mooney1_questions","survey-likert","141","561646","0.0-6.0-2.19","2955911","co39031","norming","","","{""curiosity"":6,""confidence"":1}","[0,1]","../img/tt/1353tt.jpg","",""
"2428.0349999899045","","","recognition","survey-text","142","564078","0.0-6.0-3.19","2955911","co39031","norming","","","{""guess"":""hand""}","","../img/tt/1353tt.jpg","",""
"null","../img/gs/1353gs.jpg","null","reveal","image-keyboard-response","143","566081","0.0-6.0-4.19","2955911","co39031","norming","","","","","","",""
"null","../img/tt/1353tt.jpg","null","mooney2","image-keyboard-response","144","568090","0.0-6.0-5.19","2955911","co39031","norming","","","","","","",""
"2715.470000053756","","","post_reveal_questions","survey-likert","145","570808","0.0-6.0-6.19","2955911","co39031","norming","","","{""aha"":4}","[0]","../img/tt/1353tt.jpg","",""
"null","<div style=""font-size:60px;""> </div>","null","fixation","html-keyboard-response","146","571011","0.0-6.0-0.20","2955911","co39031","norming","","","","","","",""
"null","../img/tt/436tt.jpg","null","mooney1","image-keyboard-response","147","574018","0.0-6.0-1.20","2955911","co39031","norming","","","","","","",""
"6369.449999998324","","","post_mooney1_questions","survey-likert","148","580391","0.0-6.0-2.20","2955911","co39031","norming","","","{""curiosity"":4,""confidence"":2}","[0,1]","../img/tt/436tt.jpg","",""
"6334.855000022799","","","recognition","survey-text","149","586729","0.0-6.0-3.20","2955911","co39031","norming","","","{""guess"":""dier""}","","../img/tt/436tt.jpg","",""
"null","../img/gs/436gs.jpg","null","reveal","image-keyboard-response","150","588731","0.0-6.0-4.20","2955911","co39031","norming","","","","","","",""
"null","../img/tt/436tt.jpg","null","mooney2","image-keyboard-response","151","590733","0.0-6.0-5.20","2955911","co39031","norming","","","","","","",""
"2205.459999968298","","","post_reveal_questions","survey-likert","152","592942","0.0-6.0-6.20","2955911","co39031","norming","","","{""aha"":1}","[0]","../img/tt/436tt.jpg","",""
"null","<div style=""font-size:60px;""> </div>","null","fixation","html-keyboard-response","153","593147","0.0-6.0-0.21","2955911","co39031","norming","","","","","","",""
"null","../img/tt/1061tt.jpg","null","mooney1","image-keyboard-response","154","596152","0.0-6.0-1.21","2955911","co39031","norming","","","","","","",""
"6377.50999990385","","","post_mooney1_questions","survey-likert","155","602533","0.0-6.0-2.21","2955911","co39031","norming","","","{""curiosity"":4,""confidence"":3}","[0,1]","../img/tt/1061tt.jpg","",""
"3374.970000004396","","","recognition","survey-text","156","605911","0.0-6.0-3.21","2955911","co39031","norming","","","{""guess"":""maanlanding""}","","../img/tt/1061tt.jpg","",""
"null","../img/gs/1061gs.jpg","null","reveal","image-keyboard-response","157","607916","0.0-6.0-4.21","2955911","co39031","norming","","","","","","",""
"null","../img/tt/1061tt.jpg","null","mooney2","image-keyboard-response","158","609921","0.0-6.0-5.21","2955911","co39031","norming","","","","","","",""
"3185.9999999869615","","","post_reveal_questions","survey-likert","159","613109","0.0-6.0-6.21","2955911","co39031","norming","","","{""aha"":4}","[0]","../img/tt/1061tt.jpg","",""
"null","<div style=""font-size:60px;""> </div>","null","fixation","html-keyboard-response","160","613311","0.0-6.0-0.22","2955911","co39031","norming","","","","","","",""
"null","../img/tt/082tt.jpg","null","mooney1","image-keyboard-response","161","616320","0.0-6.0-1.22","2955911","co39031","norming","","","","","","",""
"11083.369999891147","","","post_mooney1_questions","survey-likert","162","627407","0.0-6.0-2.22","2955911","co39031","norming","","","{""curiosity"":5,""confidence"":2}","[0,1]","../img/tt/082tt.jpg","",""
"3911.2300000851974","","","recognition","survey-text","163","631322","0.0-6.0-3.22","2955911","co39031","norming","","","{""guess"":""tovenaar""}","","../img/tt/082tt.jpg","",""
"null","../img/gs/082gs.jpg","null","reveal","image-keyboard-response","164","633324","0.0-6.0-4.22","2955911","co39031","norming","","","","","","",""
"null","../img/tt/082tt.jpg","null","mooney2","image-keyboard-response","165","635330","0.0-6.0-5.22","2955911","co39031","norming","","","","","","",""
"4871.570000075735","","","post_reveal_questions","survey-likert","166","640204","0.0-6.0-6.22","2955911","co39031","norming","","","{""aha"":0}","[0]","../img/tt/082tt.jpg","",""
"null","<div style=""font-size:60px;""> </div>","null","fixation","html-keyboard-response","167","640408","0.0-6.0-0.23","2955911","co39031","norming","","","","","","",""
"null","../img/tt/1107tt.jpg","null","mooney1","image-keyboard-response","168","643413","0.0-6.0-1.23","2955911","co39031","norming","","","","","","",""
"7028.869999921881","","","post_mooney1_questions","survey-likert","169","650445","0.0-6.0-2.23","2955911","co39031","norming","","","{""curiosity"":4,""confidence"":3}","[0,1]","../img/tt/1107tt.jpg","",""
"3649.239999940619","","","recognition","survey-text","170","654098","0.0-6.0-3.23","2955911","co39031","norming","","","{""guess"":""vleermuis""}","","../img/tt/1107tt.jpg","",""
"null","../img/gs/1107gs.jpg","null","reveal","image-keyboard-response","171","656101","0.0-6.0-4.23","2955911","co39031","norming","","","","","","",""
"null","../img/tt/1107tt.jpg","null","mooney2","image-keyboard-response","172","658108","0.0-6.0-5.23","2955911","co39031","norming","","","","","","",""
"2737.275000079535","","","post_reveal_questions","survey-likert","173","660848","0.0-6.0-6.23","2955911","co39031","norming","","","{""aha"":2}","[0]","../img/tt/1107tt.jpg","",""
"null","<div style=""font-size:60px;""> </div>","null","fixation","html-keyboard-response","174","661051","0.0-6.0-0.24","2955911","co39031","norming","","","","","","",""
"null","../img/tt/094tt.jpg","null","mooney1","image-keyboard-response","175","664058","0.0-6.0-1.24","2955911","co39031","norming","","","","","","",""
"4746.769999968819","","","post_mooney1_questions","survey-likert","176","668809","0.0-6.0-2.24","2955911","co39031","norming","","","{""curiosity"":3,""confidence"":5}","[0,1]","../img/tt/094tt.jpg","",""
"1842.1099999686703","","","recognition","survey-text","177","670654","0.0-6.0-3.24","2955911","co39031","norming","","","{""guess"":""hond""}","","../img/tt/094tt.jpg","",""
"null","../img/gs/094gs.jpg","null","reveal","image-keyboard-response","178","672658","0.0-6.0-4.24","2955911","co39031","norming","","","","","","",""
"null","../img/tt/094tt.jpg","null","mooney2","image-keyboard-response","179","674661","0.0-6.0-5.24","2955911","co39031","norming","","","","","","",""
"3658.9000000385568","","","post_reveal_questions","survey-likert","180","678323","0.0-6.0-6.24","2955911","co39031","norming","","","{""aha"":2}","[0]","../img/tt/094tt.jpg","",""
"null","<div style=""font-size:60px;""> </div>","null","fixation","html-keyboard-response","181","678528","0.0-6.0-0.25","2955911","co39031","norming","","","","","","",""
"null","../img/tt/1268tt.jpg","null","mooney1","image-keyboard-response","182","681531","0.0-6.0-1.25","2955911","co39031","norming","","","","","","",""
"6858.82500000298","","","post_mooney1_questions","survey-likert","183","688393","0.0-6.0-2.25","2955911","co39031","norming","","","{""curiosity"":6,""confidence"":1}","[0,1]","../img/tt/1268tt.jpg","",""
"3091.2999999709427","","","recognition","survey-text","184","691488","0.0-6.0-3.25","2955911","co39031","norming","","","{""guess"":""konijn""}","","../img/tt/1268tt.jpg","",""
"null","../img/gs/1268gs.jpg","null","reveal","image-keyboard-response","185","693491","0.0-6.0-4.25","2955911","co39031","norming","","","","","","",""
"null","../img/tt/1268tt.jpg","null","mooney2","image-keyboard-response","186","695495","0.0-6.0-5.25","2955911","co39031","norming","","","","","","",""
"2818.530000047758","","","post_reveal_questions","survey-likert","187","698316","0.0-6.0-6.25","2955911","co39031","norming","","","{""aha"":4}","[0]","../img/tt/1268tt.jpg","",""
"null","<div style=""font-size:60px;""> </div>","null","fixation","html-keyboard-response","188","698521","0.0-6.0-0.26","2955911","co39031","norming","","","","","","",""
"null","../img/tt/1096tt.jpg","null","mooney1","image-keyboard-response","189","701527","0.0-6.0-1.26","2955911","co39031","norming","","","","","","",""
"4593.899999978021","","","post_mooney1_questions","survey-likert","190","706123","0.0-6.0-2.26","2955911","co39031","norming","","","{""curiosity"":4,""confidence"":4}","[0,1]","../img/tt/1096tt.jpg","",""
"3052.075000014156","","","recognition","survey-text","191","709179","0.0-6.0-3.26","2955911","co39031","norming","","","{""guess"":""koeienstal""}","","../img/tt/1096tt.jpg","",""
"null","../img/gs/1096gs.jpg","null","reveal","image-keyboard-response","192","711184","0.0-6.0-4.26","2955911","co39031","norming","","","","","","",""
"null","../img/tt/1096tt.jpg","null","mooney2","image-keyboard-response","193","713189","0.0-6.0-5.26","2955911","co39031","norming","","","","","","",""
"3961.204999941401","","","post_reveal_questions","survey-likert","194","717153","0.0-6.0-6.26","2955911","co39031","norming","","","{""aha"":4}","[0]","../img/tt/1096tt.jpg","",""
"null","<div style=""font-size:60px;""> </div>","null","fixation","html-keyboard-response","195","717358","0.0-6.0-0.27","2955911","co39031","norming","","","","","","",""
"null","../img/tt/194tt.jpg","null","mooney1","image-keyboard-response","196","720367","0.0-6.0-1.27","2955911","co39031","norming","","","","","","",""
"5493.215000024065","","","post_mooney1_questions","survey-likert","197","725863","0.0-6.0-2.27","2955911","co39031","norming","","","{""curiosity"":3,""confidence"":5}","[0,1]","../img/tt/194tt.jpg","",""
"3744.7500000707805","","","recognition","survey-text","198","729612","0.0-6.0-3.27","2955911","co39031","norming","","","{""guess"":""vrouw""}","","../img/tt/194tt.jpg","",""
"null","../img/gs/194gs.jpg","null","reveal","image-keyboard-response","199","731620","0.0-6.0-4.27","2955911","co39031","norming","","","","","","",""
"null","../img/tt/194tt.jpg","null","mooney2","image-keyboard-response","200","733624","0.0-6.0-5.27","2955911","co39031","norming","","","","","","",""
"4354.214999941178","","","post_reveal_questions","survey-likert","201","737981","0.0-6.0-6.27","2955911","co39031","norming","","","{""aha"":5}","[0]","../img/tt/194tt.jpg","",""
"null","<div style=""font-size:60px;""> </div>","null","fixation","html-keyboard-response","202","738184","0.0-6.0-0.28","2955911","co39031","norming","","","","","","",""
"null","../img/tt/1089tt.jpg","null","mooney1","image-keyboard-response","203","741187","0.0-6.0-1.28","2955911","co39031","norming","","","","","","",""
"4965.3699999907985","","","post_mooney1_questions","survey-likert","204","746156","0.0-6.0-2.28","2955911","co39031","norming","","","{""curiosity"":3,""confidence"":5}","[0,1]","../img/tt/1089tt.jpg","",""
"1489.865000010468","","","recognition","survey-text","205","747649","0.0-6.0-3.28","2955911","co39031","norming","","","{""guess"":""koe""}","","../img/tt/1089tt.jpg","",""
"null","../img/gs/1089gs.jpg","null","reveal","image-keyboard-response","206","749653","0.0-6.0-4.28","2955911","co39031","norming","","","","","","",""
"null","../img/tt/1089tt.jpg","null","mooney2","image-keyboard-response","207","751660","0.0-6.0-5.28","2955911","co39031","norming","","","","","","",""
"2997.92500003241","","","post_reveal_questions","survey-likert","208","754660","0.0-6.0-6.28","2955911","co39031","norming","","","{""aha"":6}","[0]","../img/tt/1089tt.jpg","",""
"null","<div style=""font-size:60px;""> </div>","null","fixation","html-keyboard-response","209","754863","0.0-6.0-0.29","2955911","co39031","norming","","","","","","",""
"null","../img/tt/1276tt.jpg","null","mooney1","image-keyboard-response","210","757867","0.0-6.0-1.29","2955911","co39031","norming","","","","","","",""
"5650.939999963157","","","post_mooney1_questions","survey-likert","211","763521","0.0-6.0-2.29","2955911","co39031","norming","","","{""curiosity"":6,""confidence"":0}","[0,1]","../img/tt/1276tt.jpg","",""
"371.5350000420585","","","recognition","survey-text","212","763896","0.0-6.0-3.29","2955911","co39031","norming","","","{""guess"":""""}","","../img/tt/1276tt.jpg","",""
"null","../img/gs/1276gs.jpg","null","reveal","image-keyboard-response","213","765899","0.0-6.0-4.29","2955911","co39031","norming","","","","","","",""
"null","../img/tt/1276tt.jpg","null","mooney2","image-keyboard-response","214","767905","0.0-6.0-5.29","2955911","co39031","norming","","","","","","",""
"2529.949999996461","","","post_reveal_questions","survey-likert","215","770438","0.0-6.0-6.29","2955911","co39031","norming","","","{""aha"":4}","[0]","../img/tt/1276tt.jpg","",""
"null","<div style=""font-size:60px;""> </div>","null","fixation","html-keyboard-response","216","770641","0.0-6.0-0.30","2955911","co39031","norming","","","","","","",""
"null","../img/tt/353tt.jpg","null","mooney1","image-keyboard-response","217","773648","0.0-6.0-1.30","2955911","co39031","norming","","","","","","",""
"5627.175000030547","","","post_mooney1_questions","survey-likert","218","779279","0.0-6.0-2.30","2955911","co39031","norming","","","{""curiosity"":4,""confidence"":4}","[0,1]","../img/tt/353tt.jpg","",""
"3376.4299999456853","","","recognition","survey-text","219","782659","0.0-6.0-3.30","2955911","co39031","norming","","","{""guess"":""vogel""}","","../img/tt/353tt.jpg","",""
"null","../img/gs/353gs.jpg","null","reveal","image-keyboard-response","220","784663","0.0-6.0-4.30","2955911","co39031","norming","","","","","","",""
"null","../img/tt/353tt.jpg","null","mooney2","image-keyboard-response","221","786669","0.0-6.0-5.30","2955911","co39031","norming","","","","","","",""
"4206.770000047982","","","post_reveal_questions","survey-likert","222","790878","0.0-6.0-6.30","2955911","co39031","norming","","","{""aha"":3}","[0]","../img/tt/353tt.jpg","",""
"null","<div style=""font-size:60px;""> </div>","null","fixation","html-keyboard-response","223","791083","0.0-6.0-0.31","2955911","co39031","norming","","","","","","",""
"null","../img/tt/1046tt.jpg","null","mooney1","image-keyboard-response","224","794088","0.0-6.0-1.31","2955911","co39031","norming","","","","","","",""
"3885.954999946989","","","post_mooney1_questions","survey-likert","225","797977","0.0-6.0-2.31","2955911","co39031","norming","","","{""curiosity"":6,""confidence"":0}","[0,1]","../img/tt/1046tt.jpg","",""
"458.6600000038743","","","recognition","survey-text","226","798440","0.0-6.0-3.31","2955911","co39031","norming","","","{""guess"":""""}","","../img/tt/1046tt.jpg","",""
"null","../img/gs/1046gs.jpg","null","reveal","image-keyboard-response","227","800447","0.0-6.0-4.31","2955911","co39031","norming","","","","","","",""
"null","../img/tt/1046tt.jpg","null","mooney2","image-keyboard-response","228","802453","0.0-6.0-5.31","2955911","co39031","norming","","","","","","",""
"2952.545000007376","","","post_reveal_questions","survey-likert","229","805408","0.0-6.0-6.31","2955911","co39031","norming","","","{""aha"":2}","[0]","../img/tt/1046tt.jpg","",""
"null","<div style=""font-size:60px;""> </div>","null","fixation","html-keyboard-response","230","805612","0.0-6.0-0.32","2955911","co39031","norming","","","","","","",""
"null","../img/tt/296tt.jpg","null","mooney1","image-keyboard-response","231","808618","0.0-6.0-1.32","2955911","co39031","norming","","","","","","",""
"3662.095000036061","","","post_mooney1_questions","survey-likert","232","812284","0.0-6.0-2.32","2955911","co39031","norming","","","{""curiosity"":3,""confidence"":5}","[0,1]","../img/tt/296tt.jpg","",""
"4470.695000025444","","","recognition","survey-text","233","816758","0.0-6.0-3.32","2955911","co39031","norming","","","{""guess"":""tandarts""}","","../img/tt/296tt.jpg","",""
"null","../img/gs/296gs.jpg","null","reveal","image-keyboard-response","234","818766","0.0-6.0-4.32","2955911","co39031","norming","","","","","","",""
"null","../img/tt/296tt.jpg","null","mooney2","image-keyboard-response","235","820771","0.0-6.0-5.32","2955911","co39031","norming","","","","","","",""
"3859.6449999604374","","","post_reveal_questions","survey-likert","236","824634","0.0-6.0-6.32","2955911","co39031","norming","","","{""aha"":1}","[0]","../img/tt/296tt.jpg","",""
"null","<div style=""font-size:60px;""> </div>","null","fixation","html-keyboard-response","237","824837","0.0-6.0-0.33","2955911","co39031","norming","","","","","","",""
"null","../img/tt/1159tt.jpg","null","mooney1","image-keyboard-response","238","827841","0.0-6.0-1.33","2955911","co39031","norming","","","","","","",""
"5863.7650000164285","","","post_mooney1_questions","survey-likert","239","833708","0.0-6.0-2.33","2955911","co39031","norming","","","{""curiosity"":5,""confidence"":4}","[0,1]","../img/tt/1159tt.jpg","",""
"2902.5399999227375","","","recognition","survey-text","240","836614","0.0-6.0-3.33","2955911","co39031","norming","","","{""guess"":""skater""}","","../img/tt/1159tt.jpg","",""
"null","../img/gs/1159gs.jpg","null","reveal","image-keyboard-response","241","838619","0.0-6.0-4.33","2955911","co39031","norming","","","","","","",""
"null","../img/tt/1159tt.jpg","null","mooney2","image-keyboard-response","242","840623","0.0-6.0-5.33","2955911","co39031","norming","","","","","","",""
"3742.9100000299513","","","post_reveal_questions","survey-likert","243","844369","0.0-6.0-6.33","2955911","co39031","norming","","","{""aha"":1}","[0]","../img/tt/1159tt.jpg","",""
"null","<div style=""font-size:60px;""> </div>","null","fixation","html-keyboard-response","244","844573","0.0-6.0-0.34","2955911","co39031","norming","","","","","","",""
"null","../img/tt/1128tt.jpg","null","mooney1","image-keyboard-response","245","847578","0.0-6.0-1.34","2955911","co39031","norming","","","","","","",""
"6981.95000004489","","","post_mooney1_questions","survey-likert","246","854563","0.0-6.0-2.34","2955911","co39031","norming","","","{""curiosity"":5,""confidence"":4}","[0,1]","../img/tt/1128tt.jpg","",""
"2699.570000055246","","","recognition","survey-text","247","857266","0.0-6.0-3.34","2955911","co39031","norming","","","{""guess"":""panda""}","","../img/tt/1128tt.jpg","",""
"null","../img/gs/1128gs.jpg","null","reveal","image-keyboard-response","248","859271","0.0-6.0-4.34","2955911","co39031","norming","","","","","","",""
"null","../img/tt/1128tt.jpg","null","mooney2","image-keyboard-response","249","861273","0.0-6.0-5.34","2955911","co39031","norming","","","","","","",""
"3178.74500004109","","","post_reveal_questions","survey-likert","250","864455","0.0-6.0-6.34","2955911","co39031","norming","","","{""aha"":4}","[0]","../img/tt/1128tt.jpg","",""
"null","<div style=""font-size:60px;""> </div>","null","fixation","html-keyboard-response","251","864660","0.0-6.0-0.35","2955911","co39031","norming","","","","","","",""
"null","../img/tt/580tt.jpg","null","mooney1","image-keyboard-response","252","867669","0.0-6.0-1.35","2955911","co39031","norming","","","","","","",""
"5616.8099999194965","","","post_mooney1_questions","survey-likert","253","873289","0.0-6.0-2.35","2955911","co39031","norming","","","{""curiosity"":6,""confidence"":2}","[0,1]","../img/tt/580tt.jpg","",""
"4908.1500000320375","","","recognition","survey-text","254","878201","0.0-6.0-3.35","2955911","co39031","norming","","","{""guess"":""indianenmasker""}","","../img/tt/580tt.jpg","",""
"null","../img/gs/580gs.jpg","null","reveal","image-keyboard-response","255","880204","0.0-6.0-4.35","2955911","co39031","norming","","","","","","",""
"null","../img/tt/580tt.jpg","null","mooney2","image-keyboard-response","256","882210","0.0-6.0-5.35","2955911","co39031","norming","","","","","","",""
"4222.315000020899","","","post_reveal_questions","survey-likert","257","886435","0.0-6.0-6.35","2955911","co39031","norming","","","{""aha"":1}","[0]","../img/tt/580tt.jpg","",""
"null","<div style=""font-size:60px;""> </div>","null","fixation","html-keyboard-response","258","886639","0.0-6.0-0.36","2955911","co39031","norming","","","","","","",""
"null","../img/tt/1033tt.jpg","null","mooney1","image-keyboard-response","259","889646","0.0-6.0-1.36","2955911","co39031","norming","","","","","","",""
"5227.874999982305","","","post_mooney1_questions","survey-likert","260","894877","0.0-6.0-2.36","2955911","co39031","norming","","","{""curiosity"":4,""confidence"":5}","[0,1]","../img/tt/1033tt.jpg","",""
"4223.800000036135","","","recognition","survey-text","261","899105","0.0-6.0-3.36","2955911","co39031","norming","","","{""guess"":""paard en ruiter""}","","../img/tt/1033tt.jpg","",""
"null","../img/gs/1033gs.jpg","null","reveal","image-keyboard-response","262","901110","0.0-6.0-4.36","2955911","co39031","norming","","","","","","",""
"null","../img/tt/1033tt.jpg","null","mooney2","image-keyboard-response","263","903113","0.0-6.0-5.36","2955911","co39031","norming","","","","","","",""
"3788.384999963455","","","post_reveal_questions","survey-likert","264","906904","0.0-6.0-6.36","2955911","co39031","norming","","","{""aha"":5}","[0]","../img/tt/1033tt.jpg","",""
"null","<div style=""font-size:60px;""> </div>","null","fixation","html-keyboard-response","265","907110","0.0-6.0-0.37","2955911","co39031","norming","","","","","","",""
"null","../img/tt/052tt.jpg","null","mooney1","image-keyboard-response","266","910118","0.0-6.0-1.37","2955911","co39031","norming","","","","","","",""
"5394.185000099242","","","post_mooney1_questions","survey-likert","267","915516","0.0-6.0-2.37","2955911","co39031","norming","","","{""curiosity"":5,""confidence"":3}","[0,1]","../img/tt/052tt.jpg","",""
"1896.8950000125915","","","recognition","survey-text","268","917416","0.0-6.0-3.37","2955911","co39031","norming","","","{""guess"":""kom""}","","../img/tt/052tt.jpg","",""
"null","../img/gs/052gs.jpg","null","reveal","image-keyboard-response","269","919421","0.0-6.0-4.37","2955911","co39031","norming","","","","","","",""
"null","../img/tt/052tt.jpg","null","mooney2","image-keyboard-response","270","921423","0.0-6.0-5.37","2955911","co39031","norming","","","","","","",""
"3734.055000008084","","","post_reveal_questions","survey-likert","271","925160","0.0-6.0-6.37","2955911","co39031","norming","","","{""aha"":5}","[0]","../img/tt/052tt.jpg","",""
"null","<div style=""font-size:60px;""> </div>","null","fixation","html-keyboard-response","272","925363","0.0-6.0-0.38","2955911","co39031","norming","","","","","","",""
"null","../img/tt/357tt.jpg","null","mooney1","image-keyboard-response","273","928369","0.0-6.0-1.38","2955911","co39031","norming","","","","","","",""
"9893.370000063442","","","post_mooney1_questions","survey-likert","274","938266","0.0-6.0-2.38","2955911","co39031","norming","","","{""curiosity"":5,""confidence"":1}","[0,1]","../img/tt/357tt.jpg","",""
"1507.8150000190362","","","recognition","survey-text","275","939777","0.0-6.0-3.38","2955911","co39031","norming","","","{""guess"":""""}","","../img/tt/357tt.jpg","",""
"null","../img/gs/357gs.jpg","null","reveal","image-keyboard-response","276","941781","0.0-6.0-4.38","2955911","co39031","norming","","","","","","",""
"null","../img/tt/357tt.jpg","null","mooney2","image-keyboard-response","277","943789","0.0-6.0-5.38","2955911","co39031","norming","","","","","","",""
"3942.8049999987707","","","post_reveal_questions","survey-likert","278","947735","0.0-6.0-6.38","2955911","co39031","norming","","","{""aha"":3}","[0]","../img/tt/357tt.jpg","",""
"null","<div style=""font-size:60px;""> </div>","null","fixation","html-keyboard-response","279","947941","0.0-6.0-0.39","2955911","co39031","norming","","","","","","",""
"null","../img/tt/1270tt.jpg","null","mooney1","image-keyboard-response","280","950944","0.0-6.0-1.39","2955911","co39031","norming","","","","","","",""
"5476.475000032224","","","post_mooney1_questions","survey-likert","281","956424","0.0-6.0-2.39","2955911","co39031","norming","","","{""curiosity"":5,""confidence"":1}","[0,1]","../img/tt/1270tt.jpg","",""
"1745.8649999462068","","","recognition","survey-text","282","958174","0.0-6.0-3.39","2955911","co39031","norming","","","{""guess"":""dier""}","","../img/tt/1270tt.jpg","",""
"null","../img/gs/1270gs.jpg","null","reveal","image-keyboard-response","283","960178","0.0-6.0-4.39","2955911","co39031","norming","","","","","","",""
"null","../img/tt/1270tt.jpg","null","mooney2","image-keyboard-response","284","962181","0.0-6.0-5.39","2955911","co39031","norming","","","","","","",""
"2775.6450000451878","","","post_reveal_questions","survey-likert","285","964959","0.0-6.0-6.39","2955911","co39031","norming","","","{""aha"":4}","[0]","../img/tt/1270tt.jpg","",""
"null","<div style=""font-size:60px;""> </div>","null","fixation","html-keyboard-response","286","965165","0.0-6.0-0.40","2955911","co39031","norming","","","","","","",""
"null","../img/tt/435tt.jpg","null","mooney1","image-keyboard-response","287","968173","0.0-6.0-1.40","2955911","co39031","norming","","","","","","",""
"4223.560000071302","","","post_mooney1_questions","survey-likert","288","972400","0.0-6.0-2.40","2955911","co39031","norming","","","{""curiosity"":4,""confidence"":4}","[0,1]","../img/tt/435tt.jpg","",""
"5524.704999988899","","","recognition","survey-text","289","977928","0.0-6.0-3.40","2955911","co39031","norming","","","{""guess"":""biljarttafel""}","","../img/tt/435tt.jpg","",""
"null","../img/gs/435gs.jpg","null","reveal","image-keyboard-response","290","979932","0.0-6.0-4.40","2955911","co39031","norming","","","","","","",""
"null","../img/tt/435tt.jpg","null","mooney2","image-keyboard-response","291","981937","0.0-6.0-5.40","2955911","co39031","norming","","","","","","",""
"3642.6200000569224","","","post_reveal_questions","survey-likert","292","985583","0.0-6.0-6.40","2955911","co39031","norming","","","{""aha"":3}","[0]","../img/tt/435tt.jpg","",""
"null","<div style=""font-size:60px;""> </div>","null","fixation","html-keyboard-response","293","985789","0.0-6.0-0.41","2955911","co39031","norming","","","","","","",""
"null","../img/tt/1154tt.jpg","null","mooney1","image-keyboard-response","294","988798","0.0-6.0-1.41","2955911","co39031","norming","","","","","","",""
"23145.209999987856","","","post_mooney1_questions","survey-likert","295","1011946","0.0-6.0-2.41","2955911","co39031","norming","","","{""curiosity"":5,""confidence"":1}","[0,1]","../img/tt/1154tt.jpg","",""
"1987.9100000252947","","","recognition","survey-text","296","1013938","0.0-6.0-3.41","2955911","co39031","norming","","","{""guess"":""""}","","../img/tt/1154tt.jpg","",""
"null","../img/gs/1154gs.jpg","null","reveal","image-keyboard-response","297","1015942","0.0-6.0-4.41","2955911","co39031","norming","","","","","","",""
"null","../img/tt/1154tt.jpg","null","mooney2","image-keyboard-response","298","1017949","0.0-6.0-5.41","2955911","co39031","norming","","","","","","",""
"3226.174999959767","","","post_reveal_questions","survey-likert","299","1021178","0.0-6.0-6.41","2955911","co39031","norming","","","{""aha"":5}","[0]","../img/tt/1154tt.jpg","",""
"null","<div style=""font-size:60px;""> </div>","null","fixation","html-keyboard-response","300","1021381","0.0-6.0-0.42","2955911","co39031","norming","","","","","","",""
"null","../img/tt/1084tt.jpg","null","mooney1","image-keyboard-response","301","1024389","0.0-6.0-1.42","2955911","co39031","norming","","","","","","",""
"4214.919999940321","","","post_mooney1_questions","survey-likert","302","1028608","0.0-6.0-2.42","2955911","co39031","norming","","","{""curiosity"":4,""confidence"":4}","[0,1]","../img/tt/1084tt.jpg","",""
"2489.655000041239","","","recognition","survey-text","303","1031101","0.0-6.0-3.42","2955911","co39031","norming","","","{""guess"":""eten""}","","../img/tt/1084tt.jpg","",""
"null","../img/gs/1084gs.jpg","null","reveal","image-keyboard-response","304","1033105","0.0-6.0-4.42","2955911","co39031","norming","","","","","","",""
"null","../img/tt/1084tt.jpg","null","mooney2","image-keyboard-response","305","1035111","0.0-6.0-5.42","2955911","co39031","norming","","","","","","",""
"3203.0350000131875","","","post_reveal_questions","survey-likert","306","1038317","0.0-6.0-6.42","2955911","co39031","norming","","","{""aha"":4}","[0]","../img/tt/1084tt.jpg","",""
"null","<div style=""font-size:60px;""> </div>","null","fixation","html-keyboard-response","307","1038522","0.0-6.0-0.43","2955911","co39031","norming","","","","","","",""
"null","../img/tt/507tt.jpg","null","mooney1","image-keyboard-response","308","1041530","0.0-6.0-1.43","2955911","co39031","norming","","","","","","",""
"6299.209999968298","","","post_mooney1_questions","survey-likert","309","1047832","0.0-6.0-2.43","2955911","co39031","norming","","","{""curiosity"":2,""confidence"":6}","[0,1]","../img/tt/507tt.jpg","",""
"3984.499999904074","","","recognition","survey-text","310","1051820","0.0-6.0-3.43","2955911","co39031","norming","","","{""guess"":""catwalk""}","","../img/tt/507tt.jpg","",""
"null","../img/gs/507gs.jpg","null","reveal","image-keyboard-response","311","1053826","0.0-6.0-4.43","2955911","co39031","norming","","","","","","",""
"null","../img/tt/507tt.jpg","null","mooney2","image-keyboard-response","312","1055831","0.0-6.0-5.43","2955911","co39031","norming","","","","","","",""
"2523.060000035912","","","post_reveal_questions","survey-likert","313","1058357","0.0-6.0-6.43","2955911","co39031","norming","","","{""aha"":3}","[0]","../img/tt/507tt.jpg","",""
"null","<div style=""font-size:60px;""> </div>","null","fixation","html-keyboard-response","314","1058561","0.0-6.0-0.44","2955911","co39031","norming","","","","","","",""
"null","../img/tt/008tt.jpg","null","mooney1","image-keyboard-response","315","1061569","0.0-6.0-1.44","2955911","co39031","norming","","","","","","",""
"5088.86000001803","","","post_mooney1_questions","survey-likert","316","1066661","0.0-6.0-2.44","2955911","co39031","norming","","","{""curiosity"":5,""confidence"":2}","[0,1]","../img/tt/008tt.jpg","",""
"7317.4700000090525","","","recognition","survey-text","317","1073982","0.0-6.0-3.44","2955911","co39031","norming","","","{""guess"":""man met geweer""}","","../img/tt/008tt.jpg","",""
"null","../img/gs/008gs.jpg","null","reveal","image-keyboard-response","318","1075987","0.0-6.0-4.44","2955911","co39031","norming","","","","","","",""
"null","../img/tt/008tt.jpg","null","mooney2","image-keyboard-response","319","1077991","0.0-6.0-5.44","2955911","co39031","norming","","","","","","",""
"2486.8850000202656","","","post_reveal_questions","survey-likert","320","1080480","0.0-6.0-6.44","2955911","co39031","norming","","","{""aha"":1}","[0]","../img/tt/008tt.jpg","",""
"null","<div style=""font-size:60px;""> </div>","null","fixation","html-keyboard-response","321","1080684","0.0-6.0-0.45","2955911","co39031","norming","","","","","","",""
"null","../img/tt/055tt.jpg","null","mooney1","image-keyboard-response","322","1083689","0.0-6.0-1.45","2955911","co39031","norming","","","","","","",""
"7558.854999952018","","","post_mooney1_questions","survey-likert","323","1091251","0.0-6.0-2.45","2955911","co39031","norming","","","{""curiosity"":5,""confidence"":1}","[0,1]","../img/tt/055tt.jpg","",""
"1932.2849999880418","","","recognition","survey-text","324","1093187","0.0-6.0-3.45","2955911","co39031","norming","","","{""guess"":""uier""}","","../img/tt/055tt.jpg","",""
"null","../img/gs/055gs.jpg","null","reveal","image-keyboard-response","325","1095190","0.0-6.0-4.45","2955911","co39031","norming","","","","","","",""
"null","../img/tt/055tt.jpg","null","mooney2","image-keyboard-response","326","1097198","0.0-6.0-5.45","2955911","co39031","norming","","","","","","",""
"3840.8549999585375","","","post_reveal_questions","survey-likert","327","1101042","0.0-6.0-6.45","2955911","co39031","norming","","","{""aha"":4}","[0]","../img/tt/055tt.jpg","",""
"null","<div style=""font-size:60px;""> </div>","null","fixation","html-keyboard-response","328","1101247","0.0-6.0-0.46","2955911","co39031","norming","","","","","","",""
"null","../img/tt/598tt.jpg","null","mooney1","image-keyboard-response","329","1104251","0.0-6.0-1.46","2955911","co39031","norming","","","","","","",""
"7633.030000026338","","","post_mooney1_questions","survey-likert","330","1111888","0.0-6.0-2.46","2955911","co39031","norming","","","{""curiosity"":6,""confidence"":0}","[0,1]","../img/tt/598tt.jpg","",""
"431.91000004298985","","","recognition","survey-text","331","1112323","0.0-6.0-3.46","2955911","co39031","norming","","","{""guess"":""""}","","../img/tt/598tt.jpg","",""
"null","../img/gs/598gs.jpg","null","reveal","image-keyboard-response","332","1114327","0.0-6.0-4.46","2955911","co39031","norming","","","","","","",""
"null","../img/tt/598tt.jpg","null","mooney2","image-keyboard-response","333","1116331","0.0-6.0-5.46","2955911","co39031","norming","","","","","","",""
"3217.369999969378","","","post_reveal_questions","survey-likert","334","1119552","0.0-6.0-6.46","2955911","co39031","norming","","","{""aha"":4}","[0]","../img/tt/598tt.jpg","",""
"null","<div style=""font-size:60px;""> </div>","null","fixation","html-keyboard-response","335","1119756","0.0-6.0-0.47","2955911","co39031","norming","","","","","","",""
"null","../img/tt/1224tt.jpg","null","mooney1","image-keyboard-response","336","1122762","0.0-6.0-1.47","2955911","co39031","norming","","","","","","",""
"6815.8699999330565","","","post_mooney1_questions","survey-likert","337","1129582","0.0-6.0-2.47","2955911","co39031","norming","","","{""curiosity"":5,""confidence"":4}","[0,1]","../img/tt/1224tt.jpg","",""
"3529.6849999576807","","","recognition","survey-text","338","1133115","0.0-6.0-3.47","2955911","co39031","norming","","","{""guess"":""enge man""}","","../img/tt/1224tt.jpg","",""
"null","../img/gs/1224gs.jpg","null","reveal","image-keyboard-response","339","1135118","0.0-6.0-4.47","2955911","co39031","norming","","","","","","",""
"null","../img/tt/1224tt.jpg","null","mooney2","image-keyboard-response","340","1137126","0.0-6.0-5.47","2955911","co39031","norming","","","","","","",""
"4033.7849999777973","","","post_reveal_questions","survey-likert","341","1141161","0.0-6.0-6.47","2955911","co39031","norming","","","{""aha"":5}","[0]","../img/tt/1224tt.jpg","",""
"null","<div style=""font-size:60px;""> </div>","null","fixation","html-keyboard-response","342","1141365","0.0-6.0-0.48","2955911","co39031","norming","","","","","","",""
"null","../img/tt/301tt.jpg","null","mooney1","image-keyboard-response","343","1144370","0.0-6.0-1.48","2955911","co39031","norming","","","","","","",""
"6900.859999936074","","","post_mooney1_questions","survey-likert","344","1151274","0.0-6.0-2.48","2955911","co39031","norming","","","{""curiosity"":6,""confidence"":0}","[0,1]","../img/tt/301tt.jpg","",""
"1957.8050000127405","","","recognition","survey-text","345","1153235","0.0-6.0-3.48","2955911","co39031","norming","","","{""guess"":""""}","","../img/tt/301tt.jpg","",""
"null","../img/gs/301gs.jpg","null","reveal","image-keyboard-response","346","1155238","0.0-6.0-4.48","2955911","co39031","norming","","","","","","",""
"null","../img/tt/301tt.jpg","null","mooney2","image-keyboard-response","347","1157244","0.0-6.0-5.48","2955911","co39031","norming","","","","","","",""
"2385.7350000180304","","","post_reveal_questions","survey-likert","348","1159632","0.0-6.0-6.48","2955911","co39031","norming","","","{""aha"":1}","[0]","../img/tt/301tt.jpg","",""
"null","<div style=""font-size:60px;""> </div>","null","fixation","html-keyboard-response","349","1159835","0.0-6.0-0.49","2955911","co39031","norming","","","","","","",""
"null","../img/tt/079tt.jpg","null","mooney1","image-keyboard-response","350","1162845","0.0-6.0-1.49","2955911","co39031","norming","","","","","","",""
"8473.510000039823","","","post_mooney1_questions","survey-likert","351","1171322","0.0-6.0-2.49","2955911","co39031","norming","","","{""curiosity"":3,""confidence"":2}","[0,1]","../img/tt/079tt.jpg","",""
"2376.680000103079","","","recognition","survey-text","352","1173702","0.0-6.0-3.49","2955911","co39031","norming","","","{""guess"":""""}","","../img/tt/079tt.jpg","",""
"null","../img/gs/079gs.jpg","null","reveal","image-keyboard-response","353","1175708","0.0-6.0-4.49","2955911","co39031","norming","","","","","","",""
"null","../img/tt/079tt.jpg","null","mooney2","image-keyboard-response","354","1177711","0.0-6.0-5.49","2955911","co39031","norming","","","","","","",""
"2289.409999968484","","","post_reveal_questions","survey-likert","355","1180003","0.0-6.0-6.49","2955911","co39031","norming","","","{""aha"":2}","[0]","../img/tt/079tt.jpg","",""
"null","<div style=""font-size:60px;""> </div>","null","fixation","html-keyboard-response","356","1180208","0.0-6.0-0.50","2955911","co39031","norming","","","","","","",""
"null","../img/tt/378tt.jpg","null","mooney1","image-keyboard-response","357","1183214","0.0-6.0-1.50","2955911","co39031","norming","","","","","","",""
"6961.3749999552965","","","post_mooney1_questions","survey-likert","358","1190179","0.0-6.0-2.50","2955911","co39031","norming","","","{""curiosity"":5,""confidence"":2}","[0,1]","../img/tt/378tt.jpg","",""
"2557.0450000232086","","","recognition","survey-text","359","1192740","0.0-6.0-3.50","2955911","co39031","norming","","","{""guess"":""wasbeer""}","","../img/tt/378tt.jpg","",""
"null","../img/gs/378gs.jpg","null","reveal","image-keyboard-response","360","1194748","0.0-6.0-4.50","2955911","co39031","norming","","","","","","",""
"null","../img/tt/378tt.jpg","null","mooney2","image-keyboard-response","361","1196752","0.0-6.0-5.50","2955911","co39031","norming","","","","","","",""
"2610.590000054799","","","post_reveal_questions","survey-likert","362","1199366","0.0-6.0-6.50","2955911","co39031","norming","","","{""aha"":4}","[0]","../img/tt/378tt.jpg","",""
"null","<div style=""font-size:60px;""> </div>","null","fixation","html-keyboard-response","363","1199571","0.0-6.0-0.51","2955911","co39031","norming","","","","","","",""
"null","../img/tt/1309tt.jpg","null","mooney1","image-keyboard-response","364","1202574","0.0-6.0-1.51","2955911","co39031","norming","","","","","","",""
"6825.904999976046","","","post_mooney1_questions","survey-likert","365","1209404","0.0-6.0-2.51","2955911","co39031","norming","","","{""curiosity"":5,""confidence"":2}","[0,1]","../img/tt/1309tt.jpg","",""
"1988.480000058189","","","recognition","survey-text","366","1211396","0.0-6.0-3.51","2955911","co39031","norming","","","{""guess"":""auto""}","","../img/tt/1309tt.jpg","",""
"null","../img/gs/1309gs.jpg","null","reveal","image-keyboard-response","367","1213400","0.0-6.0-4.51","2955911","co39031","norming","","","","","","",""
"null","../img/tt/1309tt.jpg","null","mooney2","image-keyboard-response","368","1215402","0.0-6.0-5.51","2955911","co39031","norming","","","","","","",""
"5245.839999988675","","","post_reveal_questions","survey-likert","369","1220650","0.0-6.0-6.51","2955911","co39031","norming","","","{""aha"":2}","[0]","../img/tt/1309tt.jpg","",""
"null","<div style=""font-size:60px;""> </div>","null","fixation","html-keyboard-response","370","1220853","0.0-6.0-0.52","2955911","co39031","norming","","","","","","",""
"null","../img/tt/456tt.jpg","null","mooney1","image-keyboard-response","371","1223857","0.0-6.0-1.52","2955911","co39031","norming","","","","","","",""
"6459.1050000162795","","","post_mooney1_questions","survey-likert","372","1230320","0.0-6.0-2.52","2955911","co39031","norming","","","{""curiosity"":3,""confidence"":5}","[0,1]","../img/tt/456tt.jpg","",""
"8025.619999971241","","","recognition","survey-text","373","1238349","0.0-6.0-3.52","2955911","co39031","norming","","","{""guess"":""zeehond""}","","../img/tt/456tt.jpg","",""
"null","../img/gs/456gs.jpg","null","reveal","image-keyboard-response","374","1240353","0.0-6.0-4.52","2955911","co39031","norming","","","","","","",""
"null","../img/tt/456tt.jpg","null","mooney2","image-keyboard-response","375","1242359","0.0-6.0-5.52","2955911","co39031","norming","","","","","","",""
"4747.485000058077","","","post_reveal_questions","survey-likert","376","1247109","0.0-6.0-6.52","2955911","co39031","norming","","","{""aha"":3}","[0]","../img/tt/456tt.jpg","",""
"null","<div style=""font-size:60px;""> </div>","null","fixation","html-keyboard-response","377","1247312","0.0-6.0-0.53","2955911","co39031","norming","","","","","","",""
"null","../img/tt/412tt.jpg","null","mooney1","image-keyboard-response","378","1250317","0.0-6.0-1.53","2955911","co39031","norming","","","","","","",""
"4250.334999989718","","","post_mooney1_questions","survey-likert","379","1254571","0.0-6.0-2.53","2955911","co39031","norming","","","{""curiosity"":5,""confidence"":0}","[0,1]","../img/tt/412tt.jpg","",""
"328.90000008046627","","","recognition","survey-text","380","1254904","0.0-6.0-3.53","2955911","co39031","norming","","","{""guess"":""""}","","../img/tt/412tt.jpg","",""
"null","../img/gs/412gs.jpg","null","reveal","image-keyboard-response","381","1256909","0.0-6.0-4.53","2955911","co39031","norming","","","","","","",""
"null","../img/tt/412tt.jpg","null","mooney2","image-keyboard-response","382","1258915","0.0-6.0-5.53","2955911","co39031","norming","","","","","","",""
"2295.255000004545","","","post_reveal_questions","survey-likert","383","1261213","0.0-6.0-6.53","2955911","co39031","norming","","","{""aha"":1}","[0]","../img/tt/412tt.jpg","",""
"null","<div style=""font-size:60px;""> </div>","null","fixation","html-keyboard-response","384","1261419","0.0-6.0-0.54","2955911","co39031","norming","","","","","","",""
"null","../img/tt/306tt.jpg","null","mooney1","image-keyboard-response","385","1264423","0.0-6.0-1.54","2955911","co39031","norming","","","","","","",""
"6161.589999916032","","","post_mooney1_questions","survey-likert","386","1270588","0.0-6.0-2.54","2955911","co39031","norming","","","{""curiosity"":4,""confidence"":1}","[0,1]","../img/tt/306tt.jpg","",""
"5119.625000050291","","","recognition","survey-text","387","1275711","0.0-6.0-3.54","2955911","co39031","norming","","","{""guess"":""grijpend hand""}","","../img/tt/306tt.jpg","",""
"null","../img/gs/306gs.jpg","null","reveal","image-keyboard-response","388","1277719","0.0-6.0-4.54","2955911","co39031","norming","","","","","","",""
"null","../img/tt/306tt.jpg","null","mooney2","image-keyboard-response","389","1279723","0.0-6.0-5.54","2955911","co39031","norming","","","","","","",""
"9364.500000025146","","","post_reveal_questions","survey-likert","390","1289090","0.0-6.0-6.54","2955911","co39031","norming","","","{""aha"":3}","[0]","../img/tt/306tt.jpg","",""
"null","<div style=""font-size:60px;""> </div>","null","fixation","html-keyboard-response","391","1289293","0.0-6.0-0.55","2955911","co39031","norming","","","","","","",""
"null","../img/tt/1181tt.jpg","null","mooney1","image-keyboard-response","392","1292297","0.0-6.0-1.55","2955911","co39031","norming","","","","","","",""
"6892.250000033528","","","post_mooney1_questions","survey-likert","393","1299193","0.0-6.0-2.55","2955911","co39031","norming","","","{""curiosity"":5,""confidence"":4}","[0,1]","../img/tt/1181tt.jpg","",""
"5482.795000076294","","","recognition","survey-text","394","1304680","0.0-6.0-3.55","2955911","co39031","norming","","","{""guess"":""2 mannen""}","","../img/tt/1181tt.jpg","",""
"null","../img/gs/1181gs.jpg","null","reveal","image-keyboard-response","395","1306687","0.0-6.0-4.55","2955911","co39031","norming","","","","","","",""
"null","../img/tt/1181tt.jpg","null","mooney2","image-keyboard-response","396","1308689","0.0-6.0-5.55","2955911","co39031","norming","","","","","","",""
"2307.3899999726564","","","post_reveal_questions","survey-likert","397","1311000","0.0-6.0-6.55","2955911","co39031","norming","","","{""aha"":5}","[0]","../img/tt/1181tt.jpg","",""
"null","<div style=""font-size:60px;""> </div>","null","fixation","html-keyboard-response","398","1311205","0.0-6.0-0.56","2955911","co39031","norming","","","","","","",""
"null","../img/tt/118tt.jpg","null","mooney1","image-keyboard-response","399","1314212","0.0-6.0-1.56","2955911","co39031","norming","","","","","","",""
"8952.004999970086","","","post_mooney1_questions","survey-likert","400","1323168","0.0-6.0-2.56","2955911","co39031","norming","","","{""curiosity"":5,""confidence"":1}","[0,1]","../img/tt/118tt.jpg","",""
"168.85500005446374","","","recognition","survey-text","401","1323340","0.0-6.0-3.56","2955911","co39031","norming","","","{""guess"":""""}","","../img/tt/118tt.jpg","",""
"null","../img/gs/118gs.jpg","null","reveal","image-keyboard-response","402","1325347","0.0-6.0-4.56","2955911","co39031","norming","","","","","","",""
"null","../img/tt/118tt.jpg","null","mooney2","image-keyboard-response","403","1327352","0.0-6.0-5.56","2955911","co39031","norming","","","","","","",""
"3142.2249999595806","","","post_reveal_questions","survey-likert","404","1330496","0.0-6.0-6.56","2955911","co39031","norming","","","{""aha"":2}","[0]","../img/tt/118tt.jpg","",""
"null","<div style=""font-size:60px;""> </div>","null","fixation","html-keyboard-response","405","1330700","0.0-6.0-0.57","2955911","co39031","norming","","","","","","",""
"null","../img/tt/318tt.jpg","null","mooney1","image-keyboard-response","406","1333709","0.0-6.0-1.57","2955911","co39031","norming","","","","","","",""
"5289.024999947287","","","post_mooney1_questions","survey-likert","407","1339002","0.0-6.0-2.57","2955911","co39031","norming","","","{""curiosity"":5,""confidence"":1}","[0,1]","../img/tt/318tt.jpg","",""
"1087.5049999449402","","","recognition","survey-text","408","1340093","0.0-6.0-3.57","2955911","co39031","norming","","","{""guess"":""""}","","../img/tt/318tt.jpg","",""
"null","../img/gs/318gs.jpg","null","reveal","image-keyboard-response","409","1342100","0.0-6.0-4.57","2955911","co39031","norming","","","","","","",""
"null","../img/tt/318tt.jpg","null","mooney2","image-keyboard-response","410","1344106","0.0-6.0-5.57","2955911","co39031","norming","","","","","","",""
"2603.59499999322","","","post_reveal_questions","survey-likert","411","1346712","0.0-6.0-6.57","2955911","co39031","norming","","","{""aha"":4}","[0]","../img/tt/318tt.jpg","",""
"null","<div style=""font-size:60px;""> </div>","null","fixation","html-keyboard-response","412","1346917","0.0-6.0-0.58","2955911","co39031","norming","","","","","","",""
"null","../img/tt/163tt.jpg","null","mooney1","image-keyboard-response","413","1349923","0.0-6.0-1.58","2955911","co39031","norming","","","","","","",""
"10675.59999995865","","","post_mooney1_questions","survey-likert","414","1360602","0.0-6.0-2.58","2955911","co39031","norming","","","{""curiosity"":4,""confidence"":5}","[0,1]","../img/tt/163tt.jpg","",""
"2632.8550000907853","","","recognition","survey-text","415","1363238","0.0-6.0-3.58","2955911","co39031","norming","","","{""guess"":""kikker""}","","../img/tt/163tt.jpg","",""
"null","../img/gs/163gs.jpg","null","reveal","image-keyboard-response","416","1365243","0.0-6.0-4.58","2955911","co39031","norming","","","","","","",""
"null","../img/tt/163tt.jpg","null","mooney2","image-keyboard-response","417","1367247","0.0-6.0-5.58","2955911","co39031","norming","","","","","","",""
"3748.5449999803677","","","post_reveal_questions","survey-likert","418","1370999","0.0-6.0-6.58","2955911","co39031","norming","","","{""aha"":0}","[0]","../img/tt/163tt.jpg","",""
"null","<div style=""font-size:60px;""> </div>","null","fixation","html-keyboard-response","419","1371201","0.0-6.0-0.59","2955911","co39031","norming","","","","","","",""
"null","../img/tt/126tt.jpg","null","mooney1","image-keyboard-response","420","1374210","0.0-6.0-1.59","2955911","co39031","norming","","","","","","",""
"4881.654999917373","","","post_mooney1_questions","survey-likert","421","1379094","0.0-6.0-2.59","2955911","co39031","norming","","","{""curiosity"":5,""confidence"":2}","[0,1]","../img/tt/126tt.jpg","",""
"1768.1099999463186","","","recognition","survey-text","422","1380865","0.0-6.0-3.59","2955911","co39031","norming","","","{""guess"":""hand""}","","../img/tt/126tt.jpg","",""
"null","../img/gs/126gs.jpg","null","reveal","image-keyboard-response","423","1382872","0.0-6.0-4.59","2955911","co39031","norming","","","","","","",""
"null","../img/tt/126tt.jpg","null","mooney2","image-keyboard-response","424","1384875","0.0-6.0-5.59","2955911","co39031","norming","","","","","","",""
"4222.910000011325","","","post_reveal_questions","survey-likert","425","1389101","0.0-6.0-6.59","2955911","co39031","norming","","","{""aha"":4}","[0]","../img/tt/126tt.jpg","",""
"null","<div style=""font-size:60px;""> </div>","null","fixation","html-keyboard-response","426","1389306","0.0-6.0-0.60","2955911","co39031","norming","","","","","","",""
"null","../img/tt/1262tt.jpg","null","mooney1","image-keyboard-response","427","1392311","0.0-6.0-1.60","2955911","co39031","norming","","","","","","",""
"7066.660000011325","","","post_mooney1_questions","survey-likert","428","1399381","0.0-6.0-2.60","2955911","co39031","norming","","","{""curiosity"":5,""confidence"":1}","[0,1]","../img/tt/1262tt.jpg","",""
"452.4050001055002","","","recognition","survey-text","429","1399837","0.0-6.0-3.60","2955911","co39031","norming","","","{""guess"":""""}","","../img/tt/1262tt.jpg","",""
"null","../img/gs/1262gs.jpg","null","reveal","image-keyboard-response","430","1401841","0.0-6.0-4.60","2955911","co39031","norming","","","","","","",""
"null","../img/tt/1262tt.jpg","null","mooney2","image-keyboard-response","431","1403847","0.0-6.0-5.60","2955911","co39031","norming","","","","","","",""
"3214.50499992352","","","post_reveal_questions","survey-likert","432","1407065","0.0-6.0-6.60","2955911","co39031","norming","","","{""aha"":4}","[0]","../img/tt/1262tt.jpg","",""
"null","<div style=""font-size:60px;""> </div>","null","fixation","html-keyboard-response","433","1407270","0.0-6.0-0.61","2955911","co39031","norming","","","","","","",""
"null","../img/tt/534tt.jpg","null","mooney1","image-keyboard-response","434","1410278","0.0-6.0-1.61","2955911","co39031","norming","","","","","","",""
"5661.28999995999","","","post_mooney1_questions","survey-likert","435","1415943","0.0-6.0-2.61","2955911","co39031","norming","","","{""curiosity"":5,""confidence"":2}","[0,1]","../img/tt/534tt.jpg","",""
"2966.2250000983477","","","recognition","survey-text","436","1418912","0.0-6.0-3.61","2955911","co39031","norming","","","{""guess"":""cactus""}","","../img/tt/534tt.jpg","",""
"null","../img/gs/534gs.jpg","null","reveal","image-keyboard-response","437","1420920","0.0-6.0-4.61","2955911","co39031","norming","","","","","","",""
"null","../img/tt/534tt.jpg","null","mooney2","image-keyboard-response","438","1422927","0.0-6.0-5.61","2955911","co39031","norming","","","","","","",""
"5290.350000024773","","","post_reveal_questions","survey-likert","439","1428220","0.0-6.0-6.61","2955911","co39031","norming","","","{""aha"":5}","[0]","../img/tt/534tt.jpg","",""
"null","<div style=""font-size:60px;""> </div>","null","fixation","html-keyboard-response","440","1428428","0.0-6.0-0.62","2955911","co39031","norming","","","","","","",""
"null","../img/tt/1125tt.jpg","null","mooney1","image-keyboard-response","441","1431437","0.0-6.0-1.62","2955911","co39031","norming","","","","","","",""
"6220.770000014454","","","post_mooney1_questions","survey-likert","442","1437662","0.0-6.0-2.62","2955911","co39031","norming","","","{""curiosity"":4,""confidence"":3}","[0,1]","../img/tt/1125tt.jpg","",""
"1983.2500000484288","","","recognition","survey-text","443","1439648","0.0-6.0-3.62","2955911","co39031","norming","","","{""guess"":""kind""}","","../img/tt/1125tt.jpg","",""
"null","../img/gs/1125gs.jpg","null","reveal","image-keyboard-response","444","1441652","0.0-6.0-4.62","2955911","co39031","norming","","","","","","",""
"null","../img/tt/1125tt.jpg","null","mooney2","image-keyboard-response","445","1443655","0.0-6.0-5.62","2955911","co39031","norming","","","","","","",""
"3756.885000038892","","","post_reveal_questions","survey-likert","446","1447415","0.0-6.0-6.62","2955911","co39031","norming","","","{""aha"":2}","[0]","../img/tt/1125tt.jpg","",""
"null","<div style=""font-size:60px;""> </div>","null","fixation","html-keyboard-response","447","1447621","0.0-6.0-0.63","2955911","co39031","norming","","","","","","",""
"null","../img/tt/1261tt.jpg","null","mooney1","image-keyboard-response","448","1450628","0.0-6.0-1.63","2955911","co39031","norming","","","","","","",""
"5151.734999963082","","","post_mooney1_questions","survey-likert","449","1455783","0.0-6.0-2.63","2955911","co39031","norming","","","{""curiosity"":6,""confidence"":1}","[0,1]","../img/tt/1261tt.jpg","",""
"342.1499999240041","","","recognition","survey-text","450","1456129","0.0-6.0-3.63","2955911","co39031","norming","","","{""guess"":""""}","","../img/tt/1261tt.jpg","",""
"null","../img/gs/1261gs.jpg","null","reveal","image-keyboard-response","451","1458132","0.0-6.0-4.63","2955911","co39031","norming","","","","","","",""
"null","../img/tt/1261tt.jpg","null","mooney2","image-keyboard-response","452","1460135","0.0-6.0-5.63","2955911","co39031","norming","","","","","","",""
"2467.5099999876693","","","post_reveal_questions","survey-likert","453","1462605","0.0-6.0-6.63","2955911","co39031","norming","","","{""aha"":5}","[0]","../img/tt/1261tt.jpg","",""
"null","<div style=""font-size:60px;""> </div>","null","fixation","html-keyboard-response","454","1462809","0.0-6.0-0.64","2955911","co39031","norming","","","","","","",""
"null","../img/tt/124tt.jpg","null","mooney1","image-keyboard-response","455","1465818","0.0-6.0-1.64","2955911","co39031","norming","","","","","","",""
"5202.159999986179","","","post_mooney1_questions","survey-likert","456","1471023","0.0-6.0-2.64","2955911","co39031","norming","","","{""curiosity"":3,""confidence"":5}","[0,1]","../img/tt/124tt.jpg","",""
"1937.374999979511","","","recognition","survey-text","457","1472964","0.0-6.0-3.64","2955911","co39031","norming","","","{""guess"":""aap""}","","../img/tt/124tt.jpg","",""
"null","../img/gs/124gs.jpg","null","reveal","image-keyboard-response","458","1474966","0.0-6.0-4.64","2955911","co39031","norming","","","","","","",""
"null","../img/tt/124tt.jpg","null","mooney2","image-keyboard-response","459","1476972","0.0-6.0-5.64","2955911","co39031","norming","","","","","","",""
"3357.270000036806","","","post_reveal_questions","survey-likert","460","1480332","0.0-6.0-6.64","2955911","co39031","norming","","","{""aha"":1}","[0]","../img/tt/124tt.jpg","",""
"null","<div style=""font-size:60px;""> </div>","null","fixation","html-keyboard-response","461","1480537","0.0-6.0-0.65","2955911","co39031","norming","","","","","","",""
"null","../img/tt/481tt.jpg","null","mooney1","image-keyboard-response","462","1483541","0.0-6.0-1.65","2955911","co39031","norming","","","","","","",""
"6412.475000019185","","","post_mooney1_questions","survey-likert","463","1489957","0.0-6.0-2.65","2955911","co39031","norming","","","{""curiosity"":5,""confidence"":2}","[0,1]","../img/tt/481tt.jpg","",""
"4753.900000010617","","","recognition","survey-text","464","1494714","0.0-6.0-3.65","2955911","co39031","norming","","","{""guess"":""nijlpaard""}","","../img/tt/481tt.jpg","",""
"null","../img/gs/481gs.jpg","null","reveal","image-keyboard-response","465","1496719","0.0-6.0-4.65","2955911","co39031","norming","","","","","","",""
"null","../img/tt/481tt.jpg","null","mooney2","image-keyboard-response","466","1498723","0.0-6.0-5.65","2955911","co39031","norming","","","","","","",""
"5061.014999984764","","","post_reveal_questions","survey-likert","467","1503787","0.0-6.0-6.65","2955911","co39031","norming","","","{""aha"":5}","[0]","../img/tt/481tt.jpg","",""
"null","<div style=""font-size:60px;""> </div>","null","fixation","html-keyboard-response","468","1503991","0.0-6.0-0.66","2955911","co39031","norming","","","","","","",""
"null","../img/tt/1235tt.jpg","null","mooney1","image-keyboard-response","469","1507000","0.0-6.0-1.66","2955911","co39031","norming","","","","","","",""
"6577.279999968596","","","post_mooney1_questions","survey-likert","470","1513581","0.0-6.0-2.66","2955911","co39031","norming","","","{""curiosity"":4,""confidence"":2}","[0,1]","../img/tt/1235tt.jpg","",""
"2450.135000050068","","","recognition","survey-text","471","1516034","0.0-6.0-3.66","2955911","co39031","norming","","","{""guess"":""kippen""}","","../img/tt/1235tt.jpg","",""
"null","../img/gs/1235gs.jpg","null","reveal","image-keyboard-response","472","1518039","0.0-6.0-4.66","2955911","co39031","norming","","","","","","",""
"null","../img/tt/1235tt.jpg","null","mooney2","image-keyboard-response","473","1520042","0.0-6.0-5.66","2955911","co39031","norming","","","","","","",""
"3473.175000050105","","","post_reveal_questions","survey-likert","474","1523518","0.0-6.0-6.66","2955911","co39031","norming","","","{""aha"":4}","[0]","../img/tt/1235tt.jpg","",""
"null","<div style=""font-size:60px;""> </div>","null","fixation","html-keyboard-response","475","1523721","0.0-6.0-0.67","2955911","co39031","norming","","","","","","",""
"null","../img/tt/559tt.jpg","null","mooney1","image-keyboard-response","476","1526728","0.0-6.0-1.67","2955911","co39031","norming","","","","","","",""
"4346.320000011474","","","post_mooney1_questions","survey-likert","477","1531078","0.0-6.0-2.67","2955911","co39031","norming","","","{""curiosity"":6,""confidence"":0}","[0,1]","../img/tt/559tt.jpg","",""
"170.94000009819865","","","recognition","survey-text","478","1531252","0.0-6.0-3.67","2955911","co39031","norming","","","{""guess"":""""}","","../img/tt/559tt.jpg","",""
"null","../img/gs/559gs.jpg","null","reveal","image-keyboard-response","479","1533254","0.0-6.0-4.67","2955911","co39031","norming","","","","","","",""
"null","../img/tt/559tt.jpg","null","mooney2","image-keyboard-response","480","1535260","0.0-6.0-5.67","2955911","co39031","norming","","","","","","",""
"3768.294999958016","","","post_reveal_questions","survey-likert","481","1539032","0.0-6.0-6.67","2955911","co39031","norming","","","{""aha"":5}","[0]","../img/tt/559tt.jpg","",""
"null","<div style=""font-size:60px;""> </div>","null","fixation","html-keyboard-response","482","1539239","0.0-6.0-0.68","2955911","co39031","norming","","","","","","",""
"null","../img/tt/007tt.jpg","null","mooney1","image-keyboard-response","483","1542244","0.0-6.0-1.68","2955911","co39031","norming","","","","","","",""
"4069.53999993857","","","post_mooney1_questions","survey-likert","484","1546317","0.0-6.0-2.68","2955911","co39031","norming","","","{""curiosity"":5,""confidence"":1}","[0,1]","../img/tt/007tt.jpg","",""
"3724.364999914542","","","recognition","survey-text","485","1550045","0.0-6.0-3.68","2955911","co39031","norming","","","{""guess"":""walrus""}","","../img/tt/007tt.jpg","",""
"null","../img/gs/007gs.jpg","null","reveal","image-keyboard-response","486","1552047","0.0-6.0-4.68","2955911","co39031","norming","","","","","","",""
"null","../img/tt/007tt.jpg","null","mooney2","image-keyboard-response","487","1554051","0.0-6.0-5.68","2955911","co39031","norming","","","","","","",""
"3618.6699999962","","","post_reveal_questions","survey-likert","488","1557672","0.0-6.0-6.68","2955911","co39031","norming","","","{""aha"":3}","[0]","../img/tt/007tt.jpg","",""
"null","<div style=""font-size:60px;""> </div>","null","fixation","html-keyboard-response","489","1557878","0.0-6.0-0.69","2955911","co39031","norming","","","","","","",""
"null","../img/tt/1199tt.jpg","null","mooney1","image-keyboard-response","490","1560887","0.0-6.0-1.69","2955911","co39031","norming","","","","","","",""
"4394.070000038482","","","post_mooney1_questions","survey-likert","491","1565285","0.0-6.0-2.69","2955911","co39031","norming","","","{""curiosity"":5,""confidence"":1}","[0,1]","../img/tt/1199tt.jpg","",""
"2167.365000001155","","","recognition","survey-text","492","1567456","0.0-6.0-3.69","2955911","co39031","norming","","","{""guess"":""sniper""}","","../img/tt/1199tt.jpg","",""
"null","../img/gs/1199gs.jpg","null","reveal","image-keyboard-response","493","1569460","0.0-6.0-4.69","2955911","co39031","norming","","","","","","",""
"null","../img/tt/1199tt.jpg","null","mooney2","image-keyboard-response","494","1571465","0.0-6.0-5.69","2955911","co39031","norming","","","","","","",""
"2630.280000041239","","","post_reveal_questions","survey-likert","495","1574100","0.0-6.0-6.69","2955911","co39031","norming","","","{""aha"":6}","[0]","../img/tt/1199tt.jpg","",""
"null","<div style=""font-size:60px;""> </div>","null","fixation","html-keyboard-response","496","1574310","0.0-6.0-0.70","2955911","co39031","norming","","","","","","",""
"null","../img/tt/1101tt.jpg","null","mooney1","image-keyboard-response","497","1577317","0.0-6.0-1.70","2955911","co39031","norming","","","","","","",""
"5284.150000079535","","","post_mooney1_questions","survey-likert","498","1582605","0.0-6.0-2.70","2955911","co39031","norming","","","{""curiosity"":5,""confidence"":3}","[0,1]","../img/tt/1101tt.jpg","",""
"3217.9349999642","","","recognition","survey-text","499","1585826","0.0-6.0-3.70","2955911","co39031","norming","","","{""guess"":""cowboy""}","","../img/tt/1101tt.jpg","",""
"null","../img/gs/1101gs.jpg","null","reveal","image-keyboard-response","500","1587831","0.0-6.0-4.70","2955911","co39031","norming","","","","","","",""
"null","../img/tt/1101tt.jpg","null","mooney2","image-keyboard-response","501","1589838","0.0-6.0-5.70","2955911","co39031","norming","","","","","","",""
"3759.624999947846","","","post_reveal_questions","survey-likert","502","1593600","0.0-6.0-6.70","2955911","co39031","norming","","","{""aha"":3}","[0]","../img/tt/1101tt.jpg","",""
"null","<div style=""font-size:60px;""> </div>","null","fixation","html-keyboard-response","503","1593805","0.0-6.0-0.71","2955911","co39031","norming","","","","","","",""
"null","../img/tt/1049tt.jpg","null","mooney1","image-keyboard-response","504","1596809","0.0-6.0-1.71","2955911","co39031","norming","","","","","","",""
"5013.464999967255","","","post_mooney1_questions","survey-likert","505","1601826","0.0-6.0-2.71","2955911","co39031","norming","","","{""curiosity"":5,""confidence"":2}","[0,1]","../img/tt/1049tt.jpg","",""
"2418.0750000523403","","","recognition","survey-text","506","1604247","0.0-6.0-3.71","2955911","co39031","norming","","","{""guess"":""schaap""}","","../img/tt/1049tt.jpg","",""
"null","../img/gs/1049gs.jpg","null","reveal","image-keyboard-response","507","1606249","0.0-6.0-4.71","2955911","co39031","norming","","","","","","",""
"null","../img/tt/1049tt.jpg","null","mooney2","image-keyboard-response","508","1608251","0.0-6.0-5.71","2955911","co39031","norming","","","","","","",""
"3047.6699999999255","","","post_reveal_questions","survey-likert","509","1611302","0.0-6.0-6.71","2955911","co39031","norming","","","{""aha"":1}","[0]","../img/tt/1049tt.jpg","",""
"null","<div style=""font-size:60px;""> </div>","null","fixation","html-keyboard-response","510","1611507","0.0-6.0-0.72","2955911","co39031","norming","","","","","","",""
"null","../img/tt/1186tt.jpg","null","mooney1","image-keyboard-response","511","1614511","0.0-6.0-1.72","2955911","co39031","norming","","","","","","",""
"8683.44499997329","","","post_mooney1_questions","survey-likert","512","1623198","0.0-6.0-2.72","2955911","co39031","norming","","","{""curiosity"":5,""confidence"":4}","[0,1]","../img/tt/1186tt.jpg","",""
"2931.429999996908","","","recognition","survey-text","513","1626134","0.0-6.0-3.72","2955911","co39031","norming","","","{""guess"":""cowbiy""}","","../img/tt/1186tt.jpg","",""
"null","../img/gs/1186gs.jpg","null","reveal","image-keyboard-response","514","1628141","0.0-6.0-4.72","2955911","co39031","norming","","","","","","",""
"null","../img/tt/1186tt.jpg","null","mooney2","image-keyboard-response","515","1630144","0.0-6.0-5.72","2955911","co39031","norming","","","","","","",""
"2633.48999992013","","","post_reveal_questions","survey-likert","516","1632780","0.0-6.0-6.72","2955911","co39031","norming","","","{""aha"":4}","[0]","../img/tt/1186tt.jpg","",""
"null","<div style=""font-size:60px;""> </div>","null","fixation","html-keyboard-response","517","1632985","0.0-6.0-0.73","2955911","co39031","norming","","","","","","",""
"null","../img/tt/1097tt.jpg","null","mooney1","image-keyboard-response","518","1635991","0.0-6.0-1.73","2955911","co39031","norming","","","","","","",""
"5935.0049999775365","","","post_mooney1_questions","survey-likert","519","1641929","0.0-6.0-2.73","2955911","co39031","norming","","","{""curiosity"":6,""confidence"":2}","[0,1]","../img/tt/1097tt.jpg","",""
"1579.7800000291318","","","recognition","survey-text","520","1643513","0.0-6.0-3.73","2955911","co39031","norming","","","{""guess"":""man""}","","../img/tt/1097tt.jpg","",""
"null","../img/gs/1097gs.jpg","null","reveal","image-keyboard-response","521","1645516","0.0-6.0-4.73","2955911","co39031","norming","","","","","","",""
"null","../img/tt/1097tt.jpg","null","mooney2","image-keyboard-response","522","1647519","0.0-6.0-5.73","2955911","co39031","norming","","","","","","",""
"3085.1049999473616","","","post_reveal_questions","survey-likert","523","1650607","0.0-6.0-6.73","2955911","co39031","norming","","","{""aha"":5}","[0]","../img/tt/1097tt.jpg","",""
"null","<div style=""font-size:60px;""> </div>","null","fixation","html-keyboard-response","524","1650812","0.0-6.0-0.74","2955911","co39031","norming","","","","","","",""
"null","../img/tt/1130tt.jpg","null","mooney1","image-keyboard-response","525","1653820","0.0-6.0-1.74","2955911","co39031","norming","","","","","","",""
"5090.1750000193715","","","post_mooney1_questions","survey-likert","526","1658913","0.0-6.0-2.74","2955911","co39031","norming","","","{""curiosity"":5,""confidence"":4}","[0,1]","../img/tt/1130tt.jpg","",""
"1500.8099999977276","","","recognition","survey-text","527","1660418","0.0-6.0-3.74","2955911","co39031","norming","","","{""guess"":""loper""}","","../img/tt/1130tt.jpg","",""
"null","../img/gs/1130gs.jpg","null","reveal","image-keyboard-response","528","1662420","0.0-6.0-4.74","2955911","co39031","norming","","","","","","",""
"null","../img/tt/1130tt.jpg","null","mooney2","image-keyboard-response","529","1664422","0.0-6.0-5.74","2955911","co39031","norming","","","","","","",""
"2352.7849999954924","","","post_reveal_questions","survey-likert","530","1666778","0.0-6.0-6.74","2955911","co39031","norming","","","{""aha"":5}","[0]","../img/tt/1130tt.jpg","",""
"null","<div style=""font-size:60px;""> </div>","null","fixation","html-keyboard-response","531","1666981","0.0-6.0-0.75","2955911","co39031","norming","","","","","","",""
"null","../img/tt/406tt.jpg","null","mooney1","image-keyboard-response","532","1669987","0.0-6.0-1.75","2955911","co39031","norming","","","","","","",""
"5727.919999975711","","","post_mooney1_questions","survey-likert","533","1675719","0.0-6.0-2.75","2955911","co39031","norming","","","{""curiosity"":6,""confidence"":0}","[0,1]","../img/tt/406tt.jpg","",""
"325.7950000697747","","","recognition","survey-text","534","1676047","0.0-6.0-3.75","2955911","co39031","norming","","","{""guess"":""""}","","../img/tt/406tt.jpg","",""
"null","../img/gs/406gs.jpg","null","reveal","image-keyboard-response","535","1678052","0.0-6.0-4.75","2955911","co39031","norming","","","","","","",""
"null","../img/tt/406tt.jpg","null","mooney2","image-keyboard-response","536","1680058","0.0-6.0-5.75","2955911","co39031","norming","","","","","","",""
"3510.2350000524893","","","post_reveal_questions","survey-likert","537","1683571","0.0-6.0-6.75","2955911","co39031","norming","","","{""aha"":4}","[0]","../img/tt/406tt.jpg","",""
"null","<div style=""font-size:60px;""> </div>","null","fixation","html-keyboard-response","538","1683779","0.0-6.0-0.76","2955911","co39031","norming","","","","","","",""
"null","../img/tt/1012tt.jpg","null","mooney1","image-keyboard-response","539","1686786","0.0-6.0-1.76","2955911","co39031","norming","","","","","","",""
"4492.450000019744","","","post_mooney1_questions","survey-likert","540","1691282","0.0-6.0-2.76","2955911","co39031","norming","","","{""curiosity"":6,""confidence"":0}","[0,1]","../img/tt/1012tt.jpg","",""
"168.45500003546476","","","recognition","survey-text","541","1691455","0.0-6.0-3.76","2955911","co39031","norming","","","{""guess"":""""}","","../img/tt/1012tt.jpg","",""
"null","../img/gs/1012gs.jpg","null","reveal","image-keyboard-response","542","1693457","0.0-6.0-4.76","2955911","co39031","norming","","","","","","",""
"null","../img/tt/1012tt.jpg","null","mooney2","image-keyboard-response","543","1695460","0.0-6.0-5.76","2955911","co39031","norming","","","","","","",""
"3078.789999941364","","","post_reveal_questions","survey-likert","544","1698542","0.0-6.0-6.76","2955911","co39031","norming","","","{""aha"":5}","[0]","../img/tt/1012tt.jpg","",""
"null","<div style=""font-size:60px;""> </div>","null","fixation","html-keyboard-response","545","1698748","0.0-6.0-0.77","2955911","co39031","norming","","","","","","",""
"null","../img/tt/013tt.jpg","null","mooney1","image-keyboard-response","546","1701753","0.0-6.0-1.77","2955911","co39031","norming","","","","","","",""
"5785.064999945462","","","post_mooney1_questions","survey-likert","547","1707542","0.0-6.0-2.77","2955911","co39031","norming","","","{""curiosity"":5,""confidence"":0}","[0,1]","../img/tt/013tt.jpg","",""
"392.77999999467283","","","recognition","survey-text","548","1707939","0.0-6.0-3.77","2955911","co39031","norming","","","{""guess"":""""}","","../img/tt/013tt.jpg","",""
"null","../img/gs/013gs.jpg","null","reveal","image-keyboard-response","549","1709947","0.0-6.0-4.77","2955911","co39031","norming","","","","","","",""
"null","../img/tt/013tt.jpg","null","mooney2","image-keyboard-response","550","1711952","0.0-6.0-5.77","2955911","co39031","norming","","","","","","",""
"2881.4499999862164","","","post_reveal_questions","survey-likert","551","1714837","0.0-6.0-6.77","2955911","co39031","norming","","","{""aha"":5}","[0]","../img/tt/013tt.jpg","",""
"null","<div style=""font-size:60px;""> </div>","null","fixation","html-keyboard-response","552","1715041","0.0-6.0-0.78","2955911","co39031","norming","","","","","","",""
