"rt","stimulus","key_press","test_part","trial_type","trial_index","time_elapsed","internal_node_id","totalTime","subject","experiment_name","button_pressed","success","responses","question_order","currentStim","old","correct"
"6458","Welcome to the experiment. This is an online experiment so please don't close the tab/window until we say goodbye.  Press any key to begin.","32","instructions","html-keyboard-response","0","6463","0.0-0.0","6787732","co39532","norming","","","","","","",""
"23884","<div style='word-wrap: break-word; width: 900px'><h3>Please consider this information carefully before deciding whether to participate in this research</h3><ul style='text-align: left; font-size: .8em;'><li><b>Purpose of the research</b>: To examine how people process images.</li><li><b>What you will do in this research</b>:  Stimuli (images) will be presented on the computer and you will be asked different questions about them.</li><li><b>Time required</b>: Participation will take between 45 and 60 minutes to complete.</li><li><b>Risks</b>:  There are no anticipated risks associated with participating in this study. The effects of participating should be comparable to those you would experience from viewing a computer monitor for 30 minutes and using a mouse or keyboard.</li><li><b>Benefits</b>:  This study provides no benefits to you individually except for the credit. The study provides important information about the nature of perception and learning.</li><li><b>Confidentiality</b>:  Your participation in this study will remain confidential. No personally identifiable information will be associated with your data. Your de-identified data may be shared with other researchers and used in future projects.</li><li><b>Participation and withdrawal</b>:  Your participation in this study is completely voluntary and you may refuse to participate or you may choose to withdraw at any time without penalty.</li><li><b>How to contact the researchers</b>: If you have questions or concerns about your participation or payment, or want to request a summary of research findings, please contact Sander Van de Cruys (KU Leuven), at sander.vandecruys@kuleuven.be.</li></ul><p>The nature and purpose of this research have been sufficiently explained and I agree to participate in this study.  I understand that I am free to withdraw at any time without incurring any penalty.</p><p>Please consent by clicking the button below to continue. Otherwise, please exit the study at this time.</p></div>","","instructions","html-button-response","1","30350","0.0-1.0","6787732","co39532","norming","0","","","","","",""
"","","","instructions","fullscreen","2","35643","0.0-2.0","6787732","co39532","norming","","true","","","","",""
"48836","","","sona","survey-html-form","3","84482","0.0-3.0","6787732","co39532","norming","","","[{""name"":""sonaid"",""value"":""39532""},{""name"":""debrief"",""value"":""yes""},{""name"":""datajoin"",""value"":""yes""}]","","","",""
"64506","<div style='word-wrap: break-word; width: 900px'><h3>Instructions</h3><p>This experiment will have 3 parts. In the first part you will see a series of distorted images like the one below on the left. As you can see in the righthand image, the distorted images are derived from actual photographs. In what follows, you will <strong>briefly</strong> be presented with <strong>only</strong> the distorted image.</p> <div style='float: left; margin-right: 20px;'><img src='../img/018tt.jpg' height='250' width='250'></img></div><div style='float: right; margin-left: 20px;'><img src='../img/018gs.jpg' height='250' width='250'></img></div><p>Subsequently you will be asked a few questions about the image: One question on how <strong>curious</strong> you are about the solution and one on how <strong>confident</strong> you are that you know the solution.</p>Next, we ask you to make a guess on what is in the image. Note that it is OK to name just the <strong>basic level category</strong>. For example when you see a parrot in the image, 'parrot' will obviously be a correct answer but also correct is 'bird'. However, 'animal' will <strong>not</strong> be counted as a correct response. For the example above, 'rose' would be correct or 'flower', but not 'plant'. When soccer players are depicted, 'soccer', 'football', 'soccer players' will be correct, but not 'humans', 'outdoors', or 'sports'. You do not need to describe the image in full, just name the main object in it <strong>in one or two words</strong>. All images depict objects from one of the following broad level categories: animals, inanimate objects, plants, sports, vehicles, and food. Recognizing means knowing <strong>more</strong> than these broad labels for a given image. But we always encourage you to <strong>make a guess</strong> if you can. Note that you are allowed to use <strong>Dutch and English</strong> in your answers, whatever comes easiest for you.</p><p>Press any key to continue.</p></div>","32","instructions","html-keyboard-response","4","148992","0.0-4.0","6787732","co39532","norming","","","","","","",""
"25642","<div style='word-wrap: break-word; width: 900px'><h3>Instructions</h3> <p>Next, the solution image will be revealed to you and you'll be asked to indicate how strong your <strong>aha-experience</strong> was after seeing the solution. This describes the positive feeling of the 'click' you sometimes experience, when the pieces of the 'puzzle' fall together and you suddenly have 'insight' in the image.</p><img src='aha.jpg' height='188' width='250'></img><p>Note that there are no right or wrong answers. We are interested in what <strong>you</strong> see in the image and how <strong>you</strong> feel about it.</p><p>Press any key to start the experiment.</p></div>","32","instructions","html-keyboard-response","5","174636","0.0-5.0","6787732","co39532","norming","","","","","","",""
"null","<div style=""font-size:60px;""> </div>","null","fixation","html-keyboard-response","6","174837","0.0-6.0-0.0","6787732","co39532","norming","","","","","","",""
"null","../img/tt/507tt.jpg","null","mooney1","image-keyboard-response","7","177841","0.0-6.0-1.0","6787732","co39532","norming","","","","","","",""
"11608","","","post_mooney1_questions","survey-likert","8","189453","0.0-6.0-2.0","6787732","co39532","norming","","","{""curiosity"":4,""confidence"":4}","[0,1]","../img/tt/507tt.jpg","",""
"7602","","","recognition","survey-text","9","197063","0.0-6.0-3.0","6787732","co39532","norming","","","{""guess"":""vrouw""}","","../img/tt/507tt.jpg","",""
"null","../img/gs/507gs.jpg","null","reveal","image-keyboard-response","10","199066","0.0-6.0-4.0","6787732","co39532","norming","","","","","","",""
"null","../img/tt/507tt.jpg","null","mooney2","image-keyboard-response","11","201068","0.0-6.0-5.0","6787732","co39532","norming","","","","","","",""
"4068","","","post_reveal_questions","survey-likert","12","205138","0.0-6.0-6.0","6787732","co39532","norming","","","{""aha"":2}","[0]","../img/tt/507tt.jpg","",""
"null","<div style=""font-size:60px;""> </div>","null","fixation","html-keyboard-response","13","205344","0.0-6.0-0.1","6787732","co39532","norming","","","","","","",""
"null","../img/tt/477tt.jpg","null","mooney1","image-keyboard-response","14","208347","0.0-6.0-1.1","6787732","co39532","norming","","","","","","",""
"4433","","","post_mooney1_questions","survey-likert","15","212782","0.0-6.0-2.1","6787732","co39532","norming","","","{""curiosity"":5,""confidence"":2}","[0,1]","../img/tt/477tt.jpg","",""
"7123.000000000029","","","recognition","survey-text","16","219913","0.0-6.0-3.1","6787732","co39532","norming","","","{""guess"":""""}","","../img/tt/477tt.jpg","",""
"null","../img/gs/477gs.jpg","null","reveal","image-keyboard-response","17","221916","0.0-6.0-4.1","6787732","co39532","norming","","","","","","",""
"null","../img/tt/477tt.jpg","null","mooney2","image-keyboard-response","18","223918","0.0-6.0-5.1","6787732","co39532","norming","","","","","","",""
"2042","","","post_reveal_questions","survey-likert","19","225962","0.0-6.0-6.1","6787732","co39532","norming","","","{""aha"":5}","[0]","../img/tt/477tt.jpg","",""
"null","<div style=""font-size:60px;""> </div>","null","fixation","html-keyboard-response","20","226165","0.0-6.0-0.2","6787732","co39532","norming","","","","","","",""
"null","../img/tt/1261tt.jpg","null","mooney1","image-keyboard-response","21","229168","0.0-6.0-1.2","6787732","co39532","norming","","","","","","",""
"5369","","","post_mooney1_questions","survey-likert","22","234539","0.0-6.0-2.2","6787732","co39532","norming","","","{""curiosity"":4,""confidence"":3}","[0,1]","../img/tt/1261tt.jpg","",""
"4596.999999999942","","","recognition","survey-text","23","239145","0.0-6.0-3.2","6787732","co39532","norming","","","{""guess"":""Hamster""}","","../img/tt/1261tt.jpg","",""
"null","../img/gs/1261gs.jpg","null","reveal","image-keyboard-response","24","241147","0.0-6.0-4.2","6787732","co39532","norming","","","","","","",""
"null","../img/tt/1261tt.jpg","null","mooney2","image-keyboard-response","25","243149","0.0-6.0-5.2","6787732","co39532","norming","","","","","","",""
"3113","","","post_reveal_questions","survey-likert","26","246264","0.0-6.0-6.2","6787732","co39532","norming","","","{""aha"":5}","[0]","../img/tt/1261tt.jpg","",""
"null","<div style=""font-size:60px;""> </div>","null","fixation","html-keyboard-response","27","246468","0.0-6.0-0.3","6787732","co39532","norming","","","","","","",""
"null","../img/tt/121tt.jpg","null","mooney1","image-keyboard-response","28","249470","0.0-6.0-1.3","6787732","co39532","norming","","","","","","",""
"3980","","","post_mooney1_questions","survey-likert","29","253452","0.0-6.0-2.3","6787732","co39532","norming","","","{""curiosity"":5,""confidence"":2}","[0,1]","../img/tt/121tt.jpg","",""
"3025","","","recognition","survey-text","30","256485","0.0-6.0-3.3","6787732","co39532","norming","","","{""guess"":""vogel""}","","../img/tt/121tt.jpg","",""
"null","../img/gs/121gs.jpg","null","reveal","image-keyboard-response","31","258488","0.0-6.0-4.3","6787732","co39532","norming","","","","","","",""
"null","../img/tt/121tt.jpg","null","mooney2","image-keyboard-response","32","260491","0.0-6.0-5.3","6787732","co39532","norming","","","","","","",""
"3150","","","post_reveal_questions","survey-likert","33","263642","0.0-6.0-6.3","6787732","co39532","norming","","","{""aha"":6}","[0]","../img/tt/121tt.jpg","",""
"null","<div style=""font-size:60px;""> </div>","null","fixation","html-keyboard-response","34","263845","0.0-6.0-0.4","6787732","co39532","norming","","","","","","",""
"null","../img/tt/055tt.jpg","null","mooney1","image-keyboard-response","35","266847","0.0-6.0-1.4","6787732","co39532","norming","","","","","","",""
"5066","","","post_mooney1_questions","survey-likert","36","271915","0.0-6.0-2.4","6787732","co39532","norming","","","{""curiosity"":5,""confidence"":2}","[0,1]","../img/tt/055tt.jpg","",""
"2258.999999999942","","","recognition","survey-text","37","274182","0.0-6.0-3.4","6787732","co39532","norming","","","{""guess"":""emmer""}","","../img/tt/055tt.jpg","",""
"null","../img/gs/055gs.jpg","null","reveal","image-keyboard-response","38","276185","0.0-6.0-4.4","6787732","co39532","norming","","","","","","",""
"null","../img/tt/055tt.jpg","null","mooney2","image-keyboard-response","39","278187","0.0-6.0-5.4","6787732","co39532","norming","","","","","","",""
"1876","","","post_reveal_questions","survey-likert","40","280065","0.0-6.0-6.4","6787732","co39532","norming","","","{""aha"":4}","[0]","../img/tt/055tt.jpg","",""
"null","<div style=""font-size:60px;""> </div>","null","fixation","html-keyboard-response","41","280268","0.0-6.0-0.5","6787732","co39532","norming","","","","","","",""
"null","../img/tt/1096tt.jpg","null","mooney1","image-keyboard-response","42","283271","0.0-6.0-1.5","6787732","co39532","norming","","","","","","",""
"3986","","","post_mooney1_questions","survey-likert","43","287259","0.0-6.0-2.5","6787732","co39532","norming","","","{""curiosity"":5,""confidence"":1}","[0,1]","../img/tt/1096tt.jpg","",""
"1087","","","recognition","survey-text","44","288354","0.0-6.0-3.5","6787732","co39532","norming","","","{""guess"":""""}","","../img/tt/1096tt.jpg","",""
"null","../img/gs/1096gs.jpg","null","reveal","image-keyboard-response","45","290357","0.0-6.0-4.5","6787732","co39532","norming","","","","","","",""
"null","../img/tt/1096tt.jpg","null","mooney2","image-keyboard-response","46","292359","0.0-6.0-5.5","6787732","co39532","norming","","","","","","",""
"2664","","","post_reveal_questions","survey-likert","47","295025","0.0-6.0-6.5","6787732","co39532","norming","","","{""aha"":5}","[0]","../img/tt/1096tt.jpg","",""
"null","<div style=""font-size:60px;""> </div>","null","fixation","html-keyboard-response","48","295229","0.0-6.0-0.6","6787732","co39532","norming","","","","","","",""
"null","../img/tt/1202tt.jpg","null","mooney1","image-keyboard-response","49","298232","0.0-6.0-1.6","6787732","co39532","norming","","","","","","",""
"5389.999999999942","","","post_mooney1_questions","survey-likert","50","303623","0.0-6.0-2.6","6787732","co39532","norming","","","{""curiosity"":5,""confidence"":2}","[0,1]","../img/tt/1202tt.jpg","",""
"807","","","recognition","survey-text","51","304438","0.0-6.0-3.6","6787732","co39532","norming","","","{""guess"":""""}","","../img/tt/1202tt.jpg","",""
"null","../img/gs/1202gs.jpg","null","reveal","image-keyboard-response","52","306441","0.0-6.0-4.6","6787732","co39532","norming","","","","","","",""
"null","../img/tt/1202tt.jpg","null","mooney2","image-keyboard-response","53","308443","0.0-6.0-5.6","6787732","co39532","norming","","","","","","",""
"2446","","","post_reveal_questions","survey-likert","54","310890","0.0-6.0-6.6","6787732","co39532","norming","","","{""aha"":5}","[0]","../img/tt/1202tt.jpg","",""
"null","<div style=""font-size:60px;""> </div>","null","fixation","html-keyboard-response","55","311093","0.0-6.0-0.7","6787732","co39532","norming","","","","","","",""
"null","../img/tt/1237tt.jpg","null","mooney1","image-keyboard-response","56","314096","0.0-6.0-1.7","6787732","co39532","norming","","","","","","",""
"7131","","","post_mooney1_questions","survey-likert","57","321229","0.0-6.0-2.7","6787732","co39532","norming","","","{""curiosity"":5,""confidence"":3}","[0,1]","../img/tt/1237tt.jpg","",""
"3163.000000000058","","","recognition","survey-text","58","324399","0.0-6.0-3.7","6787732","co39532","norming","","","{""guess"":""krokodil""}","","../img/tt/1237tt.jpg","",""
"null","../img/gs/1237gs.jpg","null","reveal","image-keyboard-response","59","326402","0.0-6.0-4.7","6787732","co39532","norming","","","","","","",""
"null","../img/tt/1237tt.jpg","null","mooney2","image-keyboard-response","60","328404","0.0-6.0-5.7","6787732","co39532","norming","","","","","","",""
"1800","","","post_reveal_questions","survey-likert","61","330206","0.0-6.0-6.7","6787732","co39532","norming","","","{""aha"":5}","[0]","../img/tt/1237tt.jpg","",""
"null","<div style=""font-size:60px;""> </div>","null","fixation","html-keyboard-response","62","330410","0.0-6.0-0.8","6787732","co39532","norming","","","","","","",""
"null","../img/tt/1262tt.jpg","null","mooney1","image-keyboard-response","63","333413","0.0-6.0-1.8","6787732","co39532","norming","","","","","","",""
"4521","","","post_mooney1_questions","survey-likert","64","337935","0.0-6.0-2.8","6787732","co39532","norming","","","{""curiosity"":4,""confidence"":2}","[0,1]","../img/tt/1262tt.jpg","",""
"2384","","","recognition","survey-text","65","340327","0.0-6.0-3.8","6787732","co39532","norming","","","{""guess"":""man""}","","../img/tt/1262tt.jpg","",""
"null","../img/gs/1262gs.jpg","null","reveal","image-keyboard-response","66","342329","0.0-6.0-4.8","6787732","co39532","norming","","","","","","",""
"null","../img/tt/1262tt.jpg","null","mooney2","image-keyboard-response","67","344332","0.0-6.0-5.8","6787732","co39532","norming","","","","","","",""
"2061","","","post_reveal_questions","survey-likert","68","346394","0.0-6.0-6.8","6787732","co39532","norming","","","{""aha"":5}","[0]","../img/tt/1262tt.jpg","",""
"null","<div style=""font-size:60px;""> </div>","null","fixation","html-keyboard-response","69","346597","0.0-6.0-0.9","6787732","co39532","norming","","","","","","",""
"null","../img/tt/357tt.jpg","null","mooney1","image-keyboard-response","70","349600","0.0-6.0-1.9","6787732","co39532","norming","","","","","","",""
"3716","","","post_mooney1_questions","survey-likert","71","353317","0.0-6.0-2.9","6787732","co39532","norming","","","{""curiosity"":4,""confidence"":3}","[0,1]","../img/tt/357tt.jpg","",""
"2816","","","recognition","survey-text","72","356141","0.0-6.0-3.9","6787732","co39532","norming","","","{""guess"":""vogel""}","","../img/tt/357tt.jpg","",""
"null","../img/gs/357gs.jpg","null","reveal","image-keyboard-response","73","358143","0.0-6.0-4.9","6787732","co39532","norming","","","","","","",""
"null","../img/tt/357tt.jpg","null","mooney2","image-keyboard-response","74","360145","0.0-6.0-5.9","6787732","co39532","norming","","","","","","",""
"2834","","","post_reveal_questions","survey-likert","75","362980","0.0-6.0-6.9","6787732","co39532","norming","","","{""aha"":4}","[0]","../img/tt/357tt.jpg","",""
"null","<div style=""font-size:60px;""> </div>","null","fixation","html-keyboard-response","76","363184","0.0-6.0-0.10","6787732","co39532","norming","","","","","","",""
"null","../img/tt/1116tt.jpg","null","mooney1","image-keyboard-response","77","366187","0.0-6.0-1.10","6787732","co39532","norming","","","","","","",""
"4468","","","post_mooney1_questions","survey-likert","78","370657","0.0-6.0-2.10","6787732","co39532","norming","","","{""curiosity"":4,""confidence"":2}","[0,1]","../img/tt/1116tt.jpg","",""
"3727","","","recognition","survey-text","79","374392","0.0-6.0-3.10","6787732","co39532","norming","","","{""guess"":""Vliegtuig""}","","../img/tt/1116tt.jpg","",""
"null","../img/gs/1116gs.jpg","null","reveal","image-keyboard-response","80","376395","0.0-6.0-4.10","6787732","co39532","norming","","","","","","",""
"null","../img/tt/1116tt.jpg","null","mooney2","image-keyboard-response","81","378398","0.0-6.0-5.10","6787732","co39532","norming","","","","","","",""
"1803","","","post_reveal_questions","survey-likert","82","380201","0.0-6.0-6.10","6787732","co39532","norming","","","{""aha"":4}","[0]","../img/tt/1116tt.jpg","",""
"null","<div style=""font-size:60px;""> </div>","null","fixation","html-keyboard-response","83","380405","0.0-6.0-0.11","6787732","co39532","norming","","","","","","",""
"null","../img/tt/517tt.jpg","null","mooney1","image-keyboard-response","84","383407","0.0-6.0-1.11","6787732","co39532","norming","","","","","","",""
"8068.000000000058","","","post_mooney1_questions","survey-likert","85","391478","0.0-6.0-2.11","6787732","co39532","norming","","","{""curiosity"":4,""confidence"":2}","[0,1]","../img/tt/517tt.jpg","",""
"6691","","","recognition","survey-text","86","398177","0.0-6.0-3.11","6787732","co39532","norming","","","{""guess"":""struisvogel""}","","../img/tt/517tt.jpg","",""
"null","../img/gs/517gs.jpg","null","reveal","image-keyboard-response","87","400180","0.0-6.0-4.11","6787732","co39532","norming","","","","","","",""
"null","../img/tt/517tt.jpg","null","mooney2","image-keyboard-response","88","402182","0.0-6.0-5.11","6787732","co39532","norming","","","","","","",""
"2736.000000000058","","","post_reveal_questions","survey-likert","89","404920","0.0-6.0-6.11","6787732","co39532","norming","","","{""aha"":4}","[0]","../img/tt/517tt.jpg","",""
"null","<div style=""font-size:60px;""> </div>","null","fixation","html-keyboard-response","90","405123","0.0-6.0-0.12","6787732","co39532","norming","","","","","","",""
"null","../img/tt/590tt.jpg","null","mooney1","image-keyboard-response","91","408125","0.0-6.0-1.12","6787732","co39532","norming","","","","","","",""
"5842.999999999942","","","post_mooney1_questions","survey-likert","92","413971","0.0-6.0-2.12","6787732","co39532","norming","","","{""curiosity"":4,""confidence"":1}","[0,1]","../img/tt/590tt.jpg","",""
"4332.999999999942","","","recognition","survey-text","93","418311","0.0-6.0-3.12","6787732","co39532","norming","","","{""guess"":""Kanon""}","","../img/tt/590tt.jpg","",""
"null","../img/gs/590gs.jpg","null","reveal","image-keyboard-response","94","420313","0.0-6.0-4.12","6787732","co39532","norming","","","","","","",""
"null","../img/tt/590tt.jpg","null","mooney2","image-keyboard-response","95","422315","0.0-6.0-5.12","6787732","co39532","norming","","","","","","",""
"6713","","","post_reveal_questions","survey-likert","96","429030","0.0-6.0-6.12","6787732","co39532","norming","","","{""aha"":5}","[0]","../img/tt/590tt.jpg","",""
"null","<div style=""font-size:60px;""> </div>","null","fixation","html-keyboard-response","97","429234","0.0-6.0-0.13","6787732","co39532","norming","","","","","","",""
"null","../img/tt/079tt.jpg","null","mooney1","image-keyboard-response","98","432237","0.0-6.0-1.13","6787732","co39532","norming","","","","","","",""
"5801","","","post_mooney1_questions","survey-likert","99","438039","0.0-6.0-2.13","6787732","co39532","norming","","","{""curiosity"":5,""confidence"":2}","[0,1]","../img/tt/079tt.jpg","",""
"2555","","","recognition","survey-text","100","440603","0.0-6.0-3.13","6787732","co39532","norming","","","{""guess"":""Beer""}","","../img/tt/079tt.jpg","",""
"null","../img/gs/079gs.jpg","null","reveal","image-keyboard-response","101","442605","0.0-6.0-4.13","6787732","co39532","norming","","","","","","",""
"null","../img/tt/079tt.jpg","null","mooney2","image-keyboard-response","102","444607","0.0-6.0-5.13","6787732","co39532","norming","","","","","","",""
"1376","","","post_reveal_questions","survey-likert","103","445985","0.0-6.0-6.13","6787732","co39532","norming","","","{""aha"":4}","[0]","../img/tt/079tt.jpg","",""
"null","<div style=""font-size:60px;""> </div>","null","fixation","html-keyboard-response","104","446188","0.0-6.0-0.14","6787732","co39532","norming","","","","","","",""
"null","../img/tt/1107tt.jpg","null","mooney1","image-keyboard-response","105","449191","0.0-6.0-1.14","6787732","co39532","norming","","","","","","",""
"3995.000000000058","","","post_mooney1_questions","survey-likert","106","453188","0.0-6.0-2.14","6787732","co39532","norming","","","{""curiosity"":5,""confidence"":5}","[0,1]","../img/tt/1107tt.jpg","",""
"1970.9999999999418","","","recognition","survey-text","107","455165","0.0-6.0-3.14","6787732","co39532","norming","","","{""guess"":""poes""}","","../img/tt/1107tt.jpg","",""
"null","../img/gs/1107gs.jpg","null","reveal","image-keyboard-response","108","457168","0.0-6.0-4.14","6787732","co39532","norming","","","","","","",""
"null","../img/tt/1107tt.jpg","null","mooney2","image-keyboard-response","109","459169","0.0-6.0-5.14","6787732","co39532","norming","","","","","","",""
"3062.999999999942","","","post_reveal_questions","survey-likert","110","462234","0.0-6.0-6.14","6787732","co39532","norming","","","{""aha"":4}","[0]","../img/tt/1107tt.jpg","",""
"null","<div style=""font-size:60px;""> </div>","null","fixation","html-keyboard-response","111","462437","0.0-6.0-0.15","6787732","co39532","norming","","","","","","",""
"null","../img/tt/1171tt.jpg","null","mooney1","image-keyboard-response","112","465440","0.0-6.0-1.15","6787732","co39532","norming","","","","","","",""
"4705.000000000058","","","post_mooney1_questions","survey-likert","113","470147","0.0-6.0-2.15","6787732","co39532","norming","","","{""curiosity"":4,""confidence"":3}","[0,1]","../img/tt/1171tt.jpg","",""
"7214","","","recognition","survey-text","114","477369","0.0-6.0-3.15","6787732","co39532","norming","","","{""guess"":""basketballer""}","","../img/tt/1171tt.jpg","",""
"null","../img/gs/1171gs.jpg","null","reveal","image-keyboard-response","115","479372","0.0-6.0-4.15","6787732","co39532","norming","","","","","","",""
"null","../img/tt/1171tt.jpg","null","mooney2","image-keyboard-response","116","481373","0.0-6.0-5.15","6787732","co39532","norming","","","","","","",""
"1878","","","post_reveal_questions","survey-likert","117","483253","0.0-6.0-6.15","6787732","co39532","norming","","","{""aha"":4}","[0]","../img/tt/1171tt.jpg","",""
"null","<div style=""font-size:60px;""> </div>","null","fixation","html-keyboard-response","118","483456","0.0-6.0-0.16","6787732","co39532","norming","","","","","","",""
"null","../img/tt/1061tt.jpg","null","mooney1","image-keyboard-response","119","486459","0.0-6.0-1.16","6787732","co39532","norming","","","","","","",""
"5115.000000000058","","","post_mooney1_questions","survey-likert","120","491576","0.0-6.0-2.16","6787732","co39532","norming","","","{""curiosity"":4,""confidence"":1}","[0,1]","../img/tt/1061tt.jpg","",""
"2844.0000000001164","","","recognition","survey-text","121","494427","0.0-6.0-3.16","6787732","co39532","norming","","","{""guess"":""steppen""}","","../img/tt/1061tt.jpg","",""
"null","../img/gs/1061gs.jpg","null","reveal","image-keyboard-response","122","496429","0.0-6.0-4.16","6787732","co39532","norming","","","","","","",""
"null","../img/tt/1061tt.jpg","null","mooney2","image-keyboard-response","123","498432","0.0-6.0-5.16","6787732","co39532","norming","","","","","","",""
"2005","","","post_reveal_questions","survey-likert","124","500439","0.0-6.0-6.16","6787732","co39532","norming","","","{""aha"":2}","[0]","../img/tt/1061tt.jpg","",""
"null","<div style=""font-size:60px;""> </div>","null","fixation","html-keyboard-response","125","500642","0.0-6.0-0.17","6787732","co39532","norming","","","","","","",""
"null","../img/tt/1102tt.jpg","null","mooney1","image-keyboard-response","126","503645","0.0-6.0-1.17","6787732","co39532","norming","","","","","","",""
"7168","","","post_mooney1_questions","survey-likert","127","510815","0.0-6.0-2.17","6787732","co39532","norming","","","{""curiosity"":4,""confidence"":1}","[0,1]","../img/tt/1102tt.jpg","",""
"2602","","","recognition","survey-text","128","513425","0.0-6.0-3.17","6787732","co39532","norming","","","{""guess"":""brug""}","","../img/tt/1102tt.jpg","",""
"null","../img/gs/1102gs.jpg","null","reveal","image-keyboard-response","129","515427","0.0-6.0-4.17","6787732","co39532","norming","","","","","","",""
"null","../img/tt/1102tt.jpg","null","mooney2","image-keyboard-response","130","517430","0.0-6.0-5.17","6787732","co39532","norming","","","","","","",""
"1867","","","post_reveal_questions","survey-likert","131","519298","0.0-6.0-6.17","6787732","co39532","norming","","","{""aha"":5}","[0]","../img/tt/1102tt.jpg","",""
"null","<div style=""font-size:60px;""> </div>","null","fixation","html-keyboard-response","132","519502","0.0-6.0-0.18","6787732","co39532","norming","","","","","","",""
"null","../img/tt/552tt.jpg","null","mooney1","image-keyboard-response","133","522503","0.0-6.0-1.18","6787732","co39532","norming","","","","","","",""
"6486","","","post_mooney1_questions","survey-likert","134","528992","0.0-6.0-2.18","6787732","co39532","norming","","","{""curiosity"":5,""confidence"":3}","[0,1]","../img/tt/552tt.jpg","",""
"3284.9999999998836","","","recognition","survey-text","135","532284","0.0-6.0-3.18","6787732","co39532","norming","","","{""guess"":""stinkdier""}","","../img/tt/552tt.jpg","",""
"null","../img/gs/552gs.jpg","null","reveal","image-keyboard-response","136","534287","0.0-6.0-4.18","6787732","co39532","norming","","","","","","",""
"null","../img/tt/552tt.jpg","null","mooney2","image-keyboard-response","137","536289","0.0-6.0-5.18","6787732","co39532","norming","","","","","","",""
"1621","","","post_reveal_questions","survey-likert","138","537912","0.0-6.0-6.18","6787732","co39532","norming","","","{""aha"":4}","[0]","../img/tt/552tt.jpg","",""
"null","<div style=""font-size:60px;""> </div>","null","fixation","html-keyboard-response","139","538115","0.0-6.0-0.19","6787732","co39532","norming","","","","","","",""
"null","../img/tt/438tt.jpg","null","mooney1","image-keyboard-response","140","541116","0.0-6.0-1.19","6787732","co39532","norming","","","","","","",""
"5457","","","post_mooney1_questions","survey-likert","141","546574","0.0-6.0-2.19","6787732","co39532","norming","","","{""curiosity"":6,""confidence"":6}","[0,1]","../img/tt/438tt.jpg","",""
"3899","","","recognition","survey-text","142","550480","0.0-6.0-3.19","6787732","co39532","norming","","","{""guess"":""slang""}","","../img/tt/438tt.jpg","",""
"null","../img/gs/438gs.jpg","null","reveal","image-keyboard-response","143","552483","0.0-6.0-4.19","6787732","co39532","norming","","","","","","",""
"null","../img/tt/438tt.jpg","null","mooney2","image-keyboard-response","144","554485","0.0-6.0-5.19","6787732","co39532","norming","","","","","","",""
"1671","","","post_reveal_questions","survey-likert","145","556157","0.0-6.0-6.19","6787732","co39532","norming","","","{""aha"":3}","[0]","../img/tt/438tt.jpg","",""
"null","<div style=""font-size:60px;""> </div>","null","fixation","html-keyboard-response","146","556360","0.0-6.0-0.20","6787732","co39532","norming","","","","","","",""
"null","../img/tt/1228tt.jpg","null","mooney1","image-keyboard-response","147","559363","0.0-6.0-1.20","6787732","co39532","norming","","","","","","",""
"4233","","","post_mooney1_questions","survey-likert","148","563598","0.0-6.0-2.20","6787732","co39532","norming","","","{""curiosity"":4,""confidence"":5}","[0,1]","../img/tt/1228tt.jpg","",""
"5083.999999999884","","","recognition","survey-text","149","568690","0.0-6.0-3.20","6787732","co39532","norming","","","{""guess"":""papegaai""}","","../img/tt/1228tt.jpg","",""
"null","../img/gs/1228gs.jpg","null","reveal","image-keyboard-response","150","570691","0.0-6.0-4.20","6787732","co39532","norming","","","","","","",""
"null","../img/tt/1228tt.jpg","null","mooney2","image-keyboard-response","151","572694","0.0-6.0-5.20","6787732","co39532","norming","","","","","","",""
"4176","","","post_reveal_questions","survey-likert","152","576871","0.0-6.0-6.20","6787732","co39532","norming","","","{""aha"":6}","[0]","../img/tt/1228tt.jpg","",""
"null","<div style=""font-size:60px;""> </div>","null","fixation","html-keyboard-response","153","577074","0.0-6.0-0.21","6787732","co39532","norming","","","","","","",""
"null","../img/tt/412tt.jpg","null","mooney1","image-keyboard-response","154","580080","0.0-6.0-1.21","6787732","co39532","norming","","","","","","",""
"3924","","","post_mooney1_questions","survey-likert","155","584013","0.0-6.0-2.21","6787732","co39532","norming","","","{""curiosity"":3,""confidence"":4}","[0,1]","../img/tt/412tt.jpg","",""
"4647.999999999884","","","recognition","survey-text","156","588674","0.0-6.0-3.21","6787732","co39532","norming","","","{""guess"":""verrekijker""}","","../img/tt/412tt.jpg","",""
"null","../img/gs/412gs.jpg","null","reveal","image-keyboard-response","157","590679","0.0-6.0-4.21","6787732","co39532","norming","","","","","","",""
"null","../img/tt/412tt.jpg","null","mooney2","image-keyboard-response","158","592682","0.0-6.0-5.21","6787732","co39532","norming","","","","","","",""
"2019","","","post_reveal_questions","survey-likert","159","594704","0.0-6.0-6.21","6787732","co39532","norming","","","{""aha"":6}","[0]","../img/tt/412tt.jpg","",""
"null","<div style=""font-size:60px;""> </div>","null","fixation","html-keyboard-response","160","594908","0.0-6.0-0.22","6787732","co39532","norming","","","","","","",""
"null","../img/tt/1353tt.jpg","null","mooney1","image-keyboard-response","161","597912","0.0-6.0-1.22","6787732","co39532","norming","","","","","","",""
"4790","","","post_mooney1_questions","survey-likert","162","602707","0.0-6.0-2.22","6787732","co39532","norming","","","{""curiosity"":5,""confidence"":2}","[0,1]","../img/tt/1353tt.jpg","",""
"2171","","","recognition","survey-text","163","604887","0.0-6.0-3.22","6787732","co39532","norming","","","{""guess"":""mens""}","","../img/tt/1353tt.jpg","",""
"null","../img/gs/1353gs.jpg","null","reveal","image-keyboard-response","164","606891","0.0-6.0-4.22","6787732","co39532","norming","","","","","","",""
"null","../img/tt/1353tt.jpg","null","mooney2","image-keyboard-response","165","608894","0.0-6.0-5.22","6787732","co39532","norming","","","","","","",""
"3757","","","post_reveal_questions","survey-likert","166","612654","0.0-6.0-6.22","6787732","co39532","norming","","","{""aha"":6}","[0]","../img/tt/1353tt.jpg","",""
"null","<div style=""font-size:60px;""> </div>","null","fixation","html-keyboard-response","167","612858","0.0-6.0-0.23","6787732","co39532","norming","","","","","","",""
"null","../img/tt/522tt.jpg","null","mooney1","image-keyboard-response","168","615861","0.0-6.0-1.23","6787732","co39532","norming","","","","","","",""
"4931","","","post_mooney1_questions","survey-likert","169","620795","0.0-6.0-2.23","6787732","co39532","norming","","","{""curiosity"":4,""confidence"":2}","[0,1]","../img/tt/522tt.jpg","",""
"2190","","","recognition","survey-text","170","622994","0.0-6.0-3.23","6787732","co39532","norming","","","{""guess"":""poes""}","","../img/tt/522tt.jpg","",""
"null","../img/gs/522gs.jpg","null","reveal","image-keyboard-response","171","624996","0.0-6.0-4.23","6787732","co39532","norming","","","","","","",""
"null","../img/tt/522tt.jpg","null","mooney2","image-keyboard-response","172","626999","0.0-6.0-5.23","6787732","co39532","norming","","","","","","",""
"1528","","","post_reveal_questions","survey-likert","173","628529","0.0-6.0-6.23","6787732","co39532","norming","","","{""aha"":5}","[0]","../img/tt/522tt.jpg","",""
"null","<div style=""font-size:60px;""> </div>","null","fixation","html-keyboard-response","174","628732","0.0-6.0-0.24","6787732","co39532","norming","","","","","","",""
"null","../img/tt/019tt.jpg","null","mooney1","image-keyboard-response","175","631735","0.0-6.0-1.24","6787732","co39532","norming","","","","","","",""
"5861.999999999884","","","post_mooney1_questions","survey-likert","176","637599","0.0-6.0-2.24","6787732","co39532","norming","","","{""curiosity"":4,""confidence"":6}","[0,1]","../img/tt/019tt.jpg","",""
"2555","","","recognition","survey-text","177","640162","0.0-6.0-3.24","6787732","co39532","norming","","","{""guess"":""tang""}","","../img/tt/019tt.jpg","",""
"null","../img/gs/019gs.jpg","null","reveal","image-keyboard-response","178","642165","0.0-6.0-4.24","6787732","co39532","norming","","","","","","",""
"null","../img/tt/019tt.jpg","null","mooney2","image-keyboard-response","179","644167","0.0-6.0-5.24","6787732","co39532","norming","","","","","","",""
"1351","","","post_reveal_questions","survey-likert","180","645520","0.0-6.0-6.24","6787732","co39532","norming","","","{""aha"":4}","[0]","../img/tt/019tt.jpg","",""
"null","<div style=""font-size:60px;""> </div>","null","fixation","html-keyboard-response","181","645723","0.0-6.0-0.25","6787732","co39532","norming","","","","","","",""
"null","../img/tt/1122tt.jpg","null","mooney1","image-keyboard-response","182","648725","0.0-6.0-1.25","6787732","co39532","norming","","","","","","",""
"2954","","","post_mooney1_questions","survey-likert","183","651681","0.0-6.0-2.25","6787732","co39532","norming","","","{""curiosity"":5,""confidence"":5}","[0,1]","../img/tt/1122tt.jpg","",""
"2275.0000000001164","","","recognition","survey-text","184","653965","0.0-6.0-3.25","6787732","co39532","norming","","","{""guess"":""haven""}","","../img/tt/1122tt.jpg","",""
"null","../img/gs/1122gs.jpg","null","reveal","image-keyboard-response","185","655967","0.0-6.0-4.25","6787732","co39532","norming","","","","","","",""
"null","../img/tt/1122tt.jpg","null","mooney2","image-keyboard-response","186","657970","0.0-6.0-5.25","6787732","co39532","norming","","","","","","",""
"2644","","","post_reveal_questions","survey-likert","187","660616","0.0-6.0-6.25","6787732","co39532","norming","","","{""aha"":5}","[0]","../img/tt/1122tt.jpg","",""
"null","<div style=""font-size:60px;""> </div>","null","fixation","html-keyboard-response","188","660819","0.0-6.0-0.26","6787732","co39532","norming","","","","","","",""
"null","../img/tt/440tt.jpg","null","mooney1","image-keyboard-response","189","663822","0.0-6.0-1.26","6787732","co39532","norming","","","","","","",""
"4706","","","post_mooney1_questions","survey-likert","190","668529","0.0-6.0-2.26","6787732","co39532","norming","","","{""curiosity"":5,""confidence"":4}","[0,1]","../img/tt/440tt.jpg","",""
"1820","","","recognition","survey-text","191","670358","0.0-6.0-3.26","6787732","co39532","norming","","","{""guess"":""koe""}","","../img/tt/440tt.jpg","",""
"null","../img/gs/440gs.jpg","null","reveal","image-keyboard-response","192","672361","0.0-6.0-4.26","6787732","co39532","norming","","","","","","",""
"null","../img/tt/440tt.jpg","null","mooney2","image-keyboard-response","193","674363","0.0-6.0-5.26","6787732","co39532","norming","","","","","","",""
"2459","","","post_reveal_questions","survey-likert","194","676824","0.0-6.0-6.26","6787732","co39532","norming","","","{""aha"":5}","[0]","../img/tt/440tt.jpg","",""
"null","<div style=""font-size:60px;""> </div>","null","fixation","html-keyboard-response","195","677028","0.0-6.0-0.27","6787732","co39532","norming","","","","","","",""
"null","../img/tt/032tt.jpg","null","mooney1","image-keyboard-response","196","680030","0.0-6.0-1.27","6787732","co39532","norming","","","","","","",""
"4389","","","post_mooney1_questions","survey-likert","197","684420","0.0-6.0-2.27","6787732","co39532","norming","","","{""curiosity"":6,""confidence"":0}","[0,1]","../img/tt/032tt.jpg","",""
"1827","","","recognition","survey-text","198","686255","0.0-6.0-3.27","6787732","co39532","norming","","","{""guess"":""""}","","../img/tt/032tt.jpg","",""
"null","../img/gs/032gs.jpg","null","reveal","image-keyboard-response","199","688258","0.0-6.0-4.27","6787732","co39532","norming","","","","","","",""
"null","../img/tt/032tt.jpg","null","mooney2","image-keyboard-response","200","690260","0.0-6.0-5.27","6787732","co39532","norming","","","","","","",""
"2590","","","post_reveal_questions","survey-likert","201","692852","0.0-6.0-6.27","6787732","co39532","norming","","","{""aha"":0}","[0]","../img/tt/032tt.jpg","",""
"null","<div style=""font-size:60px;""> </div>","null","fixation","html-keyboard-response","202","693055","0.0-6.0-0.28","6787732","co39532","norming","","","","","","",""
"null","../img/tt/060tt.jpg","null","mooney1","image-keyboard-response","203","696058","0.0-6.0-1.28","6787732","co39532","norming","","","","","","",""
"4285","","","post_mooney1_questions","survey-likert","204","700345","0.0-6.0-2.28","6787732","co39532","norming","","","{""curiosity"":6,""confidence"":1}","[0,1]","../img/tt/060tt.jpg","",""
"2360","","","recognition","survey-text","205","702713","0.0-6.0-3.28","6787732","co39532","norming","","","{""guess"":""kroon""}","","../img/tt/060tt.jpg","",""
"null","../img/gs/060gs.jpg","null","reveal","image-keyboard-response","206","704715","0.0-6.0-4.28","6787732","co39532","norming","","","","","","",""
"null","../img/tt/060tt.jpg","null","mooney2","image-keyboard-response","207","706718","0.0-6.0-5.28","6787732","co39532","norming","","","","","","",""
"2346","","","post_reveal_questions","survey-likert","208","709066","0.0-6.0-6.28","6787732","co39532","norming","","","{""aha"":5}","[0]","../img/tt/060tt.jpg","",""
"null","<div style=""font-size:60px;""> </div>","null","fixation","html-keyboard-response","209","709270","0.0-6.0-0.29","6787732","co39532","norming","","","","","","",""
"null","../img/tt/098tt.jpg","null","mooney1","image-keyboard-response","210","712273","0.0-6.0-1.29","6787732","co39532","norming","","","","","","",""
"3431","","","post_mooney1_questions","survey-likert","211","715705","0.0-6.0-2.29","6787732","co39532","norming","","","{""curiosity"":4,""confidence"":2}","[0,1]","../img/tt/098tt.jpg","",""
"2619","","","recognition","survey-text","212","718333","0.0-6.0-3.29","6787732","co39532","norming","","","{""guess"":""specht""}","","../img/tt/098tt.jpg","",""
"null","../img/gs/098gs.jpg","null","reveal","image-keyboard-response","213","720335","0.0-6.0-4.29","6787732","co39532","norming","","","","","","",""
"null","../img/tt/098tt.jpg","null","mooney2","image-keyboard-response","214","722338","0.0-6.0-5.29","6787732","co39532","norming","","","","","","",""
"2096","","","post_reveal_questions","survey-likert","215","724436","0.0-6.0-6.29","6787732","co39532","norming","","","{""aha"":5}","[0]","../img/tt/098tt.jpg","",""
"null","<div style=""font-size:60px;""> </div>","null","fixation","html-keyboard-response","216","724639","0.0-6.0-0.30","6787732","co39532","norming","","","","","","",""
"null","../img/tt/1070tt.jpg","null","mooney1","image-keyboard-response","217","727642","0.0-6.0-1.30","6787732","co39532","norming","","","","","","",""
"3849","","","post_mooney1_questions","survey-likert","218","731493","0.0-6.0-2.30","6787732","co39532","norming","","","{""curiosity"":4,""confidence"":3}","[0,1]","../img/tt/1070tt.jpg","",""
"2689","","","recognition","survey-text","219","734190","0.0-6.0-3.30","6787732","co39532","norming","","","{""guess"":""kebab""}","","../img/tt/1070tt.jpg","",""
"null","../img/gs/1070gs.jpg","null","reveal","image-keyboard-response","220","736192","0.0-6.0-4.30","6787732","co39532","norming","","","","","","",""
"null","../img/tt/1070tt.jpg","null","mooney2","image-keyboard-response","221","738195","0.0-6.0-5.30","6787732","co39532","norming","","","","","","",""
"1578","","","post_reveal_questions","survey-likert","222","739774","0.0-6.0-6.30","6787732","co39532","norming","","","{""aha"":4}","[0]","../img/tt/1070tt.jpg","",""
"null","<div style=""font-size:60px;""> </div>","null","fixation","html-keyboard-response","223","739978","0.0-6.0-0.31","6787732","co39532","norming","","","","","","",""
"null","../img/tt/279tt.jpg","null","mooney1","image-keyboard-response","224","742981","0.0-6.0-1.31","6787732","co39532","norming","","","","","","",""
"3978","","","post_mooney1_questions","survey-likert","225","746960","0.0-6.0-2.31","6787732","co39532","norming","","","{""curiosity"":5,""confidence"":4}","[0,1]","../img/tt/279tt.jpg","",""
"2458","","","recognition","survey-text","226","749426","0.0-6.0-3.31","6787732","co39532","norming","","","{""guess"":""luiaard""}","","../img/tt/279tt.jpg","",""
"null","../img/gs/279gs.jpg","null","reveal","image-keyboard-response","227","751429","0.0-6.0-4.31","6787732","co39532","norming","","","","","","",""
"null","../img/tt/279tt.jpg","null","mooney2","image-keyboard-response","228","753432","0.0-6.0-5.31","6787732","co39532","norming","","","","","","",""
"3110","","","post_reveal_questions","survey-likert","229","756543","0.0-6.0-6.31","6787732","co39532","norming","","","{""aha"":5}","[0]","../img/tt/279tt.jpg","",""
"null","<div style=""font-size:60px;""> </div>","null","fixation","html-keyboard-response","230","756747","0.0-6.0-0.32","6787732","co39532","norming","","","","","","",""
"null","../img/tt/549tt.jpg","null","mooney1","image-keyboard-response","231","759750","0.0-6.0-1.32","6787732","co39532","norming","","","","","","",""
"8317.000000000116","","","post_mooney1_questions","survey-likert","232","768069","0.0-6.0-2.32","6787732","co39532","norming","","","{""curiosity"":6,""confidence"":6}","[0,1]","../img/tt/549tt.jpg","",""
"23513","","","recognition","survey-text","233","791591","0.0-6.0-3.32","6787732","co39532","norming","","","{""guess"":""sprinkaan""}","","../img/tt/549tt.jpg","",""
"null","../img/gs/549gs.jpg","null","reveal","image-keyboard-response","234","793593","0.0-6.0-4.32","6787732","co39532","norming","","","","","","",""
"null","../img/tt/549tt.jpg","null","mooney2","image-keyboard-response","235","795596","0.0-6.0-5.32","6787732","co39532","norming","","","","","","",""
"3530","","","post_reveal_questions","survey-likert","236","799127","0.0-6.0-6.32","6787732","co39532","norming","","","{""aha"":5}","[0]","../img/tt/549tt.jpg","",""
"null","<div style=""font-size:60px;""> </div>","null","fixation","html-keyboard-response","237","799330","0.0-6.0-0.33","6787732","co39532","norming","","","","","","",""
"null","../img/tt/300tt.jpg","null","mooney1","image-keyboard-response","238","802333","0.0-6.0-1.33","6787732","co39532","norming","","","","","","",""
"3589","","","post_mooney1_questions","survey-likert","239","805924","0.0-6.0-2.33","6787732","co39532","norming","","","{""curiosity"":5,""confidence"":3}","[0,1]","../img/tt/300tt.jpg","",""
"5464.000000000116","","","recognition","survey-text","240","811397","0.0-6.0-3.33","6787732","co39532","norming","","","{""guess"":""mensen knuffelen""}","","../img/tt/300tt.jpg","",""
"null","../img/gs/300gs.jpg","null","reveal","image-keyboard-response","241","813400","0.0-6.0-4.33","6787732","co39532","norming","","","","","","",""
"null","../img/tt/300tt.jpg","null","mooney2","image-keyboard-response","242","815403","0.0-6.0-5.33","6787732","co39532","norming","","","","","","",""
"3265","","","post_reveal_questions","survey-likert","243","818669","0.0-6.0-6.33","6787732","co39532","norming","","","{""aha"":4}","[0]","../img/tt/300tt.jpg","",""
"null","<div style=""font-size:60px;""> </div>","null","fixation","html-keyboard-response","244","818873","0.0-6.0-0.34","6787732","co39532","norming","","","","","","",""
"null","../img/tt/599tt.jpg","null","mooney1","image-keyboard-response","245","821876","0.0-6.0-1.34","6787732","co39532","norming","","","","","","",""
"3195","","","post_mooney1_questions","survey-likert","246","825073","0.0-6.0-2.34","6787732","co39532","norming","","","{""curiosity"":6,""confidence"":6}","[0,1]","../img/tt/599tt.jpg","",""
"3656","","","recognition","survey-text","247","828737","0.0-6.0-3.34","6787732","co39532","norming","","","{""guess"":""Twee uilen""}","","../img/tt/599tt.jpg","",""
"null","../img/gs/599gs.jpg","null","reveal","image-keyboard-response","248","830739","0.0-6.0-4.34","6787732","co39532","norming","","","","","","",""
"null","../img/tt/599tt.jpg","null","mooney2","image-keyboard-response","249","832741","0.0-6.0-5.34","6787732","co39532","norming","","","","","","",""
"1609","","","post_reveal_questions","survey-likert","250","834351","0.0-6.0-6.34","6787732","co39532","norming","","","{""aha"":5}","[0]","../img/tt/599tt.jpg","",""
"null","<div style=""font-size:60px;""> </div>","null","fixation","html-keyboard-response","251","834555","0.0-6.0-0.35","6787732","co39532","norming","","","","","","",""
"null","../img/tt/515tt.jpg","null","mooney1","image-keyboard-response","252","837558","0.0-6.0-1.35","6787732","co39532","norming","","","","","","",""
"4149","","","post_mooney1_questions","survey-likert","253","841709","0.0-6.0-2.35","6787732","co39532","norming","","","{""curiosity"":5,""confidence"":4}","[0,1]","../img/tt/515tt.jpg","",""
"2499","","","recognition","survey-text","254","844216","0.0-6.0-3.35","6787732","co39532","norming","","","{""guess"":""vogel""}","","../img/tt/515tt.jpg","",""
"null","../img/gs/515gs.jpg","null","reveal","image-keyboard-response","255","846219","0.0-6.0-4.35","6787732","co39532","norming","","","","","","",""
"null","../img/tt/515tt.jpg","null","mooney2","image-keyboard-response","256","848221","0.0-6.0-5.35","6787732","co39532","norming","","","","","","",""
"4375","","","post_reveal_questions","survey-likert","257","852598","0.0-6.0-6.35","6787732","co39532","norming","","","{""aha"":4}","[0]","../img/tt/515tt.jpg","",""
"null","<div style=""font-size:60px;""> </div>","null","fixation","html-keyboard-response","258","852802","0.0-6.0-0.36","6787732","co39532","norming","","","","","","",""
"null","../img/tt/1148tt.jpg","null","mooney1","image-keyboard-response","259","855805","0.0-6.0-1.36","6787732","co39532","norming","","","","","","",""
"3478","","","post_mooney1_questions","survey-likert","260","859284","0.0-6.0-2.36","6787732","co39532","norming","","","{""curiosity"":4,""confidence"":4}","[0,1]","../img/tt/1148tt.jpg","",""
"2492.9999999998836","","","recognition","survey-text","261","861785","0.0-6.0-3.36","6787732","co39532","norming","","","{""guess"":""zwemmer""}","","../img/tt/1148tt.jpg","",""
"null","../img/gs/1148gs.jpg","null","reveal","image-keyboard-response","262","863788","0.0-6.0-4.36","6787732","co39532","norming","","","","","","",""
"null","../img/tt/1148tt.jpg","null","mooney2","image-keyboard-response","263","865790","0.0-6.0-5.36","6787732","co39532","norming","","","","","","",""
"1612.9999999998836","","","post_reveal_questions","survey-likert","264","867405","0.0-6.0-6.36","6787732","co39532","norming","","","{""aha"":4}","[0]","../img/tt/1148tt.jpg","",""
"null","<div style=""font-size:60px;""> </div>","null","fixation","html-keyboard-response","265","867608","0.0-6.0-0.37","6787732","co39532","norming","","","","","","",""
"null","../img/tt/580tt.jpg","null","mooney1","image-keyboard-response","266","870611","0.0-6.0-1.37","6787732","co39532","norming","","","","","","",""
"8338","","","post_mooney1_questions","survey-likert","267","878951","0.0-6.0-2.37","6787732","co39532","norming","","","{""curiosity"":5,""confidence"":6}","[0,1]","../img/tt/580tt.jpg","",""
"4414","","","recognition","survey-text","268","883373","0.0-6.0-3.37","6787732","co39532","norming","","","{""guess"":""Drie wasberen""}","","../img/tt/580tt.jpg","",""
"null","../img/gs/580gs.jpg","null","reveal","image-keyboard-response","269","885376","0.0-6.0-4.37","6787732","co39532","norming","","","","","","",""
"null","../img/tt/580tt.jpg","null","mooney2","image-keyboard-response","270","887378","0.0-6.0-5.37","6787732","co39532","norming","","","","","","",""
"5413","","","post_reveal_questions","survey-likert","271","892792","0.0-6.0-6.37","6787732","co39532","norming","","","{""aha"":6}","[0]","../img/tt/580tt.jpg","",""
"null","<div style=""font-size:60px;""> </div>","null","fixation","html-keyboard-response","272","892995","0.0-6.0-0.38","6787732","co39532","norming","","","","","","",""
"null","../img/tt/1272tt.jpg","null","mooney1","image-keyboard-response","273","895998","0.0-6.0-1.38","6787732","co39532","norming","","","","","","",""
"5050.999999999884","","","post_mooney1_questions","survey-likert","274","901051","0.0-6.0-2.38","6787732","co39532","norming","","","{""curiosity"":5,""confidence"":6}","[0,1]","../img/tt/1272tt.jpg","",""
"12948","","","recognition","survey-text","275","914007","0.0-6.0-3.38","6787732","co39532","norming","","","{""guess"":""Hyena tralis""}","","../img/tt/1272tt.jpg","",""
"null","../img/gs/1272gs.jpg","null","reveal","image-keyboard-response","276","916010","0.0-6.0-4.38","6787732","co39532","norming","","","","","","",""
"null","../img/tt/1272tt.jpg","null","mooney2","image-keyboard-response","277","918012","0.0-6.0-5.38","6787732","co39532","norming","","","","","","",""
"2510","","","post_reveal_questions","survey-likert","278","920524","0.0-6.0-6.38","6787732","co39532","norming","","","{""aha"":5}","[0]","../img/tt/1272tt.jpg","",""
"null","<div style=""font-size:60px;""> </div>","null","fixation","html-keyboard-response","279","920729","0.0-6.0-0.39","6787732","co39532","norming","","","","","","",""
"null","../img/tt/1128tt.jpg","null","mooney1","image-keyboard-response","280","923731","0.0-6.0-1.39","6787732","co39532","norming","","","","","","",""
"3576","","","post_mooney1_questions","survey-likert","281","927309","0.0-6.0-2.39","6787732","co39532","norming","","","{""curiosity"":6,""confidence"":6}","[0,1]","../img/tt/1128tt.jpg","",""
"4216","","","recognition","survey-text","282","931533","0.0-6.0-3.39","6787732","co39532","norming","","","{""guess"":""panda aap""}","","../img/tt/1128tt.jpg","",""
"null","../img/gs/1128gs.jpg","null","reveal","image-keyboard-response","283","933536","0.0-6.0-4.39","6787732","co39532","norming","","","","","","",""
"null","../img/tt/1128tt.jpg","null","mooney2","image-keyboard-response","284","935539","0.0-6.0-5.39","6787732","co39532","norming","","","","","","",""
"3680","","","post_reveal_questions","survey-likert","285","939221","0.0-6.0-6.39","6787732","co39532","norming","","","{""aha"":6}","[0]","../img/tt/1128tt.jpg","",""
"null","<div style=""font-size:60px;""> </div>","null","fixation","html-keyboard-response","286","939424","0.0-6.0-0.40","6787732","co39532","norming","","","","","","",""
"null","../img/tt/085tt.jpg","null","mooney1","image-keyboard-response","287","942427","0.0-6.0-1.40","6787732","co39532","norming","","","","","","",""
"4343","","","post_mooney1_questions","survey-likert","288","946772","0.0-6.0-2.40","6787732","co39532","norming","","","{""curiosity"":6,""confidence"":6}","[0,1]","../img/tt/085tt.jpg","",""
"6240","","","recognition","survey-text","289","953020","0.0-6.0-3.40","6787732","co39532","norming","","","{""guess"":""sprinkhaan""}","","../img/tt/085tt.jpg","",""
"null","../img/gs/085gs.jpg","null","reveal","image-keyboard-response","290","955023","0.0-6.0-4.40","6787732","co39532","norming","","","","","","",""
"null","../img/tt/085tt.jpg","null","mooney2","image-keyboard-response","291","957025","0.0-6.0-5.40","6787732","co39532","norming","","","","","","",""
"2896","","","post_reveal_questions","survey-likert","292","959923","0.0-6.0-6.40","6787732","co39532","norming","","","{""aha"":5}","[0]","../img/tt/085tt.jpg","",""
"null","<div style=""font-size:60px;""> </div>","null","fixation","html-keyboard-response","293","960126","0.0-6.0-0.41","6787732","co39532","norming","","","","","","",""
"null","../img/tt/1006tt.jpg","null","mooney1","image-keyboard-response","294","963129","0.0-6.0-1.41","6787732","co39532","norming","","","","","","",""
"6122","","","post_mooney1_questions","survey-likert","295","969254","0.0-6.0-2.41","6787732","co39532","norming","","","{""curiosity"":5,""confidence"":1}","[0,1]","../img/tt/1006tt.jpg","",""
"4549.999999999884","","","recognition","survey-text","296","973811","0.0-6.0-3.41","6787732","co39532","norming","","","{""guess"":""schaap""}","","../img/tt/1006tt.jpg","",""
"null","../img/gs/1006gs.jpg","null","reveal","image-keyboard-response","297","975814","0.0-6.0-4.41","6787732","co39532","norming","","","","","","",""
"null","../img/tt/1006tt.jpg","null","mooney2","image-keyboard-response","298","977816","0.0-6.0-5.41","6787732","co39532","norming","","","","","","",""
"3786","","","post_reveal_questions","survey-likert","299","981605","0.0-6.0-6.41","6787732","co39532","norming","","","{""aha"":1}","[0]","../img/tt/1006tt.jpg","",""
"null","<div style=""font-size:60px;""> </div>","null","fixation","html-keyboard-response","300","981809","0.0-6.0-0.42","6787732","co39532","norming","","","","","","",""
"null","../img/tt/378tt.jpg","null","mooney1","image-keyboard-response","301","984811","0.0-6.0-1.42","6787732","co39532","norming","","","","","","",""
"4732","","","post_mooney1_questions","survey-likert","302","989544","0.0-6.0-2.42","6787732","co39532","norming","","","{""curiosity"":4,""confidence"":4}","[0,1]","../img/tt/378tt.jpg","",""
"2708","","","recognition","survey-text","303","992259","0.0-6.0-3.42","6787732","co39532","norming","","","{""guess"":""vogel""}","","../img/tt/378tt.jpg","",""
"null","../img/gs/378gs.jpg","null","reveal","image-keyboard-response","304","994262","0.0-6.0-4.42","6787732","co39532","norming","","","","","","",""
"null","../img/tt/378tt.jpg","null","mooney2","image-keyboard-response","305","996264","0.0-6.0-5.42","6787732","co39532","norming","","","","","","",""
"1395.9999999998836","","","post_reveal_questions","survey-likert","306","997662","0.0-6.0-6.42","6787732","co39532","norming","","","{""aha"":5}","[0]","../img/tt/378tt.jpg","",""
"null","<div style=""font-size:60px;""> </div>","null","fixation","html-keyboard-response","307","997865","0.0-6.0-0.43","6787732","co39532","norming","","","","","","",""
"null","../img/tt/1044tt.jpg","null","mooney1","image-keyboard-response","308","1000867","0.0-6.0-1.43","6787732","co39532","norming","","","","","","",""
"3734.9999999998836","","","post_mooney1_questions","survey-likert","309","1004603","0.0-6.0-2.43","6787732","co39532","norming","","","{""curiosity"":4,""confidence"":5}","[0,1]","../img/tt/1044tt.jpg","",""
"3937.0000000001164","","","recognition","survey-text","310","1008549","0.0-6.0-3.43","6787732","co39532","norming","","","{""guess"":""giraffe""}","","../img/tt/1044tt.jpg","",""
"null","../img/gs/1044gs.jpg","null","reveal","image-keyboard-response","311","1010551","0.0-6.0-4.43","6787732","co39532","norming","","","","","","",""
"null","../img/tt/1044tt.jpg","null","mooney2","image-keyboard-response","312","1012553","0.0-6.0-5.43","6787732","co39532","norming","","","","","","",""
"1708.0000000001164","","","post_reveal_questions","survey-likert","313","1014262","0.0-6.0-6.43","6787732","co39532","norming","","","{""aha"":5}","[0]","../img/tt/1044tt.jpg","",""
"null","<div style=""font-size:60px;""> </div>","null","fixation","html-keyboard-response","314","1014465","0.0-6.0-0.44","6787732","co39532","norming","","","","","","",""
"null","../img/tt/036tt.jpg","null","mooney1","image-keyboard-response","315","1017468","0.0-6.0-1.44","6787732","co39532","norming","","","","","","",""
"3406.000000000233","","","post_mooney1_questions","survey-likert","316","1020876","0.0-6.0-2.44","6787732","co39532","norming","","","{""curiosity"":4,""confidence"":4}","[0,1]","../img/tt/036tt.jpg","",""
"2664","","","recognition","survey-text","317","1023548","0.0-6.0-3.44","6787732","co39532","norming","","","{""guess"":""bliksem""}","","../img/tt/036tt.jpg","",""
"null","../img/gs/036gs.jpg","null","reveal","image-keyboard-response","318","1025549","0.0-6.0-4.44","6787732","co39532","norming","","","","","","",""
"null","../img/tt/036tt.jpg","null","mooney2","image-keyboard-response","319","1027552","0.0-6.0-5.44","6787732","co39532","norming","","","","","","",""
"1897","","","post_reveal_questions","survey-likert","320","1029451","0.0-6.0-6.44","6787732","co39532","norming","","","{""aha"":4}","[0]","../img/tt/036tt.jpg","",""
"null","<div style=""font-size:60px;""> </div>","null","fixation","html-keyboard-response","321","1029654","0.0-6.0-0.45","6787732","co39532","norming","","","","","","",""
"null","../img/tt/044tt.jpg","null","mooney1","image-keyboard-response","322","1032657","0.0-6.0-1.45","6787732","co39532","norming","","","","","","",""
"4547","","","post_mooney1_questions","survey-likert","323","1037206","0.0-6.0-2.45","6787732","co39532","norming","","","{""curiosity"":3,""confidence"":4}","[0,1]","../img/tt/044tt.jpg","",""
"3737","","","recognition","survey-text","324","1040951","0.0-6.0-3.45","6787732","co39532","norming","","","{""guess"":""persoon laptop""}","","../img/tt/044tt.jpg","",""
"null","../img/gs/044gs.jpg","null","reveal","image-keyboard-response","325","1042952","0.0-6.0-4.45","6787732","co39532","norming","","","","","","",""
"null","../img/tt/044tt.jpg","null","mooney2","image-keyboard-response","326","1044955","0.0-6.0-5.45","6787732","co39532","norming","","","","","","",""
"3329","","","post_reveal_questions","survey-likert","327","1048286","0.0-6.0-6.45","6787732","co39532","norming","","","{""aha"":6}","[0]","../img/tt/044tt.jpg","",""
"null","<div style=""font-size:60px;""> </div>","null","fixation","html-keyboard-response","328","1048489","0.0-6.0-0.46","6787732","co39532","norming","","","","","","",""
"null","../img/tt/020tt.jpg","null","mooney1","image-keyboard-response","329","1051492","0.0-6.0-1.46","6787732","co39532","norming","","","","","","",""
"4290","","","post_mooney1_questions","survey-likert","330","1055783","0.0-6.0-2.46","6787732","co39532","norming","","","{""curiosity"":5,""confidence"":1}","[0,1]","../img/tt/020tt.jpg","",""
"688","","","recognition","survey-text","331","1056479","0.0-6.0-3.46","6787732","co39532","norming","","","{""guess"":""""}","","../img/tt/020tt.jpg","",""
"null","../img/gs/020gs.jpg","null","reveal","image-keyboard-response","332","1058482","0.0-6.0-4.46","6787732","co39532","norming","","","","","","",""
"null","../img/tt/020tt.jpg","null","mooney2","image-keyboard-response","333","1060485","0.0-6.0-5.46","6787732","co39532","norming","","","","","","",""
"2553","","","post_reveal_questions","survey-likert","334","1063040","0.0-6.0-6.46","6787732","co39532","norming","","","{""aha"":5}","[0]","../img/tt/020tt.jpg","",""
"null","<div style=""font-size:60px;""> </div>","null","fixation","html-keyboard-response","335","1063243","0.0-6.0-0.47","6787732","co39532","norming","","","","","","",""
"null","../img/tt/315tt.jpg","null","mooney1","image-keyboard-response","336","1066246","0.0-6.0-1.47","6787732","co39532","norming","","","","","","",""
"4642","","","post_mooney1_questions","survey-likert","337","1070890","0.0-6.0-2.47","6787732","co39532","norming","","","{""curiosity"":4,""confidence"":5}","[0,1]","../img/tt/315tt.jpg","",""
"6292","","","recognition","survey-text","338","1077190","0.0-6.0-3.47","6787732","co39532","norming","","","{""guess"":""oog kat""}","","../img/tt/315tt.jpg","",""
"null","../img/gs/315gs.jpg","null","reveal","image-keyboard-response","339","1079192","0.0-6.0-4.47","6787732","co39532","norming","","","","","","",""
"null","../img/tt/315tt.jpg","null","mooney2","image-keyboard-response","340","1081194","0.0-6.0-5.47","6787732","co39532","norming","","","","","","",""
"1828","","","post_reveal_questions","survey-likert","341","1083025","0.0-6.0-6.47","6787732","co39532","norming","","","{""aha"":4}","[0]","../img/tt/315tt.jpg","",""
"null","<div style=""font-size:60px;""> </div>","null","fixation","html-keyboard-response","342","1083228","0.0-6.0-0.48","6787732","co39532","norming","","","","","","",""
"null","../img/tt/406tt.jpg","null","mooney1","image-keyboard-response","343","1086231","0.0-6.0-1.48","6787732","co39532","norming","","","","","","",""
"5632","","","post_mooney1_questions","survey-likert","344","1091864","0.0-6.0-2.48","6787732","co39532","norming","","","{""curiosity"":4,""confidence"":4}","[0,1]","../img/tt/406tt.jpg","",""
"3125","","","recognition","survey-text","345","1094996","0.0-6.0-3.48","6787732","co39532","norming","","","{""guess"":""vleermuis""}","","../img/tt/406tt.jpg","",""
"null","../img/gs/406gs.jpg","null","reveal","image-keyboard-response","346","1096999","0.0-6.0-4.48","6787732","co39532","norming","","","","","","",""
"null","../img/tt/406tt.jpg","null","mooney2","image-keyboard-response","347","1099000","0.0-6.0-5.48","6787732","co39532","norming","","","","","","",""
"2513","","","post_reveal_questions","survey-likert","348","1101514","0.0-6.0-6.48","6787732","co39532","norming","","","{""aha"":4}","[0]","../img/tt/406tt.jpg","",""
"null","<div style=""font-size:60px;""> </div>","null","fixation","html-keyboard-response","349","1101717","0.0-6.0-0.49","6787732","co39532","norming","","","","","","",""
"null","../img/tt/380tt.jpg","null","mooney1","image-keyboard-response","350","1104719","0.0-6.0-1.49","6787732","co39532","norming","","","","","","",""
"4323","","","post_mooney1_questions","survey-likert","351","1109044","0.0-6.0-2.49","6787732","co39532","norming","","","{""curiosity"":3,""confidence"":3}","[0,1]","../img/tt/380tt.jpg","",""
"4934","","","recognition","survey-text","352","1113986","0.0-6.0-3.49","6787732","co39532","norming","","","{""guess"":""huski""}","","../img/tt/380tt.jpg","",""
"null","../img/gs/380gs.jpg","null","reveal","image-keyboard-response","353","1115989","0.0-6.0-4.49","6787732","co39532","norming","","","","","","",""
"null","../img/tt/380tt.jpg","null","mooney2","image-keyboard-response","354","1117991","0.0-6.0-5.49","6787732","co39532","norming","","","","","","",""
"1592","","","post_reveal_questions","survey-likert","355","1119584","0.0-6.0-6.49","6787732","co39532","norming","","","{""aha"":5}","[0]","../img/tt/380tt.jpg","",""
"null","<div style=""font-size:60px;""> </div>","null","fixation","html-keyboard-response","356","1119787","0.0-6.0-0.50","6787732","co39532","norming","","","","","","",""
"null","../img/tt/1125tt.jpg","null","mooney1","image-keyboard-response","357","1122790","0.0-6.0-1.50","6787732","co39532","norming","","","","","","",""
"4914.999999999767","","","post_mooney1_questions","survey-likert","358","1127708","0.0-6.0-2.50","6787732","co39532","norming","","","{""curiosity"":3,""confidence"":5}","[0,1]","../img/tt/1125tt.jpg","",""
"5845.000000000233","","","recognition","survey-text","359","1133562","0.0-6.0-3.50","6787732","co39532","norming","","","{""guess"":""voetballer""}","","../img/tt/1125tt.jpg","",""
"null","../img/gs/1125gs.jpg","null","reveal","image-keyboard-response","360","1135565","0.0-6.0-4.50","6787732","co39532","norming","","","","","","",""
"null","../img/tt/1125tt.jpg","null","mooney2","image-keyboard-response","361","1137567","0.0-6.0-5.50","6787732","co39532","norming","","","","","","",""
"1455","","","post_reveal_questions","survey-likert","362","1139024","0.0-6.0-6.50","6787732","co39532","norming","","","{""aha"":3}","[0]","../img/tt/1125tt.jpg","",""
"null","<div style=""font-size:60px;""> </div>","null","fixation","html-keyboard-response","363","1139227","0.0-6.0-0.51","6787732","co39532","norming","","","","","","",""
"null","../img/tt/1279tt.jpg","null","mooney1","image-keyboard-response","364","1142230","0.0-6.0-1.51","6787732","co39532","norming","","","","","","",""
"4198","","","post_mooney1_questions","survey-likert","365","1146430","0.0-6.0-2.51","6787732","co39532","norming","","","{""curiosity"":4,""confidence"":3}","[0,1]","../img/tt/1279tt.jpg","",""
"2103","","","recognition","survey-text","366","1148542","0.0-6.0-3.51","6787732","co39532","norming","","","{""guess"":""balet""}","","../img/tt/1279tt.jpg","",""
"null","../img/gs/1279gs.jpg","null","reveal","image-keyboard-response","367","1150545","0.0-6.0-4.51","6787732","co39532","norming","","","","","","",""
"null","../img/tt/1279tt.jpg","null","mooney2","image-keyboard-response","368","1152547","0.0-6.0-5.51","6787732","co39532","norming","","","","","","",""
"1766","","","post_reveal_questions","survey-likert","369","1154315","0.0-6.0-6.51","6787732","co39532","norming","","","{""aha"":4}","[0]","../img/tt/1279tt.jpg","",""
"null","<div style=""font-size:60px;""> </div>","null","fixation","html-keyboard-response","370","1154518","0.0-6.0-0.52","6787732","co39532","norming","","","","","","",""
"null","../img/tt/1161tt.jpg","null","mooney1","image-keyboard-response","371","1157520","0.0-6.0-1.52","6787732","co39532","norming","","","","","","",""
"7804","","","post_mooney1_questions","survey-likert","372","1165326","0.0-6.0-2.52","6787732","co39532","norming","","","{""curiosity"":4,""confidence"":3}","[0,1]","../img/tt/1161tt.jpg","",""
"3517","","","recognition","survey-text","373","1168852","0.0-6.0-3.52","6787732","co39532","norming","","","{""guess"":""berg wandelen""}","","../img/tt/1161tt.jpg","",""
"null","../img/gs/1161gs.jpg","null","reveal","image-keyboard-response","374","1170854","0.0-6.0-4.52","6787732","co39532","norming","","","","","","",""
"null","../img/tt/1161tt.jpg","null","mooney2","image-keyboard-response","375","1172857","0.0-6.0-5.52","6787732","co39532","norming","","","","","","",""
"2116","","","post_reveal_questions","survey-likert","376","1174975","0.0-6.0-6.52","6787732","co39532","norming","","","{""aha"":5}","[0]","../img/tt/1161tt.jpg","",""
"null","<div style=""font-size:60px;""> </div>","null","fixation","html-keyboard-response","377","1175178","0.0-6.0-0.53","6787732","co39532","norming","","","","","","",""
"null","../img/tt/273tt.jpg","null","mooney1","image-keyboard-response","378","1178180","0.0-6.0-1.53","6787732","co39532","norming","","","","","","",""
"3617","","","post_mooney1_questions","survey-likert","379","1181799","0.0-6.0-2.53","6787732","co39532","norming","","","{""curiosity"":3,""confidence"":5}","[0,1]","../img/tt/273tt.jpg","",""
"3427","","","recognition","survey-text","380","1185233","0.0-6.0-3.53","6787732","co39532","norming","","","{""guess"":""beugel""}","","../img/tt/273tt.jpg","",""
"null","../img/gs/273gs.jpg","null","reveal","image-keyboard-response","381","1187236","0.0-6.0-4.53","6787732","co39532","norming","","","","","","",""
"null","../img/tt/273tt.jpg","null","mooney2","image-keyboard-response","382","1189237","0.0-6.0-5.53","6787732","co39532","norming","","","","","","",""
"1449.0000000002328","","","post_reveal_questions","survey-likert","383","1190688","0.0-6.0-6.53","6787732","co39532","norming","","","{""aha"":3}","[0]","../img/tt/273tt.jpg","",""
"null","<div style=""font-size:60px;""> </div>","null","fixation","html-keyboard-response","384","1190891","0.0-6.0-0.54","6787732","co39532","norming","","","","","","",""
"null","../img/tt/010tt.jpg","null","mooney1","image-keyboard-response","385","1193893","0.0-6.0-1.54","6787732","co39532","norming","","","","","","",""
"4796","","","post_mooney1_questions","survey-likert","386","1198691","0.0-6.0-2.54","6787732","co39532","norming","","","{""curiosity"":4,""confidence"":3}","[0,1]","../img/tt/010tt.jpg","",""
"4534","","","recognition","survey-text","387","1203233","0.0-6.0-3.54","6787732","co39532","norming","","","{""guess"":""troffee""}","","../img/tt/010tt.jpg","",""
"null","../img/gs/010gs.jpg","null","reveal","image-keyboard-response","388","1205235","0.0-6.0-4.54","6787732","co39532","norming","","","","","","",""
"null","../img/tt/010tt.jpg","null","mooney2","image-keyboard-response","389","1207237","0.0-6.0-5.54","6787732","co39532","norming","","","","","","",""
"2510","","","post_reveal_questions","survey-likert","390","1209749","0.0-6.0-6.54","6787732","co39532","norming","","","{""aha"":4}","[0]","../img/tt/010tt.jpg","",""
"null","<div style=""font-size:60px;""> </div>","null","fixation","html-keyboard-response","391","1209952","0.0-6.0-0.55","6787732","co39532","norming","","","","","","",""
"null","../img/tt/063tt.jpg","null","mooney1","image-keyboard-response","392","1212954","0.0-6.0-1.55","6787732","co39532","norming","","","","","","",""
"4177","","","post_mooney1_questions","survey-likert","393","1217133","0.0-6.0-2.55","6787732","co39532","norming","","","{""curiosity"":3,""confidence"":5}","[0,1]","../img/tt/063tt.jpg","",""
"6166","","","recognition","survey-text","394","1223308","0.0-6.0-3.55","6787732","co39532","norming","","","{""guess"":""accordion""}","","../img/tt/063tt.jpg","",""
"null","../img/gs/063gs.jpg","null","reveal","image-keyboard-response","395","1225310","0.0-6.0-4.55","6787732","co39532","norming","","","","","","",""
"null","../img/tt/063tt.jpg","null","mooney2","image-keyboard-response","396","1227312","0.0-6.0-5.55","6787732","co39532","norming","","","","","","",""
"2359","","","post_reveal_questions","survey-likert","397","1229674","0.0-6.0-6.55","6787732","co39532","norming","","","{""aha"":5}","[0]","../img/tt/063tt.jpg","",""
"null","<div style=""font-size:60px;""> </div>","null","fixation","html-keyboard-response","398","1229877","0.0-6.0-0.56","6787732","co39532","norming","","","","","","",""
"null","../img/tt/1084tt.jpg","null","mooney1","image-keyboard-response","399","1232879","0.0-6.0-1.56","6787732","co39532","norming","","","","","","",""
"3601","","","post_mooney1_questions","survey-likert","400","1236482","0.0-6.0-2.56","6787732","co39532","norming","","","{""curiosity"":4,""confidence"":5}","[0,1]","../img/tt/1084tt.jpg","",""
"2373","","","recognition","survey-text","401","1238864","0.0-6.0-3.56","6787732","co39532","norming","","","{""guess"":""cake ""}","","../img/tt/1084tt.jpg","",""
"null","../img/gs/1084gs.jpg","null","reveal","image-keyboard-response","402","1240866","0.0-6.0-4.56","6787732","co39532","norming","","","","","","",""
"null","../img/tt/1084tt.jpg","null","mooney2","image-keyboard-response","403","1242869","0.0-6.0-5.56","6787732","co39532","norming","","","","","","",""
"1824","","","post_reveal_questions","survey-likert","404","1244695","0.0-6.0-6.56","6787732","co39532","norming","","","{""aha"":4}","[0]","../img/tt/1084tt.jpg","",""
"null","<div style=""font-size:60px;""> </div>","null","fixation","html-keyboard-response","405","1244898","0.0-6.0-0.57","6787732","co39532","norming","","","","","","",""
"null","../img/tt/456tt.jpg","null","mooney1","image-keyboard-response","406","1247901","0.0-6.0-1.57","6787732","co39532","norming","","","","","","",""
"4113","","","post_mooney1_questions","survey-likert","407","1252016","0.0-6.0-2.57","6787732","co39532","norming","","","{""curiosity"":5,""confidence"":3}","[0,1]","../img/tt/456tt.jpg","",""
"2474","","","recognition","survey-text","408","1254498","0.0-6.0-3.57","6787732","co39532","norming","","","{""guess"":""zeehond""}","","../img/tt/456tt.jpg","",""
"null","../img/gs/456gs.jpg","null","reveal","image-keyboard-response","409","1256501","0.0-6.0-4.57","6787732","co39532","norming","","","","","","",""
"null","../img/tt/456tt.jpg","null","mooney2","image-keyboard-response","410","1258503","0.0-6.0-5.57","6787732","co39532","norming","","","","","","",""
"1732","","","post_reveal_questions","survey-likert","411","1260237","0.0-6.0-6.57","6787732","co39532","norming","","","{""aha"":5}","[0]","../img/tt/456tt.jpg","",""
"null","<div style=""font-size:60px;""> </div>","null","fixation","html-keyboard-response","412","1260439","0.0-6.0-0.58","6787732","co39532","norming","","","","","","",""
"null","../img/tt/1270tt.jpg","null","mooney1","image-keyboard-response","413","1263442","0.0-6.0-1.58","6787732","co39532","norming","","","","","","",""
"2806","","","post_mooney1_questions","survey-likert","414","1266250","0.0-6.0-2.58","6787732","co39532","norming","","","{""curiosity"":5,""confidence"":6}","[0,1]","../img/tt/1270tt.jpg","",""
"2507","","","recognition","survey-text","415","1268765","0.0-6.0-3.58","6787732","co39532","norming","","","{""guess"":""muis""}","","../img/tt/1270tt.jpg","",""
"null","../img/gs/1270gs.jpg","null","reveal","image-keyboard-response","416","1270766","0.0-6.0-4.58","6787732","co39532","norming","","","","","","",""
"null","../img/tt/1270tt.jpg","null","mooney2","image-keyboard-response","417","1272769","0.0-6.0-5.58","6787732","co39532","norming","","","","","","",""
"2133","","","post_reveal_questions","survey-likert","418","1274903","0.0-6.0-6.58","6787732","co39532","norming","","","{""aha"":3}","[0]","../img/tt/1270tt.jpg","",""
"null","<div style=""font-size:60px;""> </div>","null","fixation","html-keyboard-response","419","1275107","0.0-6.0-0.59","6787732","co39532","norming","","","","","","",""
"null","../img/tt/1046tt.jpg","null","mooney1","image-keyboard-response","420","1278109","0.0-6.0-1.59","6787732","co39532","norming","","","","","","",""
"4580","","","post_mooney1_questions","survey-likert","421","1282692","0.0-6.0-2.59","6787732","co39532","norming","","","{""curiosity"":5,""confidence"":5}","[0,1]","../img/tt/1046tt.jpg","",""
"8680.999999999767","","","recognition","survey-text","422","1291381","0.0-6.0-3.59","6787732","co39532","norming","","","{""guess"":""wrap""}","","../img/tt/1046tt.jpg","",""
"null","../img/gs/1046gs.jpg","null","reveal","image-keyboard-response","423","1293383","0.0-6.0-4.59","6787732","co39532","norming","","","","","","",""
"null","../img/tt/1046tt.jpg","null","mooney2","image-keyboard-response","424","1295386","0.0-6.0-5.59","6787732","co39532","norming","","","","","","",""
"2362.000000000233","","","post_reveal_questions","survey-likert","425","1297748","0.0-6.0-6.59","6787732","co39532","norming","","","{""aha"":4}","[0]","../img/tt/1046tt.jpg","",""
"null","<div style=""font-size:60px;""> </div>","null","fixation","html-keyboard-response","426","1297952","0.0-6.0-0.60","6787732","co39532","norming","","","","","","",""
"null","../img/tt/1236tt.jpg","null","mooney1","image-keyboard-response","427","1300954","0.0-6.0-1.60","6787732","co39532","norming","","","","","","",""
"4406","","","post_mooney1_questions","survey-likert","428","1305362","0.0-6.0-2.60","6787732","co39532","norming","","","{""curiosity"":4,""confidence"":6}","[0,1]","../img/tt/1236tt.jpg","",""
"1952","","","recognition","survey-text","429","1307322","0.0-6.0-3.60","6787732","co39532","norming","","","{""guess"":""boxer""}","","../img/tt/1236tt.jpg","",""
"null","../img/gs/1236gs.jpg","null","reveal","image-keyboard-response","430","1309325","0.0-6.0-4.60","6787732","co39532","norming","","","","","","",""
"null","../img/tt/1236tt.jpg","null","mooney2","image-keyboard-response","431","1311327","0.0-6.0-5.60","6787732","co39532","norming","","","","","","",""
"1443","","","post_reveal_questions","survey-likert","432","1312772","0.0-6.0-6.60","6787732","co39532","norming","","","{""aha"":6}","[0]","../img/tt/1236tt.jpg","",""
"null","<div style=""font-size:60px;""> </div>","null","fixation","html-keyboard-response","433","1312975","0.0-6.0-0.61","6787732","co39532","norming","","","","","","",""
"null","../img/tt/468tt.jpg","null","mooney1","image-keyboard-response","434","1315978","0.0-6.0-1.61","6787732","co39532","norming","","","","","","",""
"3325.999999999767","","","post_mooney1_questions","survey-likert","435","1319306","0.0-6.0-2.61","6787732","co39532","norming","","","{""curiosity"":5,""confidence"":5}","[0,1]","../img/tt/468tt.jpg","",""
"3656","","","recognition","survey-text","436","1322970","0.0-6.0-3.61","6787732","co39532","norming","","","{""guess"":""cello""}","","../img/tt/468tt.jpg","",""
"null","../img/gs/468gs.jpg","null","reveal","image-keyboard-response","437","1324973","0.0-6.0-4.61","6787732","co39532","norming","","","","","","",""
"null","../img/tt/468tt.jpg","null","mooney2","image-keyboard-response","438","1326975","0.0-6.0-5.61","6787732","co39532","norming","","","","","","",""
"1496","","","post_reveal_questions","survey-likert","439","1328473","0.0-6.0-6.61","6787732","co39532","norming","","","{""aha"":4}","[0]","../img/tt/468tt.jpg","",""
"null","<div style=""font-size:60px;""> </div>","null","fixation","html-keyboard-response","440","1328676","0.0-6.0-0.62","6787732","co39532","norming","","","","","","",""
"null","../img/tt/416tt.jpg","null","mooney1","image-keyboard-response","441","1331679","0.0-6.0-1.62","6787732","co39532","norming","","","","","","",""
"5666","","","post_mooney1_questions","survey-likert","442","1337347","0.0-6.0-2.62","6787732","co39532","norming","","","{""curiosity"":5,""confidence"":6}","[0,1]","../img/tt/416tt.jpg","",""
"5485","","","recognition","survey-text","443","1342839","0.0-6.0-3.62","6787732","co39532","norming","","","{""guess"":""twee struisvogels""}","","../img/tt/416tt.jpg","",""
"null","../img/gs/416gs.jpg","null","reveal","image-keyboard-response","444","1344842","0.0-6.0-4.62","6787732","co39532","norming","","","","","","",""
"null","../img/tt/416tt.jpg","null","mooney2","image-keyboard-response","445","1346845","0.0-6.0-5.62","6787732","co39532","norming","","","","","","",""
"2754.999999999767","","","post_reveal_questions","survey-likert","446","1349601","0.0-6.0-6.62","6787732","co39532","norming","","","{""aha"":6}","[0]","../img/tt/416tt.jpg","",""
"null","<div style=""font-size:60px;""> </div>","null","fixation","html-keyboard-response","447","1349804","0.0-6.0-0.63","6787732","co39532","norming","","","","","","",""
"null","../img/tt/1126tt.jpg","null","mooney1","image-keyboard-response","448","1352807","0.0-6.0-1.63","6787732","co39532","norming","","","","","","",""
"3658","","","post_mooney1_questions","survey-likert","449","1356467","0.0-6.0-2.63","6787732","co39532","norming","","","{""curiosity"":5,""confidence"":6}","[0,1]","../img/tt/1126tt.jpg","",""
"3745","","","recognition","survey-text","450","1360219","0.0-6.0-3.63","6787732","co39532","norming","","","{""guess"":""bergbeklimmer""}","","../img/tt/1126tt.jpg","",""
"null","../img/gs/1126gs.jpg","null","reveal","image-keyboard-response","451","1362221","0.0-6.0-4.63","6787732","co39532","norming","","","","","","",""
"null","../img/tt/1126tt.jpg","null","mooney2","image-keyboard-response","452","1364224","0.0-6.0-5.63","6787732","co39532","norming","","","","","","",""
"2015.0000000002328","","","post_reveal_questions","survey-likert","453","1366241","0.0-6.0-6.63","6787732","co39532","norming","","","{""aha"":4}","[0]","../img/tt/1126tt.jpg","",""
"null","<div style=""font-size:60px;""> </div>","null","fixation","html-keyboard-response","454","1366444","0.0-6.0-0.64","6787732","co39532","norming","","","","","","",""
"null","../img/tt/001tt.jpg","null","mooney1","image-keyboard-response","455","1369447","0.0-6.0-1.64","6787732","co39532","norming","","","","","","",""
"3807","","","post_mooney1_questions","survey-likert","456","1373256","0.0-6.0-2.64","6787732","co39532","norming","","","{""curiosity"":4,""confidence"":5}","[0,1]","../img/tt/001tt.jpg","",""
"1494","","","recognition","survey-text","457","1374757","0.0-6.0-3.64","6787732","co39532","norming","","","{""guess"":""koe""}","","../img/tt/001tt.jpg","",""
"null","../img/gs/001gs.jpg","null","reveal","image-keyboard-response","458","1376760","0.0-6.0-4.64","6787732","co39532","norming","","","","","","",""
"null","../img/tt/001tt.jpg","null","mooney2","image-keyboard-response","459","1378762","0.0-6.0-5.64","6787732","co39532","norming","","","","","","",""
"1452","","","post_reveal_questions","survey-likert","460","1380216","0.0-6.0-6.64","6787732","co39532","norming","","","{""aha"":6}","[0]","../img/tt/001tt.jpg","",""
"null","<div style=""font-size:60px;""> </div>","null","fixation","html-keyboard-response","461","1380420","0.0-6.0-0.65","6787732","co39532","norming","","","","","","",""
"null","../img/tt/1278tt.jpg","null","mooney1","image-keyboard-response","462","1383422","0.0-6.0-1.65","6787732","co39532","norming","","","","","","",""
"2740.999999999767","","","post_mooney1_questions","survey-likert","463","1386165","0.0-6.0-2.65","6787732","co39532","norming","","","{""curiosity"":5,""confidence"":5}","[0,1]","../img/tt/1278tt.jpg","",""
"1562","","","recognition","survey-text","464","1387735","0.0-6.0-3.65","6787732","co39532","norming","","","{""guess"":""non""}","","../img/tt/1278tt.jpg","",""
"null","../img/gs/1278gs.jpg","null","reveal","image-keyboard-response","465","1389738","0.0-6.0-4.65","6787732","co39532","norming","","","","","","",""
"null","../img/tt/1278tt.jpg","null","mooney2","image-keyboard-response","466","1391741","0.0-6.0-5.65","6787732","co39532","norming","","","","","","",""
"3383.000000000233","","","post_reveal_questions","survey-likert","467","1395126","0.0-6.0-6.65","6787732","co39532","norming","","","{""aha"":5}","[0]","../img/tt/1278tt.jpg","",""
"null","<div style=""font-size:60px;""> </div>","null","fixation","html-keyboard-response","468","1395329","0.0-6.0-0.66","6787732","co39532","norming","","","","","","",""
"null","../img/tt/118tt.jpg","null","mooney1","image-keyboard-response","469","1398332","0.0-6.0-1.66","6787732","co39532","norming","","","","","","",""
"3673","","","post_mooney1_questions","survey-likert","470","1402007","0.0-6.0-2.66","6787732","co39532","norming","","","{""curiosity"":4,""confidence"":5}","[0,1]","../img/tt/118tt.jpg","",""
"1997","","","recognition","survey-text","471","1404011","0.0-6.0-3.66","6787732","co39532","norming","","","{""guess"":""cake""}","","../img/tt/118tt.jpg","",""
"null","../img/gs/118gs.jpg","null","reveal","image-keyboard-response","472","1406014","0.0-6.0-4.66","6787732","co39532","norming","","","","","","",""
"null","../img/tt/118tt.jpg","null","mooney2","image-keyboard-response","473","1408016","0.0-6.0-5.66","6787732","co39532","norming","","","","","","",""
"1915","","","post_reveal_questions","survey-likert","474","1409933","0.0-6.0-6.66","6787732","co39532","norming","","","{""aha"":3}","[0]","../img/tt/118tt.jpg","",""
"null","<div style=""font-size:60px;""> </div>","null","fixation","html-keyboard-response","475","1410137","0.0-6.0-0.67","6787732","co39532","norming","","","","","","",""
"null","../img/tt/1063tt.jpg","null","mooney1","image-keyboard-response","476","1413139","0.0-6.0-1.67","6787732","co39532","norming","","","","","","",""
"3540","","","post_mooney1_questions","survey-likert","477","1416680","0.0-6.0-2.67","6787732","co39532","norming","","","{""curiosity"":5,""confidence"":5}","[0,1]","../img/tt/1063tt.jpg","",""
"2200","","","recognition","survey-text","478","1418888","0.0-6.0-3.67","6787732","co39532","norming","","","{""guess"":""paard""}","","../img/tt/1063tt.jpg","",""
"null","../img/gs/1063gs.jpg","null","reveal","image-keyboard-response","479","1420891","0.0-6.0-4.67","6787732","co39532","norming","","","","","","",""
"null","../img/tt/1063tt.jpg","null","mooney2","image-keyboard-response","480","1422894","0.0-6.0-5.67","6787732","co39532","norming","","","","","","",""
"1485","","","post_reveal_questions","survey-likert","481","1424381","0.0-6.0-6.67","6787732","co39532","norming","","","{""aha"":6}","[0]","../img/tt/1063tt.jpg","",""
"null","<div style=""font-size:60px;""> </div>","null","fixation","html-keyboard-response","482","1424584","0.0-6.0-0.68","6787732","co39532","norming","","","","","","",""
"null","../img/tt/105tt.jpg","null","mooney1","image-keyboard-response","483","1427586","0.0-6.0-1.68","6787732","co39532","norming","","","","","","",""
"3497","","","post_mooney1_questions","survey-likert","484","1431084","0.0-6.0-2.68","6787732","co39532","norming","","","{""curiosity"":4,""confidence"":5}","[0,1]","../img/tt/105tt.jpg","",""
"4020","","","recognition","survey-text","485","1435111","0.0-6.0-3.68","6787732","co39532","norming","","","{""guess"":""peperclips""}","","../img/tt/105tt.jpg","",""
"null","../img/gs/105gs.jpg","null","reveal","image-keyboard-response","486","1437113","0.0-6.0-4.68","6787732","co39532","norming","","","","","","",""
"null","../img/tt/105tt.jpg","null","mooney2","image-keyboard-response","487","1439115","0.0-6.0-5.68","6787732","co39532","norming","","","","","","",""
"2419","","","post_reveal_questions","survey-likert","488","1441536","0.0-6.0-6.68","6787732","co39532","norming","","","{""aha"":5}","[0]","../img/tt/105tt.jpg","",""
"null","<div style=""font-size:60px;""> </div>","null","fixation","html-keyboard-response","489","1441738","0.0-6.0-0.69","6787732","co39532","norming","","","","","","",""
"null","../img/tt/053tt.jpg","null","mooney1","image-keyboard-response","490","1444740","0.0-6.0-1.69","6787732","co39532","norming","","","","","","",""
"5006","","","post_mooney1_questions","survey-likert","491","1449748","0.0-6.0-2.69","6787732","co39532","norming","","","{""curiosity"":4,""confidence"":3}","[0,1]","../img/tt/053tt.jpg","",""
"7054.000000000233","","","recognition","survey-text","492","1456810","0.0-6.0-3.69","6787732","co39532","norming","","","{""guess"":""waterval kajak""}","","../img/tt/053tt.jpg","",""
"null","../img/gs/053gs.jpg","null","reveal","image-keyboard-response","493","1458813","0.0-6.0-4.69","6787732","co39532","norming","","","","","","",""
"null","../img/tt/053tt.jpg","null","mooney2","image-keyboard-response","494","1460815","0.0-6.0-5.69","6787732","co39532","norming","","","","","","",""
"1800","","","post_reveal_questions","survey-likert","495","1462616","0.0-6.0-6.69","6787732","co39532","norming","","","{""aha"":3}","[0]","../img/tt/053tt.jpg","",""
"null","<div style=""font-size:60px;""> </div>","null","fixation","html-keyboard-response","496","1462819","0.0-6.0-0.70","6787732","co39532","norming","","","","","","",""
"null","../img/tt/405tt.jpg","null","mooney1","image-keyboard-response","497","1465821","0.0-6.0-1.70","6787732","co39532","norming","","","","","","",""
"5437","","","post_mooney1_questions","survey-likert","498","1471260","0.0-6.0-2.70","6787732","co39532","norming","","","{""curiosity"":4,""confidence"":5}","[0,1]","../img/tt/405tt.jpg","",""
"2610.000000000233","","","recognition","survey-text","499","1473879","0.0-6.0-3.70","6787732","co39532","norming","","","{""guess"":""koala""}","","../img/tt/405tt.jpg","",""
"null","../img/gs/405gs.jpg","null","reveal","image-keyboard-response","500","1475880","0.0-6.0-4.70","6787732","co39532","norming","","","","","","",""
"null","../img/tt/405tt.jpg","null","mooney2","image-keyboard-response","501","1477882","0.0-6.0-5.70","6787732","co39532","norming","","","","","","",""
"1540","","","post_reveal_questions","survey-likert","502","1479424","0.0-6.0-6.70","6787732","co39532","norming","","","{""aha"":4}","[0]","../img/tt/405tt.jpg","",""
"null","<div style=""font-size:60px;""> </div>","null","fixation","html-keyboard-response","503","1479627","0.0-6.0-0.71","6787732","co39532","norming","","","","","","",""
"null","../img/tt/007tt.jpg","null","mooney1","image-keyboard-response","504","1482630","0.0-6.0-1.71","6787732","co39532","norming","","","","","","",""
"4414","","","post_mooney1_questions","survey-likert","505","1487046","0.0-6.0-2.71","6787732","co39532","norming","","","{""curiosity"":4,""confidence"":0}","[0,1]","../img/tt/007tt.jpg","",""
"887","","","recognition","survey-text","506","1487941","0.0-6.0-3.71","6787732","co39532","norming","","","{""guess"":""""}","","../img/tt/007tt.jpg","",""
"null","../img/gs/007gs.jpg","null","reveal","image-keyboard-response","507","1489943","0.0-6.0-4.71","6787732","co39532","norming","","","","","","",""
"null","../img/tt/007tt.jpg","null","mooney2","image-keyboard-response","508","1491945","0.0-6.0-5.71","6787732","co39532","norming","","","","","","",""
"2125","","","post_reveal_questions","survey-likert","509","1494072","0.0-6.0-6.71","6787732","co39532","norming","","","{""aha"":4}","[0]","../img/tt/007tt.jpg","",""
"null","<div style=""font-size:60px;""> </div>","null","fixation","html-keyboard-response","510","1494275","0.0-6.0-0.72","6787732","co39532","norming","","","","","","",""
"null","../img/tt/111tt.jpg","null","mooney1","image-keyboard-response","511","1497278","0.0-6.0-1.72","6787732","co39532","norming","","","","","","",""
"4707","","","post_mooney1_questions","survey-likert","512","1501986","0.0-6.0-2.72","6787732","co39532","norming","","","{""curiosity"":4,""confidence"":2}","[0,1]","../img/tt/111tt.jpg","",""
"3262.999999999767","","","recognition","survey-text","513","1505257","0.0-6.0-3.72","6787732","co39532","norming","","","{""guess"":""tafel mensen""}","","../img/tt/111tt.jpg","",""
"null","../img/gs/111gs.jpg","null","reveal","image-keyboard-response","514","1507260","0.0-6.0-4.72","6787732","co39532","norming","","","","","","",""
"null","../img/tt/111tt.jpg","null","mooney2","image-keyboard-response","515","1509261","0.0-6.0-5.72","6787732","co39532","norming","","","","","","",""
"1384","","","post_reveal_questions","survey-likert","516","1510646","0.0-6.0-6.72","6787732","co39532","norming","","","{""aha"":5}","[0]","../img/tt/111tt.jpg","",""
"null","<div style=""font-size:60px;""> </div>","null","fixation","html-keyboard-response","517","1510849","0.0-6.0-0.73","6787732","co39532","norming","","","","","","",""
"null","../img/tt/064tt.jpg","null","mooney1","image-keyboard-response","518","1513852","0.0-6.0-1.73","6787732","co39532","norming","","","","","","",""
"2660.000000000233","","","post_mooney1_questions","survey-likert","519","1516514","0.0-6.0-2.73","6787732","co39532","norming","","","{""curiosity"":5,""confidence"":5}","[0,1]","../img/tt/064tt.jpg","",""
"3496","","","recognition","survey-text","520","1520018","0.0-6.0-3.73","6787732","co39532","norming","","","{""guess"":""slang""}","","../img/tt/064tt.jpg","",""
"null","../img/gs/064gs.jpg","null","reveal","image-keyboard-response","521","1522020","0.0-6.0-4.73","6787732","co39532","norming","","","","","","",""
"null","../img/tt/064tt.jpg","null","mooney2","image-keyboard-response","522","1524023","0.0-6.0-5.73","6787732","co39532","norming","","","","","","",""
"2416.999999999767","","","post_reveal_questions","survey-likert","523","1526441","0.0-6.0-6.73","6787732","co39532","norming","","","{""aha"":4}","[0]","../img/tt/064tt.jpg","",""
"null","<div style=""font-size:60px;""> </div>","null","fixation","html-keyboard-response","524","1526644","0.0-6.0-0.74","6787732","co39532","norming","","","","","","",""
"null","../img/tt/1191tt.jpg","null","mooney1","image-keyboard-response","525","1529647","0.0-6.0-1.74","6787732","co39532","norming","","","","","","",""
"5686.999999999767","","","post_mooney1_questions","survey-likert","526","1535336","0.0-6.0-2.74","6787732","co39532","norming","","","{""curiosity"":6,""confidence"":5}","[0,1]","../img/tt/1191tt.jpg","",""
"6280","","","recognition","survey-text","527","1541624","0.0-6.0-3.74","6787732","co39532","norming","","","{""guess"":""lopers""}","","../img/tt/1191tt.jpg","",""
"null","../img/gs/1191gs.jpg","null","reveal","image-keyboard-response","528","1543626","0.0-6.0-4.74","6787732","co39532","norming","","","","","","",""
"null","../img/tt/1191tt.jpg","null","mooney2","image-keyboard-response","529","1545627","0.0-6.0-5.74","6787732","co39532","norming","","","","","","",""
"1563.9999999997672","","","post_reveal_questions","survey-likert","530","1547193","0.0-6.0-6.74","6787732","co39532","norming","","","{""aha"":5}","[0]","../img/tt/1191tt.jpg","",""
"null","<div style=""font-size:60px;""> </div>","null","fixation","html-keyboard-response","531","1547397","0.0-6.0-0.75","6787732","co39532","norming","","","","","","",""
"null","../img/tt/1283tt.jpg","null","mooney1","image-keyboard-response","532","1550399","0.0-6.0-1.75","6787732","co39532","norming","","","","","","",""
"8421.000000000233","","","post_mooney1_questions","survey-likert","533","1558823","0.0-6.0-2.75","6787732","co39532","norming","","","{""curiosity"":4,""confidence"":3}","[0,1]","../img/tt/1283tt.jpg","",""
"1945","","","recognition","survey-text","534","1560774","0.0-6.0-3.75","6787732","co39532","norming","","","{""guess"":""aap""}","","../img/tt/1283tt.jpg","",""
"null","../img/gs/1283gs.jpg","null","reveal","image-keyboard-response","535","1562777","0.0-6.0-4.75","6787732","co39532","norming","","","","","","",""
"null","../img/tt/1283tt.jpg","null","mooney2","image-keyboard-response","536","1564778","0.0-6.0-5.75","6787732","co39532","norming","","","","","","",""
"2772","","","post_reveal_questions","survey-likert","537","1567552","0.0-6.0-6.75","6787732","co39532","norming","","","{""aha"":4}","[0]","../img/tt/1283tt.jpg","",""
"null","<div style=""font-size:60px;""> </div>","null","fixation","html-keyboard-response","538","1567755","0.0-6.0-0.76","6787732","co39532","norming","","","","","","",""
"null","../img/tt/091tt.jpg","null","mooney1","image-keyboard-response","539","1570757","0.0-6.0-1.76","6787732","co39532","norming","","","","","","",""
"2877","","","post_mooney1_questions","survey-likert","540","1573636","0.0-6.0-2.76","6787732","co39532","norming","","","{""curiosity"":4,""confidence"":5}","[0,1]","../img/tt/091tt.jpg","",""
"2929.000000000233","","","recognition","survey-text","541","1576573","0.0-6.0-3.76","6787732","co39532","norming","","","{""guess"":""leguaan""}","","../img/tt/091tt.jpg","",""
"null","../img/gs/091gs.jpg","null","reveal","image-keyboard-response","542","1578576","0.0-6.0-4.76","6787732","co39532","norming","","","","","","",""
"null","../img/tt/091tt.jpg","null","mooney2","image-keyboard-response","543","1580578","0.0-6.0-5.76","6787732","co39532","norming","","","","","","",""
"1604","","","post_reveal_questions","survey-likert","544","1582184","0.0-6.0-6.76","6787732","co39532","norming","","","{""aha"":4}","[0]","../img/tt/091tt.jpg","",""
"null","<div style=""font-size:60px;""> </div>","null","fixation","html-keyboard-response","545","1582386","0.0-6.0-0.77","6787732","co39532","norming","","","","","","",""
"null","../img/tt/296tt.jpg","null","mooney1","image-keyboard-response","546","1585389","0.0-6.0-1.77","6787732","co39532","norming","","","","","","",""
"3677.999999999767","","","post_mooney1_questions","survey-likert","547","1589069","0.0-6.0-2.77","6787732","co39532","norming","","","{""curiosity"":5,""confidence"":5}","[0,1]","../img/tt/296tt.jpg","",""
"4019","","","recognition","survey-text","548","1593096","0.0-6.0-3.77","6787732","co39532","norming","","","{""guess"":""ziekenhuisbed""}","","../img/tt/296tt.jpg","",""
"null","../img/gs/296gs.jpg","null","reveal","image-keyboard-response","549","1595098","0.0-6.0-4.77","6787732","co39532","norming","","","","","","",""
"null","../img/tt/296tt.jpg","null","mooney2","image-keyboard-response","550","1597101","0.0-6.0-5.77","6787732","co39532","norming","","","","","","",""
"3302.999999999767","","","post_reveal_questions","survey-likert","551","1600405","0.0-6.0-6.77","6787732","co39532","norming","","","{""aha"":3}","[0]","../img/tt/296tt.jpg","",""
"null","<div style=""font-size:60px;""> </div>","null","fixation","html-keyboard-response","552","1600609","0.0-6.0-0.78","6787732","co39532","norming","","","","","","",""
"null","../img/tt/1127tt.jpg","null","mooney1","image-keyboard-response","553","1603611","0.0-6.0-1.78","6787732","co39532","norming","","","","","","",""
"2896","","","post_mooney1_questions","survey-likert","554","1606509","0.0-6.0-2.78","6787732","co39532","norming","","","{""curiosity"":5,""confidence"":5}","[0,1]","../img/tt/1127tt.jpg","",""
"4615.000000000233","","","recognition","survey-text","555","1611132","0.0-6.0-3.78","6787732","co39532","norming","","","{""guess"":""klaslokaal mensen""}","","../img/tt/1127tt.jpg","",""
"null","../img/gs/1127gs.jpg","null","reveal","image-keyboard-response","556","1613134","0.0-6.0-4.78","6787732","co39532","norming","","","","","","",""
"null","../img/tt/1127tt.jpg","null","mooney2","image-keyboard-response","557","1615138","0.0-6.0-5.78","6787732","co39532","norming","","","","","","",""
"2828","","","post_reveal_questions","survey-likert","558","1617967","0.0-6.0-6.78","6787732","co39532","norming","","","{""aha"":6}","[0]","../img/tt/1127tt.jpg","",""
"null","<div style=""font-size:60px;""> </div>","null","fixation","html-keyboard-response","559","1618171","0.0-6.0-0.79","6787732","co39532","norming","","","","","","",""
"null","../img/tt/1089tt.jpg","null","mooney1","image-keyboard-response","560","1621174","0.0-6.0-1.79","6787732","co39532","norming","","","","","","",""
"4458","","","post_mooney1_questions","survey-likert","561","1625634","0.0-6.0-2.79","6787732","co39532","norming","","","{""curiosity"":5,""confidence"":6}","[0,1]","../img/tt/1089tt.jpg","",""
"3898","","","recognition","survey-text","562","1629541","0.0-6.0-3.79","6787732","co39532","norming","","","{""guess"":""twee olifanten""}","","../img/tt/1089tt.jpg","",""
"null","../img/gs/1089gs.jpg","null","reveal","image-keyboard-response","563","1631543","0.0-6.0-4.79","6787732","co39532","norming","","","","","","",""
"null","../img/tt/1089tt.jpg","null","mooney2","image-keyboard-response","564","1633545","0.0-6.0-5.79","6787732","co39532","norming","","","","","","",""
"1932.0000000002328","","","post_reveal_questions","survey-likert","565","1635479","0.0-6.0-6.79","6787732","co39532","norming","","","{""aha"":5}","[0]","../img/tt/1089tt.jpg","",""
