"rt","stimulus","key_press","test_part","trial_type","trial_index","time_elapsed","internal_node_id","totalTime","subject","experiment_name","button_pressed","success","responses","question_order","currentStim","old","correct"
"12314.615000039339","Welcome to the experiment. This is an online experiment so please don't close the tab/window until we say goodbye.  Press any key to begin.","32","instructions","html-keyboard-response","0","12467","0.0-0.0","26095103","co39145","norming","","","","","","",""
"66203.60499992967","<div style='word-wrap: break-word; width: 900px'><h3>Please consider this information carefully before deciding whether to participate in this research</h3><ul style='text-align: left; font-size: .8em;'><li><b>Purpose of the research</b>: To examine how people process images.</li><li><b>What you will do in this research</b>:  Stimuli (images) will be presented on the computer and you will be asked different questions about them.</li><li><b>Time required</b>: Participation will take between 45 and 60 minutes to complete.</li><li><b>Risks</b>:  There are no anticipated risks associated with participating in this study. The effects of participating should be comparable to those you would experience from viewing a computer monitor for 30 minutes and using a mouse or keyboard.</li><li><b>Benefits</b>:  This study provides no benefits to you individually except for the credit. The study provides important information about the nature of perception and learning.</li><li><b>Confidentiality</b>:  Your participation in this study will remain confidential. No personally identifiable information will be associated with your data. Your de-identified data may be shared with other researchers and used in future projects.</li><li><b>Participation and withdrawal</b>:  Your participation in this study is completely voluntary and you may refuse to participate or you may choose to withdraw at any time without penalty.</li><li><b>How to contact the researchers</b>: If you have questions or concerns about your participation or payment, or want to request a summary of research findings, please contact Sander Van de Cruys (KU Leuven), at sander.vandecruys@kuleuven.be.</li></ul><p>The nature and purpose of this research have been sufficiently explained and I agree to participate in this study.  I understand that I am free to withdraw at any time without incurring any penalty.</p><p>Please consent by clicking the button below to continue. Otherwise, please exit the study at this time.</p></div>","","instructions","html-button-response","1","78674","0.0-1.0","26095103","co39145","norming","0","","","","","",""
"","","","instructions","fullscreen","2","23213632","0.0-2.0","26095103","co39145","norming","","true","","","","",""
"38678.915000054985","","","sona","survey-html-form","3","23252317","0.0-3.0","26095103","co39145","norming","","","[{""name"":""sonaid"",""value"":""39145""},{""name"":""debrief"",""value"":""yes""},{""name"":""datajoin"",""value"":""yes""}]","","","",""
"126704.62500001304","<div style='word-wrap: break-word; width: 900px'><h3>Instructions</h3><p>This experiment will have 3 parts. In the first part you will see a series of distorted images like the one below on the left. As you can see in the righthand image, the distorted images are derived from actual photographs. In what follows, you will <strong>briefly</strong> be presented with <strong>only</strong> the distorted image.</p> <div style='float: left; margin-right: 20px;'><img src='../img/018tt.jpg' height='250' width='250'></img></div><div style='float: right; margin-left: 20px;'><img src='../img/018gs.jpg' height='250' width='250'></img></div><p>Subsequently you will be asked a few questions about the image: One question on how <strong>curious</strong> you are about the solution and one on how <strong>confident</strong> you are that you know the solution.</p>Next, we ask you to make a guess on what is in the image. Note that it is OK to name just the <strong>basic level category</strong>. For example when you see a parrot in the image, 'parrot' will obviously be a correct answer but also correct is 'bird'. However, 'animal' will <strong>not</strong> be counted as a correct response. For the example above, 'rose' would be correct or 'flower', but not 'plant'. When soccer players are depicted, 'soccer', 'football', 'soccer players' will be correct, but not 'humans', 'outdoors', or 'sports'. You do not need to describe the image in full, just name the main object in it <strong>in one or two words</strong>. All images depict objects from one of the following broad level categories: animals, inanimate objects, plants, sports, vehicles, and food. Recognizing means knowing <strong>more</strong> than these broad labels for a given image. But we always encourage you to <strong>make a guess</strong> if you can. Note that you are allowed to use <strong>Dutch and English</strong> in your answers, whatever comes easiest for you.</p><p>Press any key to continue.</p></div>","32","instructions","html-keyboard-response","4","23379030","0.0-4.0","26095103","co39145","norming","","","","","","",""
"24915.154999820516","<div style='word-wrap: break-word; width: 900px'><h3>Instructions</h3> <p>Next, the solution image will be revealed to you and you'll be asked to indicate how strong your <strong>aha-experience</strong> was after seeing the solution. This describes the positive feeling of the 'click' you sometimes experience, when the pieces of the 'puzzle' fall together and you suddenly have 'insight' in the image.</p><img src='aha.jpg' height='188' width='250'></img><p>Note that there are no right or wrong answers. We are interested in what <strong>you</strong> see in the image and how <strong>you</strong> feel about it.</p><p>Press any key to start the experiment.</p></div>","32","instructions","html-keyboard-response","5","23403947","0.0-5.0","26095103","co39145","norming","","","","","","",""
"null","<div style=""font-size:60px;""> </div>","null","fixation","html-keyboard-response","6","23404149","0.0-6.0-0.0","26095103","co39145","norming","","","","","","",""
"null","../img/tt/353tt.jpg","null","mooney1","image-keyboard-response","7","23407154","0.0-6.0-1.0","26095103","co39145","norming","","","","","","",""
"12557.139999931678","","","post_mooney1_questions","survey-likert","8","23419715","0.0-6.0-2.0","26095103","co39145","norming","","","{""curiosity"":4,""confidence"":0}","[0,1]","../img/tt/353tt.jpg","",""
"5220.435000024736","","","recognition","survey-text","9","23424942","0.0-6.0-3.0","26095103","co39145","norming","","","{""guess"":""Bird""}","","../img/tt/353tt.jpg","",""
"null","../img/gs/353gs.jpg","null","reveal","image-keyboard-response","10","23426947","0.0-6.0-4.0","26095103","co39145","norming","","","","","","",""
"null","../img/tt/353tt.jpg","null","mooney2","image-keyboard-response","11","23428949","0.0-6.0-5.0","26095103","co39145","norming","","","","","","",""
"3584.4050000887364","","","post_reveal_questions","survey-likert","12","23432536","0.0-6.0-6.0","26095103","co39145","norming","","","{""aha"":4}","[0]","../img/tt/353tt.jpg","",""
"null","<div style=""font-size:60px;""> </div>","null","fixation","html-keyboard-response","13","23432744","0.0-6.0-0.1","26095103","co39145","norming","","","","","","",""
"null","../img/tt/270tt.jpg","null","mooney1","image-keyboard-response","14","23435750","0.0-6.0-1.1","26095103","co39145","norming","","","","","","",""
"7973.210000200197","","","post_mooney1_questions","survey-likert","15","23443726","0.0-6.0-2.1","26095103","co39145","norming","","","{""curiosity"":3,""confidence"":0}","[0,1]","../img/tt/270tt.jpg","",""
"2033.009999897331","","","recognition","survey-text","16","23445764","0.0-6.0-3.1","26095103","co39145","norming","","","{""guess"":""hert ""}","","../img/tt/270tt.jpg","",""
"null","../img/gs/270gs.jpg","null","reveal","image-keyboard-response","17","23447772","0.0-6.0-4.1","26095103","co39145","norming","","","","","","",""
"null","../img/tt/270tt.jpg","null","mooney2","image-keyboard-response","18","23449775","0.0-6.0-5.1","26095103","co39145","norming","","","","","","",""
"5669.295000145212","","","post_reveal_questions","survey-likert","19","23455447","0.0-6.0-6.1","26095103","co39145","norming","","","{""aha"":4}","[0]","../img/tt/270tt.jpg","",""
"null","<div style=""font-size:60px;""> </div>","null","fixation","html-keyboard-response","20","23455654","0.0-6.0-0.2","26095103","co39145","norming","","","","","","",""
"null","../img/tt/121tt.jpg","null","mooney1","image-keyboard-response","21","23458661","0.0-6.0-1.2","26095103","co39145","norming","","","","","","",""
"10951.795000117272","","","post_mooney1_questions","survey-likert","22","23469616","0.0-6.0-2.2","26095103","co39145","norming","","","{""curiosity"":6,""confidence"":0}","[0,1]","../img/tt/121tt.jpg","",""
"11222.685000160709","","","recognition","survey-text","23","23480844","0.0-6.0-3.2","26095103","co39145","norming","","","{""guess"":""""}","","../img/tt/121tt.jpg","",""
"null","../img/gs/121gs.jpg","null","reveal","image-keyboard-response","24","23482846","0.0-6.0-4.2","26095103","co39145","norming","","","","","","",""
"null","../img/tt/121tt.jpg","null","mooney2","image-keyboard-response","25","23484848","0.0-6.0-5.2","26095103","co39145","norming","","","","","","",""
"3869.599999859929","","","post_reveal_questions","survey-likert","26","23488720","0.0-6.0-6.2","26095103","co39145","norming","","","{""aha"":3}","[0]","../img/tt/121tt.jpg","",""
"null","<div style=""font-size:60px;""> </div>","null","fixation","html-keyboard-response","27","23488925","0.0-6.0-0.3","26095103","co39145","norming","","","","","","",""
"null","../img/tt/040tt.jpg","null","mooney1","image-keyboard-response","28","23491930","0.0-6.0-1.3","26095103","co39145","norming","","","","","","",""
"6304.805000079796","","","post_mooney1_questions","survey-likert","29","23498238","0.0-6.0-2.3","26095103","co39145","norming","","","{""curiosity"":3,""confidence"":2}","[0,1]","../img/tt/040tt.jpg","",""
"3129.549999954179","","","recognition","survey-text","30","23501372","0.0-6.0-3.3","26095103","co39145","norming","","","{""guess"":""konijn""}","","../img/tt/040tt.jpg","",""
"null","../img/gs/040gs.jpg","null","reveal","image-keyboard-response","31","23503380","0.0-6.0-4.3","26095103","co39145","norming","","","","","","",""
"null","../img/tt/040tt.jpg","null","mooney2","image-keyboard-response","32","23505386","0.0-6.0-5.3","26095103","co39145","norming","","","","","","",""
"3706.6850000992417","","","post_reveal_questions","survey-likert","33","23509095","0.0-6.0-6.3","26095103","co39145","norming","","","{""aha"":5}","[0]","../img/tt/040tt.jpg","",""
"null","<div style=""font-size:60px;""> </div>","null","fixation","html-keyboard-response","34","23509301","0.0-6.0-0.4","26095103","co39145","norming","","","","","","",""
"null","../img/tt/1122tt.jpg","null","mooney1","image-keyboard-response","35","23512306","0.0-6.0-1.4","26095103","co39145","norming","","","","","","",""
"4884.744999930263","","","post_mooney1_questions","survey-likert","36","23517193","0.0-6.0-2.4","26095103","co39145","norming","","","{""curiosity"":4,""confidence"":1}","[0,1]","../img/tt/1122tt.jpg","",""
"1999.9200000893325","","","recognition","survey-text","37","23519198","0.0-6.0-3.4","26095103","co39145","norming","","","{""guess"":""trein""}","","../img/tt/1122tt.jpg","",""
"null","../img/gs/1122gs.jpg","null","reveal","image-keyboard-response","38","23521200","0.0-6.0-4.4","26095103","co39145","norming","","","","","","",""
"null","../img/tt/1122tt.jpg","null","mooney2","image-keyboard-response","39","23523204","0.0-6.0-5.4","26095103","co39145","norming","","","","","","",""
"3441.8450000230223","","","post_reveal_questions","survey-likert","40","23526649","0.0-6.0-6.4","26095103","co39145","norming","","","{""aha"":4}","[0]","../img/tt/1122tt.jpg","",""
"null","<div style=""font-size:60px;""> </div>","null","fixation","html-keyboard-response","41","23526855","0.0-6.0-0.5","26095103","co39145","norming","","","","","","",""
"null","../img/tt/112tt.jpg","null","mooney1","image-keyboard-response","42","23529862","0.0-6.0-1.5","26095103","co39145","norming","","","","","","",""
"4448.305000085384","","","post_mooney1_questions","survey-likert","43","23534313","0.0-6.0-2.5","26095103","co39145","norming","","","{""curiosity"":2,""confidence"":2}","[0,1]","../img/tt/112tt.jpg","",""
"3465.224999934435","","","recognition","survey-text","44","23537783","0.0-6.0-3.5","26095103","co39145","norming","","","{""guess"":""fles wijn ""}","","../img/tt/112tt.jpg","",""
"null","../img/gs/112gs.jpg","null","reveal","image-keyboard-response","45","23539787","0.0-6.0-4.5","26095103","co39145","norming","","","","","","",""
"null","../img/tt/112tt.jpg","null","mooney2","image-keyboard-response","46","23541791","0.0-6.0-5.5","26095103","co39145","norming","","","","","","",""
"2302.4100000038743","","","post_reveal_questions","survey-likert","47","23544096","0.0-6.0-6.5","26095103","co39145","norming","","","{""aha"":6}","[0]","../img/tt/112tt.jpg","",""
"null","<div style=""font-size:60px;""> </div>","null","fixation","html-keyboard-response","48","23544302","0.0-6.0-0.6","26095103","co39145","norming","","","","","","",""
"null","../img/tt/1128tt.jpg","null","mooney1","image-keyboard-response","49","23547306","0.0-6.0-1.6","26095103","co39145","norming","","","","","","",""
"6145.3249999322","","","post_mooney1_questions","survey-likert","50","23553454","0.0-6.0-2.6","26095103","co39145","norming","","","{""curiosity"":4,""confidence"":1}","[0,1]","../img/tt/1128tt.jpg","",""
"1576.3749999459833","","","recognition","survey-text","51","23555035","0.0-6.0-3.6","26095103","co39145","norming","","","{""guess"":""aap""}","","../img/tt/1128tt.jpg","",""
"null","../img/gs/1128gs.jpg","null","reveal","image-keyboard-response","52","23557042","0.0-6.0-4.6","26095103","co39145","norming","","","","","","",""
"null","../img/tt/1128tt.jpg","null","mooney2","image-keyboard-response","53","23559047","0.0-6.0-5.6","26095103","co39145","norming","","","","","","",""
"6310.069999890402","","","post_reveal_questions","survey-likert","54","23565359","0.0-6.0-6.6","26095103","co39145","norming","","","{""aha"":5}","[0]","../img/tt/1128tt.jpg","",""
"null","<div style=""font-size:60px;""> </div>","null","fixation","html-keyboard-response","55","23565566","0.0-6.0-0.7","26095103","co39145","norming","","","","","","",""
"null","../img/tt/1012tt.jpg","null","mooney1","image-keyboard-response","56","23568574","0.0-6.0-1.7","26095103","co39145","norming","","","","","","",""
"8773.060000035912","","","post_mooney1_questions","survey-likert","57","23577350","0.0-6.0-2.7","26095103","co39145","norming","","","{""curiosity"":4,""confidence"":0}","[0,1]","../img/tt/1012tt.jpg","",""
"732.38499998115","","","recognition","survey-text","58","23578086","0.0-6.0-3.7","26095103","co39145","norming","","","{""guess"":""""}","","../img/tt/1012tt.jpg","",""
"null","../img/gs/1012gs.jpg","null","reveal","image-keyboard-response","59","23580090","0.0-6.0-4.7","26095103","co39145","norming","","","","","","",""
"null","../img/tt/1012tt.jpg","null","mooney2","image-keyboard-response","60","23582094","0.0-6.0-5.7","26095103","co39145","norming","","","","","","",""
"2630.064999917522","","","post_reveal_questions","survey-likert","61","23584726","0.0-6.0-6.7","26095103","co39145","norming","","","{""aha"":6}","[0]","../img/tt/1012tt.jpg","",""
"null","<div style=""font-size:60px;""> </div>","null","fixation","html-keyboard-response","62","23584931","0.0-6.0-0.8","26095103","co39145","norming","","","","","","",""
"null","../img/tt/060tt.jpg","null","mooney1","image-keyboard-response","63","23587933","0.0-6.0-1.8","26095103","co39145","norming","","","","","","",""
"10860.47499999404","","","post_mooney1_questions","survey-likert","64","23598796","0.0-6.0-2.8","26095103","co39145","norming","","","{""curiosity"":4,""confidence"":0}","[0,1]","../img/tt/060tt.jpg","",""
"1790.2150000445545","","","recognition","survey-text","65","23600592","0.0-6.0-3.8","26095103","co39145","norming","","","{""guess"":""""}","","../img/tt/060tt.jpg","",""
"null","../img/gs/060gs.jpg","null","reveal","image-keyboard-response","66","23602599","0.0-6.0-4.8","26095103","co39145","norming","","","","","","",""
"null","../img/tt/060tt.jpg","null","mooney2","image-keyboard-response","67","23604604","0.0-6.0-5.8","26095103","co39145","norming","","","","","","",""
"1737.5150001607835","","","post_reveal_questions","survey-likert","68","23606344","0.0-6.0-6.8","26095103","co39145","norming","","","{""aha"":1}","[0]","../img/tt/060tt.jpg","",""
"null","<div style=""font-size:60px;""> </div>","null","fixation","html-keyboard-response","69","23606546","0.0-6.0-0.9","26095103","co39145","norming","","","","","","",""
"null","../img/tt/296tt.jpg","null","mooney1","image-keyboard-response","70","23609549","0.0-6.0-1.9","26095103","co39145","norming","","","","","","",""
"4361.345000099391","","","post_mooney1_questions","survey-likert","71","23613913","0.0-6.0-2.9","26095103","co39145","norming","","","{""curiosity"":4,""confidence"":1}","[0,1]","../img/tt/296tt.jpg","",""
"4635.370000032708","","","recognition","survey-text","72","23618553","0.0-6.0-3.9","26095103","co39145","norming","","","{""guess"":""computer ""}","","../img/tt/296tt.jpg","",""
"null","../img/gs/296gs.jpg","null","reveal","image-keyboard-response","73","23620557","0.0-6.0-4.9","26095103","co39145","norming","","","","","","",""
"null","../img/tt/296tt.jpg","null","mooney2","image-keyboard-response","74","23622559","0.0-6.0-5.9","26095103","co39145","norming","","","","","","",""
"2761.7649999447167","","","post_reveal_questions","survey-likert","75","23625323","0.0-6.0-6.9","26095103","co39145","norming","","","{""aha"":4}","[0]","../img/tt/296tt.jpg","",""
"null","<div style=""font-size:60px;""> </div>","null","fixation","html-keyboard-response","76","23625529","0.0-6.0-0.10","26095103","co39145","norming","","","","","","",""
"null","../img/tt/552tt.jpg","null","mooney1","image-keyboard-response","77","23628536","0.0-6.0-1.10","26095103","co39145","norming","","","","","","",""
"9004.810000071302","","","post_mooney1_questions","survey-likert","78","23637544","0.0-6.0-2.10","26095103","co39145","norming","","","{""curiosity"":3,""confidence"":1}","[0,1]","../img/tt/552tt.jpg","",""
"3932.1800000034273","","","recognition","survey-text","79","23641484","0.0-6.0-3.10","26095103","co39145","norming","","","{""guess"":""vrouw""}","","../img/tt/552tt.jpg","",""
"null","../img/gs/552gs.jpg","null","reveal","image-keyboard-response","80","23643490","0.0-6.0-4.10","26095103","co39145","norming","","","","","","",""
"null","../img/tt/552tt.jpg","null","mooney2","image-keyboard-response","81","23645495","0.0-6.0-5.10","26095103","co39145","norming","","","","","","",""
"3108.3599999547005","","","post_reveal_questions","survey-likert","82","23648606","0.0-6.0-6.10","26095103","co39145","norming","","","{""aha"":5}","[0]","../img/tt/552tt.jpg","",""
"null","<div style=""font-size:60px;""> </div>","null","fixation","html-keyboard-response","83","23648810","0.0-6.0-0.11","26095103","co39145","norming","","","","","","",""
"null","../img/tt/1202tt.jpg","null","mooney1","image-keyboard-response","84","23651816","0.0-6.0-1.11","26095103","co39145","norming","","","","","","",""
"8791.905000107363","","","post_mooney1_questions","survey-likert","85","23660611","0.0-6.0-2.11","26095103","co39145","norming","","","{""curiosity"":6,""confidence"":0}","[0,1]","../img/tt/1202tt.jpg","",""
"1128.2949999440461","","","recognition","survey-text","86","23661745","0.0-6.0-3.11","26095103","co39145","norming","","","{""guess"":""""}","","../img/tt/1202tt.jpg","",""
"null","../img/gs/1202gs.jpg","null","reveal","image-keyboard-response","87","23663751","0.0-6.0-4.11","26095103","co39145","norming","","","","","","",""
"null","../img/tt/1202tt.jpg","null","mooney2","image-keyboard-response","88","23665757","0.0-6.0-5.11","26095103","co39145","norming","","","","","","",""
"6206.00500004366","","","post_reveal_questions","survey-likert","89","23671965","0.0-6.0-6.11","26095103","co39145","norming","","","{""aha"":3}","[0]","../img/tt/1202tt.jpg","",""
"null","<div style=""font-size:60px;""> </div>","null","fixation","html-keyboard-response","90","23672171","0.0-6.0-0.12","26095103","co39145","norming","","","","","","",""
"null","../img/tt/044tt.jpg","null","mooney1","image-keyboard-response","91","23675173","0.0-6.0-1.12","26095103","co39145","norming","","","","","","",""
"5104.7799999359995","","","post_mooney1_questions","survey-likert","92","23680280","0.0-6.0-2.12","26095103","co39145","norming","","","{""curiosity"":3,""confidence"":1}","[0,1]","../img/tt/044tt.jpg","",""
"2430.3699999582022","","","recognition","survey-text","93","23682715","0.0-6.0-3.12","26095103","co39145","norming","","","{""guess"":""computer""}","","../img/tt/044tt.jpg","",""
"null","../img/gs/044gs.jpg","null","reveal","image-keyboard-response","94","23684718","0.0-6.0-4.12","26095103","co39145","norming","","","","","","",""
"null","../img/tt/044tt.jpg","null","mooney2","image-keyboard-response","95","23686724","0.0-6.0-5.12","26095103","co39145","norming","","","","","","",""
"3913.1950000301003","","","post_reveal_questions","survey-likert","96","23690639","0.0-6.0-6.12","26095103","co39145","norming","","","{""aha"":4}","[0]","../img/tt/044tt.jpg","",""
"null","<div style=""font-size:60px;""> </div>","null","fixation","html-keyboard-response","97","23690846","0.0-6.0-0.13","26095103","co39145","norming","","","","","","",""
"null","../img/tt/1107tt.jpg","null","mooney1","image-keyboard-response","98","23693852","0.0-6.0-1.13","26095103","co39145","norming","","","","","","",""
"5540.345000103116","","","post_mooney1_questions","survey-likert","99","23699395","0.0-6.0-2.13","26095103","co39145","norming","","","{""curiosity"":4,""confidence"":1}","[0,1]","../img/tt/1107tt.jpg","",""
"2078.4399998374283","","","recognition","survey-text","100","23701478","0.0-6.0-3.13","26095103","co39145","norming","","","{""guess"":""vlinder""}","","../img/tt/1107tt.jpg","",""
"null","../img/gs/1107gs.jpg","null","reveal","image-keyboard-response","101","23703484","0.0-6.0-4.13","26095103","co39145","norming","","","","","","",""
"null","../img/tt/1107tt.jpg","null","mooney2","image-keyboard-response","102","23705486","0.0-6.0-5.13","26095103","co39145","norming","","","","","","",""
"1421.0300000850111","","","post_reveal_questions","survey-likert","103","23706909","0.0-6.0-6.13","26095103","co39145","norming","","","{""aha"":1}","[0]","../img/tt/1107tt.jpg","",""
"null","<div style=""font-size:60px;""> </div>","null","fixation","html-keyboard-response","104","23707116","0.0-6.0-0.14","26095103","co39145","norming","","","","","","",""
"null","../img/tt/279tt.jpg","null","mooney1","image-keyboard-response","105","23710118","0.0-6.0-1.14","26095103","co39145","norming","","","","","","",""
"5898.820000002161","","","post_mooney1_questions","survey-likert","106","23716020","0.0-6.0-2.14","26095103","co39145","norming","","","{""curiosity"":1,""confidence"":4}","[0,1]","../img/tt/279tt.jpg","",""
"3177.635000087321","","","recognition","survey-text","107","23719202","0.0-6.0-3.14","26095103","co39145","norming","","","{""guess"":""koala""}","","../img/tt/279tt.jpg","",""
"null","../img/gs/279gs.jpg","null","reveal","image-keyboard-response","108","23721207","0.0-6.0-4.14","26095103","co39145","norming","","","","","","",""
"null","../img/tt/279tt.jpg","null","mooney2","image-keyboard-response","109","23723212","0.0-6.0-5.14","26095103","co39145","norming","","","","","","",""
"3813.7350000906736","","","post_reveal_questions","survey-likert","110","23727028","0.0-6.0-6.14","26095103","co39145","norming","","","{""aha"":0}","[0]","../img/tt/279tt.jpg","",""
"null","<div style=""font-size:60px;""> </div>","null","fixation","html-keyboard-response","111","23727235","0.0-6.0-0.15","26095103","co39145","norming","","","","","","",""
"null","../img/tt/1156tt.jpg","null","mooney1","image-keyboard-response","112","23730237","0.0-6.0-1.15","26095103","co39145","norming","","","","","","",""
"10851.39500000514","","","post_mooney1_questions","survey-likert","113","23741092","0.0-6.0-2.15","26095103","co39145","norming","","","{""curiosity"":5,""confidence"":1}","[0,1]","../img/tt/1156tt.jpg","",""
"2602.7000001631677","","","recognition","survey-text","114","23743699","0.0-6.0-3.15","26095103","co39145","norming","","","{""guess"":""paard""}","","../img/tt/1156tt.jpg","",""
"null","../img/gs/1156gs.jpg","null","reveal","image-keyboard-response","115","23745706","0.0-6.0-4.15","26095103","co39145","norming","","","","","","",""
"null","../img/tt/1156tt.jpg","null","mooney2","image-keyboard-response","116","23747709","0.0-6.0-5.15","26095103","co39145","norming","","","","","","",""
"2203.2800000160933","","","post_reveal_questions","survey-likert","117","23749914","0.0-6.0-6.15","26095103","co39145","norming","","","{""aha"":5}","[0]","../img/tt/1156tt.jpg","",""
"null","<div style=""font-size:60px;""> </div>","null","fixation","html-keyboard-response","118","23750117","0.0-6.0-0.16","26095103","co39145","norming","","","","","","",""
"null","../img/tt/013tt.jpg","null","mooney1","image-keyboard-response","119","23753120","0.0-6.0-1.16","26095103","co39145","norming","","","","","","",""
"5325.2650001086295","","","post_mooney1_questions","survey-likert","120","23758448","0.0-6.0-2.16","26095103","co39145","norming","","","{""curiosity"":6,""confidence"":0}","[0,1]","../img/tt/013tt.jpg","",""
"1462.7000000327826","","","recognition","survey-text","121","23759915","0.0-6.0-3.16","26095103","co39145","norming","","","{""guess"":""""}","","../img/tt/013tt.jpg","",""
"null","../img/gs/013gs.jpg","null","reveal","image-keyboard-response","122","23761919","0.0-6.0-4.16","26095103","co39145","norming","","","","","","",""
"null","../img/tt/013tt.jpg","null","mooney2","image-keyboard-response","123","23763925","0.0-6.0-5.16","26095103","co39145","norming","","","","","","",""
"4527.81999995932","","","post_reveal_questions","survey-likert","124","23768455","0.0-6.0-6.16","26095103","co39145","norming","","","{""aha"":5}","[0]","../img/tt/013tt.jpg","",""
"null","<div style=""font-size:60px;""> </div>","null","fixation","html-keyboard-response","125","23768661","0.0-6.0-0.17","26095103","co39145","norming","","","","","","",""
"null","../img/tt/118tt.jpg","null","mooney1","image-keyboard-response","126","23771665","0.0-6.0-1.17","26095103","co39145","norming","","","","","","",""
"6942.584999836981","","","post_mooney1_questions","survey-likert","127","23778611","0.0-6.0-2.17","26095103","co39145","norming","","","{""curiosity"":4,""confidence"":1}","[0,1]","../img/tt/118tt.jpg","",""
"2196.8950000591576","","","recognition","survey-text","128","23780812","0.0-6.0-3.17","26095103","co39145","norming","","","{""guess"":""piano""}","","../img/tt/118tt.jpg","",""
"null","../img/gs/118gs.jpg","null","reveal","image-keyboard-response","129","23782815","0.0-6.0-4.17","26095103","co39145","norming","","","","","","",""
"null","../img/tt/118tt.jpg","null","mooney2","image-keyboard-response","130","23784821","0.0-6.0-5.17","26095103","co39145","norming","","","","","","",""
"2609.2100001405925","","","post_reveal_questions","survey-likert","131","23787432","0.0-6.0-6.17","26095103","co39145","norming","","","{""aha"":4}","[0]","../img/tt/118tt.jpg","",""
"null","<div style=""font-size:60px;""> </div>","null","fixation","html-keyboard-response","132","23787636","0.0-6.0-0.18","26095103","co39145","norming","","","","","","",""
"null","../img/tt/1116tt.jpg","null","mooney1","image-keyboard-response","133","23790638","0.0-6.0-1.18","26095103","co39145","norming","","","","","","",""
"5273.629999952391","","","post_mooney1_questions","survey-likert","134","23795914","0.0-6.0-2.18","26095103","co39145","norming","","","{""curiosity"":5,""confidence"":1}","[0,1]","../img/tt/1116tt.jpg","",""
"1752.9949999880046","","","recognition","survey-text","135","23797672","0.0-6.0-3.18","26095103","co39145","norming","","","{""guess"":""boot""}","","../img/tt/1116tt.jpg","",""
"null","../img/gs/1116gs.jpg","null","reveal","image-keyboard-response","136","23799675","0.0-6.0-4.18","26095103","co39145","norming","","","","","","",""
"null","../img/tt/1116tt.jpg","null","mooney2","image-keyboard-response","137","23801680","0.0-6.0-5.18","26095103","co39145","norming","","","","","","",""
"3617.3099998850375","","","post_reveal_questions","survey-likert","138","23805299","0.0-6.0-6.18","26095103","co39145","norming","","","{""aha"":4}","[0]","../img/tt/1116tt.jpg","",""
"null","<div style=""font-size:60px;""> </div>","null","fixation","html-keyboard-response","139","23805503","0.0-6.0-0.19","26095103","co39145","norming","","","","","","",""
"null","../img/tt/1087tt.jpg","null","mooney1","image-keyboard-response","140","23808511","0.0-6.0-1.19","26095103","co39145","norming","","","","","","",""
"6151.835000142455","","","post_mooney1_questions","survey-likert","141","23814665","0.0-6.0-2.19","26095103","co39145","norming","","","{""curiosity"":4,""confidence"":2}","[0,1]","../img/tt/1087tt.jpg","",""
"3875.315000070259","","","recognition","survey-text","142","23818545","0.0-6.0-3.19","26095103","co39145","norming","","","{""guess"":""nijlpaard""}","","../img/tt/1087tt.jpg","",""
"null","../img/gs/1087gs.jpg","null","reveal","image-keyboard-response","143","23820552","0.0-6.0-4.19","26095103","co39145","norming","","","","","","",""
"null","../img/tt/1087tt.jpg","null","mooney2","image-keyboard-response","144","23822556","0.0-6.0-5.19","26095103","co39145","norming","","","","","","",""
"3172.6550001185387","","","post_reveal_questions","survey-likert","145","23825731","0.0-6.0-6.19","26095103","co39145","norming","","","{""aha"":4}","[0]","../img/tt/1087tt.jpg","",""
"null","<div style=""font-size:60px;""> </div>","null","fixation","html-keyboard-response","146","23825936","0.0-6.0-0.20","26095103","co39145","norming","","","","","","",""
"null","../img/tt/126tt.jpg","null","mooney1","image-keyboard-response","147","23828939","0.0-6.0-1.20","26095103","co39145","norming","","","","","","",""
"5619.910000124946","","","post_mooney1_questions","survey-likert","148","23834561","0.0-6.0-2.20","26095103","co39145","norming","","","{""curiosity"":4,""confidence"":1}","[0,1]","../img/tt/126tt.jpg","",""
"1898.6149998381734","","","recognition","survey-text","149","23836465","0.0-6.0-3.20","26095103","co39145","norming","","","{""guess"":""geweer""}","","../img/tt/126tt.jpg","",""
"null","../img/gs/126gs.jpg","null","reveal","image-keyboard-response","150","23838472","0.0-6.0-4.20","26095103","co39145","norming","","","","","","",""
"null","../img/tt/126tt.jpg","null","mooney2","image-keyboard-response","151","23840475","0.0-6.0-5.20","26095103","co39145","norming","","","","","","",""
"5203.815000131726","","","post_reveal_questions","survey-likert","152","23845681","0.0-6.0-6.20","26095103","co39145","norming","","","{""aha"":5}","[0]","../img/tt/126tt.jpg","",""
"null","<div style=""font-size:60px;""> </div>","null","fixation","html-keyboard-response","153","23845888","0.0-6.0-0.21","26095103","co39145","norming","","","","","","",""
"null","../img/tt/1033tt.jpg","null","mooney1","image-keyboard-response","154","23848895","0.0-6.0-1.21","26095103","co39145","norming","","","","","","",""
"4358.310000039637","","","post_mooney1_questions","survey-likert","155","23853256","0.0-6.0-2.21","26095103","co39145","norming","","","{""curiosity"":5,""confidence"":0}","[0,1]","../img/tt/1033tt.jpg","",""
"932.9250000882894","","","recognition","survey-text","156","23854194","0.0-6.0-3.21","26095103","co39145","norming","","","{""guess"":""""}","","../img/tt/1033tt.jpg","",""
"null","../img/gs/1033gs.jpg","null","reveal","image-keyboard-response","157","23856197","0.0-6.0-4.21","26095103","co39145","norming","","","","","","",""
"null","../img/tt/1033tt.jpg","null","mooney2","image-keyboard-response","158","23858199","0.0-6.0-5.21","26095103","co39145","norming","","","","","","",""
"3957.010000012815","","","post_reveal_questions","survey-likert","159","23862158","0.0-6.0-6.21","26095103","co39145","norming","","","{""aha"":6}","[0]","../img/tt/1033tt.jpg","",""
"null","<div style=""font-size:60px;""> </div>","null","fixation","html-keyboard-response","160","23862365","0.0-6.0-0.22","26095103","co39145","norming","","","","","","",""
"null","../img/tt/222tt.jpg","null","mooney1","image-keyboard-response","161","23865369","0.0-6.0-1.22","26095103","co39145","norming","","","","","","",""
"11485.41000019759","","","post_mooney1_questions","survey-likert","162","23876857","0.0-6.0-2.22","26095103","co39145","norming","","","{""curiosity"":6,""confidence"":0}","[0,1]","../img/tt/222tt.jpg","",""
"892.8249999880791","","","recognition","survey-text","163","23877755","0.0-6.0-3.22","26095103","co39145","norming","","","{""guess"":""""}","","../img/tt/222tt.jpg","",""
"null","../img/gs/222gs.jpg","null","reveal","image-keyboard-response","164","23879758","0.0-6.0-4.22","26095103","co39145","norming","","","","","","",""
"null","../img/tt/222tt.jpg","null","mooney2","image-keyboard-response","165","23881763","0.0-6.0-5.22","26095103","co39145","norming","","","","","","",""
"6332.349999807775","","","post_reveal_questions","survey-likert","166","23888098","0.0-6.0-6.22","26095103","co39145","norming","","","{""aha"":4}","[0]","../img/tt/222tt.jpg","",""
"null","<div style=""font-size:60px;""> </div>","null","fixation","html-keyboard-response","167","23888300","0.0-6.0-0.23","26095103","co39145","norming","","","","","","",""
"null","../img/tt/1053tt.jpg","null","mooney1","image-keyboard-response","168","23891303","0.0-6.0-1.23","26095103","co39145","norming","","","","","","",""
"15717.194999800995","","","post_mooney1_questions","survey-likert","169","23907023","0.0-6.0-2.23","26095103","co39145","norming","","","{""curiosity"":6,""confidence"":0}","[0,1]","../img/tt/1053tt.jpg","",""
"877.07499996759","","","recognition","survey-text","170","23907905","0.0-6.0-3.23","26095103","co39145","norming","","","{""guess"":""""}","","../img/tt/1053tt.jpg","",""
"null","../img/gs/1053gs.jpg","null","reveal","image-keyboard-response","171","23909909","0.0-6.0-4.23","26095103","co39145","norming","","","","","","",""
"null","../img/tt/1053tt.jpg","null","mooney2","image-keyboard-response","172","23911914","0.0-6.0-5.23","26095103","co39145","norming","","","","","","",""
"3328.6450000014156","","","post_reveal_questions","survey-likert","173","23915245","0.0-6.0-6.23","26095103","co39145","norming","","","{""aha"":6}","[0]","../img/tt/1053tt.jpg","",""
"null","<div style=""font-size:60px;""> </div>","null","fixation","html-keyboard-response","174","23915447","0.0-6.0-0.24","26095103","co39145","norming","","","","","","",""
"null","../img/tt/091tt.jpg","null","mooney1","image-keyboard-response","175","23918450","0.0-6.0-1.24","26095103","co39145","norming","","","","","","",""
"5614.749999949709","","","post_mooney1_questions","survey-likert","176","23924067","0.0-6.0-2.24","26095103","co39145","norming","","","{""curiosity"":5,""confidence"":1}","[0,1]","../img/tt/091tt.jpg","",""
"2088.675000006333","","","recognition","survey-text","177","23926161","0.0-6.0-3.24","26095103","co39145","norming","","","{""guess"":""vogel""}","","../img/tt/091tt.jpg","",""
"null","../img/gs/091gs.jpg","null","reveal","image-keyboard-response","178","23928164","0.0-6.0-4.24","26095103","co39145","norming","","","","","","",""
"null","../img/tt/091tt.jpg","null","mooney2","image-keyboard-response","179","23930166","0.0-6.0-5.24","26095103","co39145","norming","","","","","","",""
"3209.0050000697374","","","post_reveal_questions","survey-likert","180","23933377","0.0-6.0-6.24","26095103","co39145","norming","","","{""aha"":4}","[0]","../img/tt/091tt.jpg","",""
"null","<div style=""font-size:60px;""> </div>","null","fixation","html-keyboard-response","181","23933580","0.0-6.0-0.25","26095103","co39145","norming","","","","","","",""
"null","../img/tt/357tt.jpg","null","mooney1","image-keyboard-response","182","23936587","0.0-6.0-1.25","26095103","co39145","norming","","","","","","",""
"9150.069999974221","","","post_mooney1_questions","survey-likert","183","23945739","0.0-6.0-2.25","26095103","co39145","norming","","","{""curiosity"":4,""confidence"":2}","[0,1]","../img/tt/357tt.jpg","",""
"821.0800001397729","","","recognition","survey-text","184","23946565","0.0-6.0-3.25","26095103","co39145","norming","","","{""guess"":""""}","","../img/tt/357tt.jpg","",""
"null","../img/gs/357gs.jpg","null","reveal","image-keyboard-response","185","23948571","0.0-6.0-4.25","26095103","co39145","norming","","","","","","",""
"null","../img/tt/357tt.jpg","null","mooney2","image-keyboard-response","186","23950576","0.0-6.0-5.25","26095103","co39145","norming","","","","","","",""
"1709.4450001604855","","","post_reveal_questions","survey-likert","187","23952288","0.0-6.0-6.25","26095103","co39145","norming","","","{""aha"":1}","[0]","../img/tt/357tt.jpg","",""
"null","<div style=""font-size:60px;""> </div>","null","fixation","html-keyboard-response","188","23952493","0.0-6.0-0.26","26095103","co39145","norming","","","","","","",""
"null","../img/tt/1228tt.jpg","null","mooney1","image-keyboard-response","189","23955500","0.0-6.0-1.26","26095103","co39145","norming","","","","","","",""
"3684.7650001291186","","","post_mooney1_questions","survey-likert","190","23959188","0.0-6.0-2.26","26095103","co39145","norming","","","{""curiosity"":4,""confidence"":1}","[0,1]","../img/tt/1228tt.jpg","",""
"3206.294999923557","","","recognition","survey-text","191","23962399","0.0-6.0-3.26","26095103","co39145","norming","","","{""guess"":""vogel""}","","../img/tt/1228tt.jpg","",""
"null","../img/gs/1228gs.jpg","null","reveal","image-keyboard-response","192","23964406","0.0-6.0-4.26","26095103","co39145","norming","","","","","","",""
"null","../img/tt/1228tt.jpg","null","mooney2","image-keyboard-response","193","23966409","0.0-6.0-5.26","26095103","co39145","norming","","","","","","",""
"5958.63000000827","","","post_reveal_questions","survey-likert","194","23972370","0.0-6.0-6.26","26095103","co39145","norming","","","{""aha"":0}","[0]","../img/tt/1228tt.jpg","",""
"null","<div style=""font-size:60px;""> </div>","null","fixation","html-keyboard-response","195","23972572","0.0-6.0-0.27","26095103","co39145","norming","","","","","","",""
"null","../img/tt/1080tt.jpg","null","mooney1","image-keyboard-response","196","23975579","0.0-6.0-1.27","26095103","co39145","norming","","","","","","",""
"6794.41999993287","","","post_mooney1_questions","survey-likert","197","23982376","0.0-6.0-2.27","26095103","co39145","norming","","","{""curiosity"":6,""confidence"":0}","[0,1]","../img/tt/1080tt.jpg","",""
"996.6249999124557","","","recognition","survey-text","198","23983377","0.0-6.0-3.27","26095103","co39145","norming","","","{""guess"":""""}","","../img/tt/1080tt.jpg","",""
"null","../img/gs/1080gs.jpg","null","reveal","image-keyboard-response","199","23985381","0.0-6.0-4.27","26095103","co39145","norming","","","","","","",""
"null","../img/tt/1080tt.jpg","null","mooney2","image-keyboard-response","200","23987386","0.0-6.0-5.27","26095103","co39145","norming","","","","","","",""
"2168.6599999666214","","","post_reveal_questions","survey-likert","201","23989557","0.0-6.0-6.27","26095103","co39145","norming","","","{""aha"":1}","[0]","../img/tt/1080tt.jpg","",""
"null","<div style=""font-size:60px;""> </div>","null","fixation","html-keyboard-response","202","23989761","0.0-6.0-0.28","26095103","co39145","norming","","","","","","",""
"null","../img/tt/1070tt.jpg","null","mooney1","image-keyboard-response","203","23992765","0.0-6.0-1.28","26095103","co39145","norming","","","","","","",""
"7758.284999988973","","","post_mooney1_questions","survey-likert","204","24000526","0.0-6.0-2.28","26095103","co39145","norming","","","{""curiosity"":5,""confidence"":1}","[0,1]","../img/tt/1070tt.jpg","",""
"2529.289999976754","","","recognition","survey-text","205","24003060","0.0-6.0-3.28","26095103","co39145","norming","","","{""guess"":""broodje ""}","","../img/tt/1070tt.jpg","",""
"null","../img/gs/1070gs.jpg","null","reveal","image-keyboard-response","206","24005067","0.0-6.0-4.28","26095103","co39145","norming","","","","","","",""
"null","../img/tt/1070tt.jpg","null","mooney2","image-keyboard-response","207","24007073","0.0-6.0-5.28","26095103","co39145","norming","","","","","","",""
"3163.1000000052154","","","post_reveal_questions","survey-likert","208","24010239","0.0-6.0-6.28","26095103","co39145","norming","","","{""aha"":5}","[0]","../img/tt/1070tt.jpg","",""
"null","<div style=""font-size:60px;""> </div>","null","fixation","html-keyboard-response","209","24010442","0.0-6.0-0.29","26095103","co39145","norming","","","","","","",""
"null","../img/tt/1175tt.jpg","null","mooney1","image-keyboard-response","210","24013447","0.0-6.0-1.29","26095103","co39145","norming","","","","","","",""
"2962.635000003502","","","post_mooney1_questions","survey-likert","211","24016412","0.0-6.0-2.29","26095103","co39145","norming","","","{""curiosity"":6,""confidence"":0}","[0,1]","../img/tt/1175tt.jpg","",""
"757.054999936372","","","recognition","survey-text","212","24017173","0.0-6.0-3.29","26095103","co39145","norming","","","{""guess"":""""}","","../img/tt/1175tt.jpg","",""
"null","../img/gs/1175gs.jpg","null","reveal","image-keyboard-response","213","24019181","0.0-6.0-4.29","26095103","co39145","norming","","","","","","",""
"null","../img/tt/1175tt.jpg","null","mooney2","image-keyboard-response","214","24021182","0.0-6.0-5.29","26095103","co39145","norming","","","","","","",""
"1455.8500000275671","","","post_reveal_questions","survey-likert","215","24022640","0.0-6.0-6.29","26095103","co39145","norming","","","{""aha"":0}","[0]","../img/tt/1175tt.jpg","",""
"null","<div style=""font-size:60px;""> </div>","null","fixation","html-keyboard-response","216","24022842","0.0-6.0-0.30","26095103","co39145","norming","","","","","","",""
"null","../img/tt/549tt.jpg","null","mooney1","image-keyboard-response","217","24025849","0.0-6.0-1.30","26095103","co39145","norming","","","","","","",""
"7273.96500017494","","","post_mooney1_questions","survey-likert","218","24033126","0.0-6.0-2.30","26095103","co39145","norming","","","{""curiosity"":5,""confidence"":0}","[0,1]","../img/tt/549tt.jpg","",""
"973.7050000112504","","","recognition","survey-text","219","24034104","0.0-6.0-3.30","26095103","co39145","norming","","","{""guess"":""""}","","../img/tt/549tt.jpg","",""
"null","../img/gs/549gs.jpg","null","reveal","image-keyboard-response","220","24036111","0.0-6.0-4.30","26095103","co39145","norming","","","","","","",""
"null","../img/tt/549tt.jpg","null","mooney2","image-keyboard-response","221","24038114","0.0-6.0-5.30","26095103","co39145","norming","","","","","","",""
"4014.835000038147","","","post_reveal_questions","survey-likert","222","24042131","0.0-6.0-6.30","26095103","co39145","norming","","","{""aha"":1}","[0]","../img/tt/549tt.jpg","",""
"null","<div style=""font-size:60px;""> </div>","null","fixation","html-keyboard-response","223","24042333","0.0-6.0-0.31","26095103","co39145","norming","","","","","","",""
"null","../img/tt/189tt.jpg","null","mooney1","image-keyboard-response","224","24045340","0.0-6.0-1.31","26095103","co39145","norming","","","","","","",""
"6009.599999990314","","","post_mooney1_questions","survey-likert","225","24051352","0.0-6.0-2.31","26095103","co39145","norming","","","{""curiosity"":5,""confidence"":1}","[0,1]","../img/tt/189tt.jpg","",""
"3178.3950000535697","","","recognition","survey-text","226","24054536","0.0-6.0-3.31","26095103","co39145","norming","","","{""guess"":""vogel""}","","../img/tt/189tt.jpg","",""
"null","../img/gs/189gs.jpg","null","reveal","image-keyboard-response","227","24056541","0.0-6.0-4.31","26095103","co39145","norming","","","","","","",""
"null","../img/tt/189tt.jpg","null","mooney2","image-keyboard-response","228","24058544","0.0-6.0-5.31","26095103","co39145","norming","","","","","","",""
"6951.730000087991","","","post_reveal_questions","survey-likert","229","24065498","0.0-6.0-6.31","26095103","co39145","norming","","","{""aha"":4}","[0]","../img/tt/189tt.jpg","",""
"null","<div style=""font-size:60px;""> </div>","null","fixation","html-keyboard-response","230","24065704","0.0-6.0-0.32","26095103","co39145","norming","","","","","","",""
"null","../img/tt/1250tt.jpg","null","mooney1","image-keyboard-response","231","24068711","0.0-6.0-1.32","26095103","co39145","norming","","","","","","",""
"3592.3349999357015","","","post_mooney1_questions","survey-likert","232","24072306","0.0-6.0-2.32","26095103","co39145","norming","","","{""curiosity"":4,""confidence"":1}","[0,1]","../img/tt/1250tt.jpg","",""
"1376.1699998285621","","","recognition","survey-text","233","24073687","0.0-6.0-3.32","26095103","co39145","norming","","","{""guess"":""beer""}","","../img/tt/1250tt.jpg","",""
"null","../img/gs/1250gs.jpg","null","reveal","image-keyboard-response","234","24075689","0.0-6.0-4.32","26095103","co39145","norming","","","","","","",""
"null","../img/tt/1250tt.jpg","null","mooney2","image-keyboard-response","235","24077695","0.0-6.0-5.32","26095103","co39145","norming","","","","","","",""
"3086.1949999816716","","","post_reveal_questions","survey-likert","236","24080784","0.0-6.0-6.32","26095103","co39145","norming","","","{""aha"":5}","[0]","../img/tt/1250tt.jpg","",""
"null","<div style=""font-size:60px;""> </div>","null","fixation","html-keyboard-response","237","24080989","0.0-6.0-0.33","26095103","co39145","norming","","","","","","",""
"null","../img/tt/1276tt.jpg","null","mooney1","image-keyboard-response","238","24083995","0.0-6.0-1.33","26095103","co39145","norming","","","","","","",""
"4471.170000033453","","","post_mooney1_questions","survey-likert","239","24088469","0.0-6.0-2.33","26095103","co39145","norming","","","{""curiosity"":4,""confidence"":1}","[0,1]","../img/tt/1276tt.jpg","",""
"4197.124999947846","","","recognition","survey-text","240","24092671","0.0-6.0-3.33","26095103","co39145","norming","","","{""guess"":""pelikaan""}","","../img/tt/1276tt.jpg","",""
"null","../img/gs/1276gs.jpg","null","reveal","image-keyboard-response","241","24094677","0.0-6.0-4.33","26095103","co39145","norming","","","","","","",""
"null","../img/tt/1276tt.jpg","null","mooney2","image-keyboard-response","242","24096681","0.0-6.0-5.33","26095103","co39145","norming","","","","","","",""
"3100.139999995008","","","post_reveal_questions","survey-likert","243","24099783","0.0-6.0-6.33","26095103","co39145","norming","","","{""aha"":4}","[0]","../img/tt/1276tt.jpg","",""
"null","<div style=""font-size:60px;""> </div>","null","fixation","html-keyboard-response","244","24099986","0.0-6.0-0.34","26095103","co39145","norming","","","","","","",""
"null","../img/tt/436tt.jpg","null","mooney1","image-keyboard-response","245","24102993","0.0-6.0-1.34","26095103","co39145","norming","","","","","","",""
"4342.590000014752","","","post_mooney1_questions","survey-likert","246","24107339","0.0-6.0-2.34","26095103","co39145","norming","","","{""curiosity"":4,""confidence"":1}","[0,1]","../img/tt/436tt.jpg","",""
"2733.985000057146","","","recognition","survey-text","247","24110077","0.0-6.0-3.34","26095103","co39145","norming","","","{""guess"":""zebra""}","","../img/tt/436tt.jpg","",""
"null","../img/gs/436gs.jpg","null","reveal","image-keyboard-response","248","24112084","0.0-6.0-4.34","26095103","co39145","norming","","","","","","",""
"null","../img/tt/436tt.jpg","null","mooney2","image-keyboard-response","249","24114086","0.0-6.0-5.34","26095103","co39145","norming","","","","","","",""
"1650.7399999536574","","","post_reveal_questions","survey-likert","250","24115738","0.0-6.0-6.34","26095103","co39145","norming","","","{""aha"":1}","[0]","../img/tt/436tt.jpg","",""
"null","<div style=""font-size:60px;""> </div>","null","fixation","html-keyboard-response","251","24115945","0.0-6.0-0.35","26095103","co39145","norming","","","","","","",""
"null","../img/tt/1269tt.jpg","null","mooney1","image-keyboard-response","252","24118952","0.0-6.0-1.35","26095103","co39145","norming","","","","","","",""
"4471.224999986589","","","post_mooney1_questions","survey-likert","253","24123426","0.0-6.0-2.35","26095103","co39145","norming","","","{""curiosity"":4,""confidence"":1}","[0,1]","../img/tt/1269tt.jpg","",""
"2159.9500000011176","","","recognition","survey-text","254","24125591","0.0-6.0-3.35","26095103","co39145","norming","","","{""guess"":""hond""}","","../img/tt/1269tt.jpg","",""
"null","../img/gs/1269gs.jpg","null","reveal","image-keyboard-response","255","24127596","0.0-6.0-4.35","26095103","co39145","norming","","","","","","",""
"null","../img/tt/1269tt.jpg","null","mooney2","image-keyboard-response","256","24129598","0.0-6.0-5.35","26095103","co39145","norming","","","","","","",""
"2055.8749998454005","","","post_reveal_questions","survey-likert","257","24131655","0.0-6.0-6.35","26095103","co39145","norming","","","{""aha"":5}","[0]","../img/tt/1269tt.jpg","",""
"null","<div style=""font-size:60px;""> </div>","null","fixation","html-keyboard-response","258","24131862","0.0-6.0-0.36","26095103","co39145","norming","","","","","","",""
"null","../img/tt/1072tt.jpg","null","mooney1","image-keyboard-response","259","24134866","0.0-6.0-1.36","26095103","co39145","norming","","","","","","",""
"7993.284999858588","","","post_mooney1_questions","survey-likert","260","24142862","0.0-6.0-2.36","26095103","co39145","norming","","","{""curiosity"":4,""confidence"":1}","[0,1]","../img/tt/1072tt.jpg","",""
"3059.4700002111495","","","recognition","survey-text","261","24145926","0.0-6.0-3.36","26095103","co39145","norming","","","{""guess"":""een stal""}","","../img/tt/1072tt.jpg","",""
"null","../img/gs/1072gs.jpg","null","reveal","image-keyboard-response","262","24147929","0.0-6.0-4.36","26095103","co39145","norming","","","","","","",""
"null","../img/tt/1072tt.jpg","null","mooney2","image-keyboard-response","263","24149932","0.0-6.0-5.36","26095103","co39145","norming","","","","","","",""
"4831.389999948442","","","post_reveal_questions","survey-likert","264","24154766","0.0-6.0-6.36","26095103","co39145","norming","","","{""aha"":1}","[0]","../img/tt/1072tt.jpg","",""
"null","<div style=""font-size:60px;""> </div>","null","fixation","html-keyboard-response","265","24154972","0.0-6.0-0.37","26095103","co39145","norming","","","","","","",""
"null","../img/tt/1046tt.jpg","null","mooney1","image-keyboard-response","266","24157976","0.0-6.0-1.37","26095103","co39145","norming","","","","","","",""
"2340.7449999358505","","","post_mooney1_questions","survey-likert","267","24160320","0.0-6.0-2.37","26095103","co39145","norming","","","{""curiosity"":5,""confidence"":0}","[0,1]","../img/tt/1046tt.jpg","",""
"732.0499999914318","","","recognition","survey-text","268","24161056","0.0-6.0-3.37","26095103","co39145","norming","","","{""guess"":""""}","","../img/tt/1046tt.jpg","",""
"null","../img/gs/1046gs.jpg","null","reveal","image-keyboard-response","269","24163064","0.0-6.0-4.37","26095103","co39145","norming","","","","","","",""
"null","../img/tt/1046tt.jpg","null","mooney2","image-keyboard-response","270","24165066","0.0-6.0-5.37","26095103","co39145","norming","","","","","","",""
"5721.499999985099","","","post_reveal_questions","survey-likert","271","24170791","0.0-6.0-6.37","26095103","co39145","norming","","","{""aha"":0}","[0]","../img/tt/1046tt.jpg","",""
"null","<div style=""font-size:60px;""> </div>","null","fixation","html-keyboard-response","272","24170997","0.0-6.0-0.38","26095103","co39145","norming","","","","","","",""
"null","../img/tt/580tt.jpg","null","mooney1","image-keyboard-response","273","24174004","0.0-6.0-1.38","26095103","co39145","norming","","","","","","",""
"3059.1700000222772","","","post_mooney1_questions","survey-likert","274","24177066","0.0-6.0-2.38","26095103","co39145","norming","","","{""curiosity"":4,""confidence"":1}","[0,1]","../img/tt/580tt.jpg","",""
"1572.0649999566376","","","recognition","survey-text","275","24178642","0.0-6.0-3.38","26095103","co39145","norming","","","{""guess"":""tijger""}","","../img/tt/580tt.jpg","",""
"null","../img/gs/580gs.jpg","null","reveal","image-keyboard-response","276","24180648","0.0-6.0-4.38","26095103","co39145","norming","","","","","","",""
"null","../img/tt/580tt.jpg","null","mooney2","image-keyboard-response","277","24182652","0.0-6.0-5.38","26095103","co39145","norming","","","","","","",""
"1676.7200001049787","","","post_reveal_questions","survey-likert","278","24184331","0.0-6.0-6.38","26095103","co39145","norming","","","{""aha"":0}","[0]","../img/tt/580tt.jpg","",""
"null","<div style=""font-size:60px;""> </div>","null","fixation","html-keyboard-response","279","24184538","0.0-6.0-0.39","26095103","co39145","norming","","","","","","",""
"null","../img/tt/497tt.jpg","null","mooney1","image-keyboard-response","280","24187540","0.0-6.0-1.39","26095103","co39145","norming","","","","","","",""
"4527.409999864176","","","post_mooney1_questions","survey-likert","281","24192070","0.0-6.0-2.39","26095103","co39145","norming","","","{""curiosity"":4,""confidence"":2}","[0,1]","../img/tt/497tt.jpg","",""
"1528.9199999533594","","","recognition","survey-text","282","24193604","0.0-6.0-3.39","26095103","co39145","norming","","","{""guess"":""kaas""}","","../img/tt/497tt.jpg","",""
"null","../img/gs/497gs.jpg","null","reveal","image-keyboard-response","283","24195608","0.0-6.0-4.39","26095103","co39145","norming","","","","","","",""
"null","../img/tt/497tt.jpg","null","mooney2","image-keyboard-response","284","24197614","0.0-6.0-5.39","26095103","co39145","norming","","","","","","",""
"3106.720000039786","","","post_reveal_questions","survey-likert","285","24200723","0.0-6.0-6.39","26095103","co39145","norming","","","{""aha"":5}","[0]","../img/tt/497tt.jpg","",""
"null","<div style=""font-size:60px;""> </div>","null","fixation","html-keyboard-response","286","24200930","0.0-6.0-0.40","26095103","co39145","norming","","","","","","",""
"null","../img/tt/001tt.jpg","null","mooney1","image-keyboard-response","287","24203937","0.0-6.0-1.40","26095103","co39145","norming","","","","","","",""
"9203.670000191778","","","post_mooney1_questions","survey-likert","288","24213143","0.0-6.0-2.40","26095103","co39145","norming","","","{""curiosity"":5,""confidence"":0}","[0,1]","../img/tt/001tt.jpg","",""
"788.5849999729544","","","recognition","survey-text","289","24213937","0.0-6.0-3.40","26095103","co39145","norming","","","{""guess"":""""}","","../img/tt/001tt.jpg","",""
"null","../img/gs/001gs.jpg","null","reveal","image-keyboard-response","290","24215944","0.0-6.0-4.40","26095103","co39145","norming","","","","","","",""
"null","../img/tt/001tt.jpg","null","mooney2","image-keyboard-response","291","24217949","0.0-6.0-5.40","26095103","co39145","norming","","","","","","",""
"4613.22999978438","","","post_reveal_questions","survey-likert","292","24222564","0.0-6.0-6.40","26095103","co39145","norming","","","{""aha"":6}","[0]","../img/tt/001tt.jpg","",""
"null","<div style=""font-size:60px;""> </div>","null","fixation","html-keyboard-response","293","24222769","0.0-6.0-0.41","26095103","co39145","norming","","","","","","",""
"null","../img/tt/1043tt.jpg","null","mooney1","image-keyboard-response","294","24225775","0.0-6.0-1.41","26095103","co39145","norming","","","","","","",""
"3763.285000110045","","","post_mooney1_questions","survey-likert","295","24229541","0.0-6.0-2.41","26095103","co39145","norming","","","{""curiosity"":5,""confidence"":0}","[0,1]","../img/tt/1043tt.jpg","",""
"796.6249999590218","","","recognition","survey-text","296","24230342","0.0-6.0-3.41","26095103","co39145","norming","","","{""guess"":""""}","","../img/tt/1043tt.jpg","",""
"null","../img/gs/1043gs.jpg","null","reveal","image-keyboard-response","297","24232349","0.0-6.0-4.41","26095103","co39145","norming","","","","","","",""
"null","../img/tt/1043tt.jpg","null","mooney2","image-keyboard-response","298","24234356","0.0-6.0-5.41","26095103","co39145","norming","","","","","","",""
"2784.7549999132752","","","post_reveal_questions","survey-likert","299","24237143","0.0-6.0-6.41","26095103","co39145","norming","","","{""aha"":2}","[0]","../img/tt/1043tt.jpg","",""
"null","<div style=""font-size:60px;""> </div>","null","fixation","html-keyboard-response","300","24237350","0.0-6.0-0.42","26095103","co39145","norming","","","","","","",""
"null","../img/tt/1226tt.jpg","null","mooney1","image-keyboard-response","301","24240357","0.0-6.0-1.42","26095103","co39145","norming","","","","","","",""
"5806.7650001030415","","","post_mooney1_questions","survey-likert","302","24246166","0.0-6.0-2.42","26095103","co39145","norming","","","{""curiosity"":4,""confidence"":2}","[0,1]","../img/tt/1226tt.jpg","",""
"2654.219999909401","","","recognition","survey-text","303","24248825","0.0-6.0-3.42","26095103","co39145","norming","","","{""guess"":""zwaan""}","","../img/tt/1226tt.jpg","",""
"null","../img/gs/1226gs.jpg","null","reveal","image-keyboard-response","304","24250829","0.0-6.0-4.42","26095103","co39145","norming","","","","","","",""
"null","../img/tt/1226tt.jpg","null","mooney2","image-keyboard-response","305","24252835","0.0-6.0-5.42","26095103","co39145","norming","","","","","","",""
"2094.994999933988","","","post_reveal_questions","survey-likert","306","24254933","0.0-6.0-6.42","26095103","co39145","norming","","","{""aha"":5}","[0]","../img/tt/1226tt.jpg","",""
"null","<div style=""font-size:60px;""> </div>","null","fixation","html-keyboard-response","307","24255140","0.0-6.0-0.43","26095103","co39145","norming","","","","","","",""
"null","../img/tt/1069tt.jpg","null","mooney1","image-keyboard-response","308","24258146","0.0-6.0-1.43","26095103","co39145","norming","","","","","","",""
"4064.0700000803918","","","post_mooney1_questions","survey-likert","309","24262213","0.0-6.0-2.43","26095103","co39145","norming","","","{""curiosity"":4,""confidence"":1}","[0,1]","../img/tt/1069tt.jpg","",""
"4643.295000074431","","","recognition","survey-text","310","24266861","0.0-6.0-3.43","26095103","co39145","norming","","","{""guess"":""geit""}","","../img/tt/1069tt.jpg","",""
"null","../img/gs/1069gs.jpg","null","reveal","image-keyboard-response","311","24268867","0.0-6.0-4.43","26095103","co39145","norming","","","","","","",""
"null","../img/tt/1069tt.jpg","null","mooney2","image-keyboard-response","312","24270871","0.0-6.0-5.43","26095103","co39145","norming","","","","","","",""
"4057.384999934584","","","post_reveal_questions","survey-likert","313","24274930","0.0-6.0-6.43","26095103","co39145","norming","","","{""aha"":5}","[0]","../img/tt/1069tt.jpg","",""
"null","<div style=""font-size:60px;""> </div>","null","fixation","html-keyboard-response","314","24275132","0.0-6.0-0.44","26095103","co39145","norming","","","","","","",""
"null","../img/tt/598tt.jpg","null","mooney1","image-keyboard-response","315","24278139","0.0-6.0-1.44","26095103","co39145","norming","","","","","","",""
"3523.259999928996","","","post_mooney1_questions","survey-likert","316","24281665","0.0-6.0-2.44","26095103","co39145","norming","","","{""curiosity"":5,""confidence"":0}","[0,1]","../img/tt/598tt.jpg","",""
"684.6449999138713","","","recognition","survey-text","317","24282354","0.0-6.0-3.44","26095103","co39145","norming","","","{""guess"":""""}","","../img/tt/598tt.jpg","",""
"null","../img/gs/598gs.jpg","null","reveal","image-keyboard-response","318","24284358","0.0-6.0-4.44","26095103","co39145","norming","","","","","","",""
"null","../img/tt/598tt.jpg","null","mooney2","image-keyboard-response","319","24286365","0.0-6.0-5.44","26095103","co39145","norming","","","","","","",""
"3144.2500001285225","","","post_reveal_questions","survey-likert","320","24289511","0.0-6.0-6.44","26095103","co39145","norming","","","{""aha"":4}","[0]","../img/tt/598tt.jpg","",""
"null","<div style=""font-size:60px;""> </div>","null","fixation","html-keyboard-response","321","24289717","0.0-6.0-0.45","26095103","co39145","norming","","","","","","",""
"null","../img/tt/1159tt.jpg","null","mooney1","image-keyboard-response","322","24292720","0.0-6.0-1.45","26095103","co39145","norming","","","","","","",""
"4059.3799999915063","","","post_mooney1_questions","survey-likert","323","24296782","0.0-6.0-2.45","26095103","co39145","norming","","","{""curiosity"":4,""confidence"":1}","[0,1]","../img/tt/1159tt.jpg","",""
"2890.529999975115","","","recognition","survey-text","324","24299677","0.0-6.0-3.45","26095103","co39145","norming","","","{""guess"":""autoweg""}","","../img/tt/1159tt.jpg","",""
"null","../img/gs/1159gs.jpg","null","reveal","image-keyboard-response","325","24301683","0.0-6.0-4.45","26095103","co39145","norming","","","","","","",""
"null","../img/tt/1159tt.jpg","null","mooney2","image-keyboard-response","326","24303689","0.0-6.0-5.45","26095103","co39145","norming","","","","","","",""
"5761.244999943301","","","post_reveal_questions","survey-likert","327","24309453","0.0-6.0-6.45","26095103","co39145","norming","","","{""aha"":3}","[0]","../img/tt/1159tt.jpg","",""
"null","<div style=""font-size:60px;""> </div>","null","fixation","html-keyboard-response","328","24309659","0.0-6.0-0.46","26095103","co39145","norming","","","","","","",""
"null","../img/tt/1236tt.jpg","null","mooney1","image-keyboard-response","329","24312664","0.0-6.0-1.46","26095103","co39145","norming","","","","","","",""
"4199.555000057444","","","post_mooney1_questions","survey-likert","330","24316867","0.0-6.0-2.46","26095103","co39145","norming","","","{""curiosity"":5,""confidence"":0}","[0,1]","../img/tt/1236tt.jpg","",""
"724.7050001751631","","","recognition","survey-text","331","24317596","0.0-6.0-3.46","26095103","co39145","norming","","","{""guess"":""""}","","../img/tt/1236tt.jpg","",""
"null","../img/gs/1236gs.jpg","null","reveal","image-keyboard-response","332","24319603","0.0-6.0-4.46","26095103","co39145","norming","","","","","","",""
"null","../img/tt/1236tt.jpg","null","mooney2","image-keyboard-response","333","24321605","0.0-6.0-5.46","26095103","co39145","norming","","","","","","",""
"2214.020000072196","","","post_reveal_questions","survey-likert","334","24323821","0.0-6.0-6.46","26095103","co39145","norming","","","{""aha"":2}","[0]","../img/tt/1236tt.jpg","",""
"null","<div style=""font-size:60px;""> </div>","null","fixation","html-keyboard-response","335","24324028","0.0-6.0-0.47","26095103","co39145","norming","","","","","","",""
"null","../img/tt/082tt.jpg","null","mooney1","image-keyboard-response","336","24327033","0.0-6.0-1.47","26095103","co39145","norming","","","","","","",""
"5379.479999886826","","","post_mooney1_questions","survey-likert","337","24332415","0.0-6.0-2.47","26095103","co39145","norming","","","{""curiosity"":5,""confidence"":1}","[0,1]","../img/tt/082tt.jpg","",""
"1243.239999981597","","","recognition","survey-text","338","24333663","0.0-6.0-3.47","26095103","co39145","norming","","","{""guess"":""rat""}","","../img/tt/082tt.jpg","",""
"null","../img/gs/082gs.jpg","null","reveal","image-keyboard-response","339","24335667","0.0-6.0-4.47","26095103","co39145","norming","","","","","","",""
"null","../img/tt/082tt.jpg","null","mooney2","image-keyboard-response","340","24337673","0.0-6.0-5.47","26095103","co39145","norming","","","","","","",""
"3933.0800001043826","","","post_reveal_questions","survey-likert","341","24341609","0.0-6.0-6.47","26095103","co39145","norming","","","{""aha"":2}","[0]","../img/tt/082tt.jpg","",""
"null","<div style=""font-size:60px;""> </div>","null","fixation","html-keyboard-response","342","24341813","0.0-6.0-0.48","26095103","co39145","norming","","","","","","",""
"null","../img/tt/406tt.jpg","null","mooney1","image-keyboard-response","343","24344818","0.0-6.0-1.48","26095103","co39145","norming","","","","","","",""
"4631.249999860302","","","post_mooney1_questions","survey-likert","344","24349452","0.0-6.0-2.48","26095103","co39145","norming","","","{""curiosity"":4,""confidence"":2}","[0,1]","../img/tt/406tt.jpg","",""
"2776.3199999462813","","","recognition","survey-text","345","24352233","0.0-6.0-3.48","26095103","co39145","norming","","","{""guess"":""vleermuis""}","","../img/tt/406tt.jpg","",""
"null","../img/gs/406gs.jpg","null","reveal","image-keyboard-response","346","24354237","0.0-6.0-4.48","26095103","co39145","norming","","","","","","",""
"null","../img/tt/406tt.jpg","null","mooney2","image-keyboard-response","347","24356244","0.0-6.0-5.48","26095103","co39145","norming","","","","","","",""
"3168.454999802634","","","post_reveal_questions","survey-likert","348","24359414","0.0-6.0-6.48","26095103","co39145","norming","","","{""aha"":5}","[0]","../img/tt/406tt.jpg","",""
"null","<div style=""font-size:60px;""> </div>","null","fixation","html-keyboard-response","349","24359621","0.0-6.0-0.49","26095103","co39145","norming","","","","","","",""
"null","../img/tt/318tt.jpg","null","mooney1","image-keyboard-response","350","24362628","0.0-6.0-1.49","26095103","co39145","norming","","","","","","",""
"4355.294999899343","","","post_mooney1_questions","survey-likert","351","24366986","0.0-6.0-2.49","26095103","co39145","norming","","","{""curiosity"":6,""confidence"":0}","[0,1]","../img/tt/318tt.jpg","",""
"756.4799999818206","","","recognition","survey-text","352","24367747","0.0-6.0-3.49","26095103","co39145","norming","","","{""guess"":""""}","","../img/tt/318tt.jpg","",""
"null","../img/gs/318gs.jpg","null","reveal","image-keyboard-response","353","24369754","0.0-6.0-4.49","26095103","co39145","norming","","","","","","",""
"null","../img/tt/318tt.jpg","null","mooney2","image-keyboard-response","354","24371760","0.0-6.0-5.49","26095103","co39145","norming","","","","","","",""
"3463.9149999711663","","","post_reveal_questions","survey-likert","355","24375226","0.0-6.0-6.49","26095103","co39145","norming","","","{""aha"":4}","[0]","../img/tt/318tt.jpg","",""
"null","<div style=""font-size:60px;""> </div>","null","fixation","html-keyboard-response","356","24375429","0.0-6.0-0.50","26095103","co39145","norming","","","","","","",""
"null","../img/tt/094tt.jpg","null","mooney1","image-keyboard-response","357","24378432","0.0-6.0-1.50","26095103","co39145","norming","","","","","","",""
"3997.9099999181926","","","post_mooney1_questions","survey-likert","358","24382434","0.0-6.0-2.50","26095103","co39145","norming","","","{""curiosity"":5,""confidence"":2}","[0,1]","../img/tt/094tt.jpg","",""
"1661.450000014156","","","recognition","survey-text","359","24384100","0.0-6.0-3.50","26095103","co39145","norming","","","{""guess"":""koe""}","","../img/tt/094tt.jpg","",""
"null","../img/gs/094gs.jpg","null","reveal","image-keyboard-response","360","24386104","0.0-6.0-4.50","26095103","co39145","norming","","","","","","",""
"null","../img/tt/094tt.jpg","null","mooney2","image-keyboard-response","361","24388111","0.0-6.0-5.50","26095103","co39145","norming","","","","","","",""
"2385.3149998467416","","","post_reveal_questions","survey-likert","362","24390498","0.0-6.0-6.50","26095103","co39145","norming","","","{""aha"":2}","[0]","../img/tt/094tt.jpg","",""
"null","<div style=""font-size:60px;""> </div>","null","fixation","html-keyboard-response","363","24390704","0.0-6.0-0.51","26095103","co39145","norming","","","","","","",""
"null","../img/tt/1086tt.jpg","null","mooney1","image-keyboard-response","364","24393711","0.0-6.0-1.51","26095103","co39145","norming","","","","","","",""
"6019.079999998212","","","post_mooney1_questions","survey-likert","365","24399733","0.0-6.0-2.51","26095103","co39145","norming","","","{""curiosity"":4,""confidence"":0}","[0,1]","../img/tt/1086tt.jpg","",""
"1075.6299998611212","","","recognition","survey-text","366","24400814","0.0-6.0-3.51","26095103","co39145","norming","","","{""guess"":""""}","","../img/tt/1086tt.jpg","",""
"null","../img/gs/1086gs.jpg","null","reveal","image-keyboard-response","367","24402821","0.0-6.0-4.51","26095103","co39145","norming","","","","","","",""
"null","../img/tt/1086tt.jpg","null","mooney2","image-keyboard-response","368","24404825","0.0-6.0-5.51","26095103","co39145","norming","","","","","","",""
"6171.319999964908","","","post_reveal_questions","survey-likert","369","24410999","0.0-6.0-6.51","26095103","co39145","norming","","","{""aha"":4}","[0]","../img/tt/1086tt.jpg","",""
"null","<div style=""font-size:60px;""> </div>","null","fixation","html-keyboard-response","370","24411206","0.0-6.0-0.52","26095103","co39145","norming","","","","","","",""
"null","../img/tt/096tt.jpg","null","mooney1","image-keyboard-response","371","24414211","0.0-6.0-1.52","26095103","co39145","norming","","","","","","",""
"9075.199999846518","","","post_mooney1_questions","survey-likert","372","24423288","0.0-6.0-2.52","26095103","co39145","norming","","","{""curiosity"":4,""confidence"":2}","[0,1]","../img/tt/096tt.jpg","",""
"2609.3399999663234","","","recognition","survey-text","373","24425902","0.0-6.0-3.52","26095103","co39145","norming","","","{""guess"":""piano""}","","../img/tt/096tt.jpg","",""
"null","../img/gs/096gs.jpg","null","reveal","image-keyboard-response","374","24427909","0.0-6.0-4.52","26095103","co39145","norming","","","","","","",""
"null","../img/tt/096tt.jpg","null","mooney2","image-keyboard-response","375","24429913","0.0-6.0-5.52","26095103","co39145","norming","","","","","","",""
"1565.7150000333786","","","post_reveal_questions","survey-likert","376","24431481","0.0-6.0-6.52","26095103","co39145","norming","","","{""aha"":4}","[0]","../img/tt/096tt.jpg","",""
"null","<div style=""font-size:60px;""> </div>","null","fixation","html-keyboard-response","377","24431688","0.0-6.0-0.53","26095103","co39145","norming","","","","","","",""
"null","../img/tt/416tt.jpg","null","mooney1","image-keyboard-response","378","24434693","0.0-6.0-1.53","26095103","co39145","norming","","","","","","",""
"4793.239999795333","","","post_mooney1_questions","survey-likert","379","24439489","0.0-6.0-2.53","26095103","co39145","norming","","","{""curiosity"":4,""confidence"":2}","[0,1]","../img/tt/416tt.jpg","",""
"1515.6399998813868","","","recognition","survey-text","380","24441009","0.0-6.0-3.53","26095103","co39145","norming","","","{""guess"":""koe""}","","../img/tt/416tt.jpg","",""
"null","../img/gs/416gs.jpg","null","reveal","image-keyboard-response","381","24443012","0.0-6.0-4.53","26095103","co39145","norming","","","","","","",""
"null","../img/tt/416tt.jpg","null","mooney2","image-keyboard-response","382","24445014","0.0-6.0-5.53","26095103","co39145","norming","","","","","","",""
"2723.394999979064","","","post_reveal_questions","survey-likert","383","24447741","0.0-6.0-6.53","26095103","co39145","norming","","","{""aha"":5}","[0]","../img/tt/416tt.jpg","",""
"null","<div style=""font-size:60px;""> </div>","null","fixation","html-keyboard-response","384","24447944","0.0-6.0-0.54","26095103","co39145","norming","","","","","","",""
"null","../img/tt/1048tt.jpg","null","mooney1","image-keyboard-response","385","24450946","0.0-6.0-1.54","26095103","co39145","norming","","","","","","",""
"4263.399999821559","","","post_mooney1_questions","survey-likert","386","24455212","0.0-6.0-2.54","26095103","co39145","norming","","","{""curiosity"":6,""confidence"":0}","[0,1]","../img/tt/1048tt.jpg","",""
"917.6149999257177","","","recognition","survey-text","387","24456134","0.0-6.0-3.54","26095103","co39145","norming","","","{""guess"":""""}","","../img/tt/1048tt.jpg","",""
"null","../img/gs/1048gs.jpg","null","reveal","image-keyboard-response","388","24458138","0.0-6.0-4.54","26095103","co39145","norming","","","","","","",""
"null","../img/tt/1048tt.jpg","null","mooney2","image-keyboard-response","389","24460142","0.0-6.0-5.54","26095103","co39145","norming","","","","","","",""
"6223.939999938011","","","post_reveal_questions","survey-likert","390","24466369","0.0-6.0-6.54","26095103","co39145","norming","","","{""aha"":2}","[0]","../img/tt/1048tt.jpg","",""
"null","<div style=""font-size:60px;""> </div>","null","fixation","html-keyboard-response","391","24466574","0.0-6.0-0.55","26095103","co39145","norming","","","","","","",""
"null","../img/tt/123tt.jpg","null","mooney1","image-keyboard-response","392","24469577","0.0-6.0-1.55","26095103","co39145","norming","","","","","","",""
"3610.4000001214445","","","post_mooney1_questions","survey-likert","393","24473190","0.0-6.0-2.55","26095103","co39145","norming","","","{""curiosity"":4,""confidence"":1}","[0,1]","../img/tt/123tt.jpg","",""
"2357.689999975264","","","recognition","survey-text","394","24475553","0.0-6.0-3.55","26095103","co39145","norming","","","{""guess"":""koffer""}","","../img/tt/123tt.jpg","",""
"null","../img/gs/123gs.jpg","null","reveal","image-keyboard-response","395","24477558","0.0-6.0-4.55","26095103","co39145","norming","","","","","","",""
"null","../img/tt/123tt.jpg","null","mooney2","image-keyboard-response","396","24479564","0.0-6.0-5.55","26095103","co39145","norming","","","","","","",""
"4256.460000062361","","","post_reveal_questions","survey-likert","397","24483823","0.0-6.0-6.55","26095103","co39145","norming","","","{""aha"":6}","[0]","../img/tt/123tt.jpg","",""
"null","<div style=""font-size:60px;""> </div>","null","fixation","html-keyboard-response","398","24484030","0.0-6.0-0.56","26095103","co39145","norming","","","","","","",""
"null","../img/tt/1097tt.jpg","null","mooney1","image-keyboard-response","399","24487033","0.0-6.0-1.56","26095103","co39145","norming","","","","","","",""
"13087.240000022575","","","post_mooney1_questions","survey-likert","400","24500124","0.0-6.0-2.56","26095103","co39145","norming","","","{""curiosity"":5,""confidence"":2}","[0,1]","../img/tt/1097tt.jpg","",""
"5618.864999851212","","","recognition","survey-text","401","24505747","0.0-6.0-3.56","26095103","co39145","norming","","","{""guess"":""fotograaf""}","","../img/tt/1097tt.jpg","",""
"null","../img/gs/1097gs.jpg","null","reveal","image-keyboard-response","402","24507750","0.0-6.0-4.56","26095103","co39145","norming","","","","","","",""
"null","../img/tt/1097tt.jpg","null","mooney2","image-keyboard-response","403","24509755","0.0-6.0-5.56","26095103","co39145","norming","","","","","","",""
"2498.9500001538545","","","post_reveal_questions","survey-likert","404","24512257","0.0-6.0-6.56","26095103","co39145","norming","","","{""aha"":6}","[0]","../img/tt/1097tt.jpg","",""
"null","<div style=""font-size:60px;""> </div>","null","fixation","html-keyboard-response","405","24512464","0.0-6.0-0.57","26095103","co39145","norming","","","","","","",""
"null","../img/tt/1096tt.jpg","null","mooney1","image-keyboard-response","406","24515471","0.0-6.0-1.57","26095103","co39145","norming","","","","","","",""
"3697.1700000576675","","","post_mooney1_questions","survey-likert","407","24519171","0.0-6.0-2.57","26095103","co39145","norming","","","{""curiosity"":3,""confidence"":1}","[0,1]","../img/tt/1096tt.jpg","",""
"3160.9500001650304","","","recognition","survey-text","408","24522337","0.0-6.0-3.57","26095103","co39145","norming","","","{""guess"":""danser""}","","../img/tt/1096tt.jpg","",""
"null","../img/gs/1096gs.jpg","null","reveal","image-keyboard-response","409","24524340","0.0-6.0-4.57","26095103","co39145","norming","","","","","","",""
"null","../img/tt/1096tt.jpg","null","mooney2","image-keyboard-response","410","24526342","0.0-6.0-5.57","26095103","co39145","norming","","","","","","",""
"2301.6800000332296","","","post_reveal_questions","survey-likert","411","24528646","0.0-6.0-6.57","26095103","co39145","norming","","","{""aha"":1}","[0]","../img/tt/1096tt.jpg","",""
"null","<div style=""font-size:60px;""> </div>","null","fixation","html-keyboard-response","412","24528850","0.0-6.0-0.58","26095103","co39145","norming","","","","","","",""
"null","../img/tt/1143tt.jpg","null","mooney1","image-keyboard-response","413","24531857","0.0-6.0-1.58","26095103","co39145","norming","","","","","","",""
"3825.7050001993775","","","post_mooney1_questions","survey-likert","414","24535685","0.0-6.0-2.58","26095103","co39145","norming","","","{""curiosity"":5,""confidence"":0}","[0,1]","../img/tt/1143tt.jpg","",""
"772.6499999407679","","","recognition","survey-text","415","24536462","0.0-6.0-3.58","26095103","co39145","norming","","","{""guess"":""""}","","../img/tt/1143tt.jpg","",""
"null","../img/gs/1143gs.jpg","null","reveal","image-keyboard-response","416","24538469","0.0-6.0-4.58","26095103","co39145","norming","","","","","","",""
"null","../img/tt/1143tt.jpg","null","mooney2","image-keyboard-response","417","24540471","0.0-6.0-5.58","26095103","co39145","norming","","","","","","",""
"2052.5449998676777","","","post_reveal_questions","survey-likert","418","24542526","0.0-6.0-6.58","26095103","co39145","norming","","","{""aha"":5}","[0]","../img/tt/1143tt.jpg","",""
"null","<div style=""font-size:60px;""> </div>","null","fixation","html-keyboard-response","419","24542732","0.0-6.0-0.59","26095103","co39145","norming","","","","","","",""
"null","../img/tt/135tt.jpg","null","mooney1","image-keyboard-response","420","24545734","0.0-6.0-1.59","26095103","co39145","norming","","","","","","",""
"4336.885000113398","","","post_mooney1_questions","survey-likert","421","24550074","0.0-6.0-2.59","26095103","co39145","norming","","","{""curiosity"":4,""confidence"":3}","[0,1]","../img/tt/135tt.jpg","",""
"3358.870000112802","","","recognition","survey-text","422","24553438","0.0-6.0-3.59","26095103","co39145","norming","","","{""guess"":""toilet""}","","../img/tt/135tt.jpg","",""
"null","../img/gs/135gs.jpg","null","reveal","image-keyboard-response","423","24555440","0.0-6.0-4.59","26095103","co39145","norming","","","","","","",""
"null","../img/tt/135tt.jpg","null","mooney2","image-keyboard-response","424","24557447","0.0-6.0-5.59","26095103","co39145","norming","","","","","","",""
"2914.90999981761","","","post_reveal_questions","survey-likert","425","24560366","0.0-6.0-6.59","26095103","co39145","norming","","","{""aha"":4}","[0]","../img/tt/135tt.jpg","",""
"null","<div style=""font-size:60px;""> </div>","null","fixation","html-keyboard-response","426","24560570","0.0-6.0-0.60","26095103","co39145","norming","","","","","","",""
"null","../img/tt/1255tt.jpg","null","mooney1","image-keyboard-response","427","24563576","0.0-6.0-1.60","26095103","co39145","norming","","","","","","",""
"5114.60500000976","","","post_mooney1_questions","survey-likert","428","24568693","0.0-6.0-2.60","26095103","co39145","norming","","","{""curiosity"":5,""confidence"":0}","[0,1]","../img/tt/1255tt.jpg","",""
"731.9650000426918","","","recognition","survey-text","429","24569430","0.0-6.0-3.60","26095103","co39145","norming","","","{""guess"":""""}","","../img/tt/1255tt.jpg","",""
"null","../img/gs/1255gs.jpg","null","reveal","image-keyboard-response","430","24571436","0.0-6.0-4.60","26095103","co39145","norming","","","","","","",""
"null","../img/tt/1255tt.jpg","null","mooney2","image-keyboard-response","431","24573442","0.0-6.0-5.60","26095103","co39145","norming","","","","","","",""
"3495.6450001336634","","","post_reveal_questions","survey-likert","432","24576940","0.0-6.0-6.60","26095103","co39145","norming","","","{""aha"":4}","[0]","../img/tt/1255tt.jpg","",""
"null","<div style=""font-size:60px;""> </div>","null","fixation","html-keyboard-response","433","24577147","0.0-6.0-0.61","26095103","co39145","norming","","","","","","",""
"null","../img/tt/1224tt.jpg","null","mooney1","image-keyboard-response","434","24580151","0.0-6.0-1.61","26095103","co39145","norming","","","","","","",""
"4849.3650001473725","","","post_mooney1_questions","survey-likert","435","24585003","0.0-6.0-2.61","26095103","co39145","norming","","","{""curiosity"":5,""confidence"":0}","[0,1]","../img/tt/1224tt.jpg","",""
"635.7899999711663","","","recognition","survey-text","436","24585644","0.0-6.0-3.61","26095103","co39145","norming","","","{""guess"":""""}","","../img/tt/1224tt.jpg","",""
"null","../img/gs/1224gs.jpg","null","reveal","image-keyboard-response","437","24587651","0.0-6.0-4.61","26095103","co39145","norming","","","","","","",""
"null","../img/tt/1224tt.jpg","null","mooney2","image-keyboard-response","438","24589652","0.0-6.0-5.61","26095103","co39145","norming","","","","","","",""
"3051.949999993667","","","post_reveal_questions","survey-likert","439","24592706","0.0-6.0-6.61","26095103","co39145","norming","","","{""aha"":6}","[0]","../img/tt/1224tt.jpg","",""
"null","<div style=""font-size:60px;""> </div>","null","fixation","html-keyboard-response","440","24592913","0.0-6.0-0.62","26095103","co39145","norming","","","","","","",""
"null","../img/tt/1101tt.jpg","null","mooney1","image-keyboard-response","441","24595920","0.0-6.0-1.62","26095103","co39145","norming","","","","","","",""
"5681.014999980107","","","post_mooney1_questions","survey-likert","442","24601604","0.0-6.0-2.62","26095103","co39145","norming","","","{""curiosity"":4,""confidence"":1}","[0,1]","../img/tt/1101tt.jpg","",""
"3211.265000049025","","","recognition","survey-text","443","24604820","0.0-6.0-3.62","26095103","co39145","norming","","","{""guess"":""rijdende man ""}","","../img/tt/1101tt.jpg","",""
"null","../img/gs/1101gs.jpg","null","reveal","image-keyboard-response","444","24606827","0.0-6.0-4.62","26095103","co39145","norming","","","","","","",""
"null","../img/tt/1101tt.jpg","null","mooney2","image-keyboard-response","445","24608833","0.0-6.0-5.62","26095103","co39145","norming","","","","","","",""
"3920.3850000631064","","","post_reveal_questions","survey-likert","446","24612756","0.0-6.0-6.62","26095103","co39145","norming","","","{""aha"":6}","[0]","../img/tt/1101tt.jpg","",""
"null","<div style=""font-size:60px;""> </div>","null","fixation","html-keyboard-response","447","24612962","0.0-6.0-0.63","26095103","co39145","norming","","","","","","",""
"null","../img/tt/1217tt.jpg","null","mooney1","image-keyboard-response","448","24615967","0.0-6.0-1.63","26095103","co39145","norming","","","","","","",""
"9270.319999894127","","","post_mooney1_questions","survey-likert","449","24625240","0.0-6.0-2.63","26095103","co39145","norming","","","{""curiosity"":5,""confidence"":2}","[0,1]","../img/tt/1217tt.jpg","",""
"23720.600000116974","","","recognition","survey-text","450","24648966","0.0-6.0-3.63","26095103","co39145","norming","","","{""guess"":""american football speler ""}","","../img/tt/1217tt.jpg","",""
"null","../img/gs/1217gs.jpg","null","reveal","image-keyboard-response","451","24650972","0.0-6.0-4.63","26095103","co39145","norming","","","","","","",""
"null","../img/tt/1217tt.jpg","null","mooney2","image-keyboard-response","452","24652974","0.0-6.0-5.63","26095103","co39145","norming","","","","","","",""
"2346.6050000861287","","","post_reveal_questions","survey-likert","453","24655323","0.0-6.0-6.63","26095103","co39145","norming","","","{""aha"":3}","[0]","../img/tt/1217tt.jpg","",""
"null","<div style=""font-size:60px;""> </div>","null","fixation","html-keyboard-response","454","24655527","0.0-6.0-0.64","26095103","co39145","norming","","","","","","",""
"null","../img/tt/1181tt.jpg","null","mooney1","image-keyboard-response","455","24658534","0.0-6.0-1.64","26095103","co39145","norming","","","","","","",""
"2625.770000042394","","","post_mooney1_questions","survey-likert","456","24661162","0.0-6.0-2.64","26095103","co39145","norming","","","{""curiosity"":5,""confidence"":0}","[0,1]","../img/tt/1181tt.jpg","",""
"692.6150000654161","","","recognition","survey-text","457","24661860","0.0-6.0-3.64","26095103","co39145","norming","","","{""guess"":""""}","","../img/tt/1181tt.jpg","",""
"null","../img/gs/1181gs.jpg","null","reveal","image-keyboard-response","458","24663865","0.0-6.0-4.64","26095103","co39145","norming","","","","","","",""
"null","../img/tt/1181tt.jpg","null","mooney2","image-keyboard-response","459","24665868","0.0-6.0-5.64","26095103","co39145","norming","","","","","","",""
"2590.1249998714775","","","post_reveal_questions","survey-likert","460","24668461","0.0-6.0-6.64","26095103","co39145","norming","","","{""aha"":6}","[0]","../img/tt/1181tt.jpg","",""
"null","<div style=""font-size:60px;""> </div>","null","fixation","html-keyboard-response","461","24668667","0.0-6.0-0.65","26095103","co39145","norming","","","","","","",""
"null","../img/tt/194tt.jpg","null","mooney1","image-keyboard-response","462","24671670","0.0-6.0-1.65","26095103","co39145","norming","","","","","","",""
"11408.299999777228","","","post_mooney1_questions","survey-likert","463","24683081","0.0-6.0-2.65","26095103","co39145","norming","","","{""curiosity"":5,""confidence"":3}","[0,1]","../img/tt/194tt.jpg","",""
"5712.3100000899285","","","recognition","survey-text","464","24688799","0.0-6.0-3.65","26095103","co39145","norming","","","{""guess"":""harp spelende vrouw ""}","","../img/tt/194tt.jpg","",""
"null","../img/gs/194gs.jpg","null","reveal","image-keyboard-response","465","24690801","0.0-6.0-4.65","26095103","co39145","norming","","","","","","",""
"null","../img/tt/194tt.jpg","null","mooney2","image-keyboard-response","466","24692803","0.0-6.0-5.65","26095103","co39145","norming","","","","","","",""
"1427.4899999145418","","","post_reveal_questions","survey-likert","467","24694233","0.0-6.0-6.65","26095103","co39145","norming","","","{""aha"":3}","[0]","../img/tt/194tt.jpg","",""
"null","<div style=""font-size:60px;""> </div>","null","fixation","html-keyboard-response","468","24694440","0.0-6.0-0.66","26095103","co39145","norming","","","","","","",""
"null","../img/tt/477tt.jpg","null","mooney1","image-keyboard-response","469","24697442","0.0-6.0-1.66","26095103","co39145","norming","","","","","","",""
"3761.420000111684","","","post_mooney1_questions","survey-likert","470","24701206","0.0-6.0-2.66","26095103","co39145","norming","","","{""curiosity"":5,""confidence"":2}","[0,1]","../img/tt/477tt.jpg","",""
"1305.5049998220056","","","recognition","survey-text","471","24702516","0.0-6.0-3.66","26095103","co39145","norming","","","{""guess"":""kat ""}","","../img/tt/477tt.jpg","",""
"null","../img/gs/477gs.jpg","null","reveal","image-keyboard-response","472","24704523","0.0-6.0-4.66","26095103","co39145","norming","","","","","","",""
"null","../img/tt/477tt.jpg","null","mooney2","image-keyboard-response","473","24706525","0.0-6.0-5.66","26095103","co39145","norming","","","","","","",""
"1288.1650000344962","","","post_reveal_questions","survey-likert","474","24707815","0.0-6.0-6.66","26095103","co39145","norming","","","{""aha"":1}","[0]","../img/tt/477tt.jpg","",""
"null","<div style=""font-size:60px;""> </div>","null","fixation","html-keyboard-response","475","24708019","0.0-6.0-0.67","26095103","co39145","norming","","","","","","",""
"null","../img/tt/307tt.jpg","null","mooney1","image-keyboard-response","476","24711025","0.0-6.0-1.67","26095103","co39145","norming","","","","","","",""
"4650.875000050291","","","post_mooney1_questions","survey-likert","477","24715679","0.0-6.0-2.67","26095103","co39145","norming","","","{""curiosity"":5,""confidence"":0}","[0,1]","../img/tt/307tt.jpg","",""
"740.2149999979883","","","recognition","survey-text","478","24716424","0.0-6.0-3.67","26095103","co39145","norming","","","{""guess"":""""}","","../img/tt/307tt.jpg","",""
"null","../img/gs/307gs.jpg","null","reveal","image-keyboard-response","479","24718431","0.0-6.0-4.67","26095103","co39145","norming","","","","","","",""
"null","../img/tt/307tt.jpg","null","mooney2","image-keyboard-response","480","24720436","0.0-6.0-5.67","26095103","co39145","norming","","","","","","",""
"3276.0649998672307","","","post_reveal_questions","survey-likert","481","24723714","0.0-6.0-6.67","26095103","co39145","norming","","","{""aha"":1}","[0]","../img/tt/307tt.jpg","",""
"null","<div style=""font-size:60px;""> </div>","null","fixation","html-keyboard-response","482","24723923","0.0-6.0-0.68","26095103","co39145","norming","","","","","","",""
"null","../img/tt/1063tt.jpg","null","mooney1","image-keyboard-response","483","24726926","0.0-6.0-1.68","26095103","co39145","norming","","","","","","",""
"3612.7100000157952","","","post_mooney1_questions","survey-likert","484","24730541","0.0-6.0-2.68","26095103","co39145","norming","","","{""curiosity"":5,""confidence"":2}","[0,1]","../img/tt/1063tt.jpg","",""
"2488.205000059679","","","recognition","survey-text","485","24733034","0.0-6.0-3.68","26095103","co39145","norming","","","{""guess"":""paard""}","","../img/tt/1063tt.jpg","",""
"null","../img/gs/1063gs.jpg","null","reveal","image-keyboard-response","486","24735041","0.0-6.0-4.68","26095103","co39145","norming","","","","","","",""
"null","../img/tt/1063tt.jpg","null","mooney2","image-keyboard-response","487","24737047","0.0-6.0-5.68","26095103","co39145","norming","","","","","","",""
"3145.520000020042","","","post_reveal_questions","survey-likert","488","24740194","0.0-6.0-6.68","26095103","co39145","norming","","","{""aha"":5}","[0]","../img/tt/1063tt.jpg","",""
"null","<div style=""font-size:60px;""> </div>","null","fixation","html-keyboard-response","489","24740399","0.0-6.0-0.69","26095103","co39145","norming","","","","","","",""
"null","../img/tt/1186tt.jpg","null","mooney1","image-keyboard-response","490","24743406","0.0-6.0-1.69","26095103","co39145","norming","","","","","","",""
"4301.865000044927","","","post_mooney1_questions","survey-likert","491","24747710","0.0-6.0-2.69","26095103","co39145","norming","","","{""curiosity"":5,""confidence"":1}","[0,1]","../img/tt/1186tt.jpg","",""
"1881.3249999657273","","","recognition","survey-text","492","24749596","0.0-6.0-3.69","26095103","co39145","norming","","","{""guess"":""surfer""}","","../img/tt/1186tt.jpg","",""
"null","../img/gs/1186gs.jpg","null","reveal","image-keyboard-response","493","24751601","0.0-6.0-4.69","26095103","co39145","norming","","","","","","",""
"null","../img/tt/1186tt.jpg","null","mooney2","image-keyboard-response","494","24753604","0.0-6.0-5.69","26095103","co39145","norming","","","","","","",""
"1835.1350000593811","","","post_reveal_questions","survey-likert","495","24755442","0.0-6.0-6.69","26095103","co39145","norming","","","{""aha"":1}","[0]","../img/tt/1186tt.jpg","",""
"null","<div style=""font-size:60px;""> </div>","null","fixation","html-keyboard-response","496","24755647","0.0-6.0-0.70","26095103","co39145","norming","","","","","","",""
"null","../img/tt/329tt.jpg","null","mooney1","image-keyboard-response","497","24758650","0.0-6.0-1.70","26095103","co39145","norming","","","","","","",""
"3108.6600001435727","","","post_mooney1_questions","survey-likert","498","24761761","0.0-6.0-2.70","26095103","co39145","norming","","","{""curiosity"":5,""confidence"":0}","[0,1]","../img/tt/329tt.jpg","",""
"1606.6850000061095","","","recognition","survey-text","499","24763372","0.0-6.0-3.70","26095103","co39145","norming","","","{""guess"":""""}","","../img/tt/329tt.jpg","",""
"null","../img/gs/329gs.jpg","null","reveal","image-keyboard-response","500","24765377","0.0-6.0-4.70","26095103","co39145","norming","","","","","","",""
"null","../img/tt/329tt.jpg","null","mooney2","image-keyboard-response","501","24767379","0.0-6.0-5.70","26095103","co39145","norming","","","","","","",""
"3300.6800001021475","","","post_reveal_questions","survey-likert","502","24770682","0.0-6.0-6.70","26095103","co39145","norming","","","{""aha"":0}","[0]","../img/tt/329tt.jpg","",""
"null","<div style=""font-size:60px;""> </div>","null","fixation","html-keyboard-response","503","24770887","0.0-6.0-0.71","26095103","co39145","norming","","","","","","",""
"null","../img/tt/1270tt.jpg","null","mooney1","image-keyboard-response","504","24773894","0.0-6.0-1.71","26095103","co39145","norming","","","","","","",""
"10012.815000023693","","","post_mooney1_questions","survey-likert","505","24783910","0.0-6.0-2.71","26095103","co39145","norming","","","{""curiosity"":5,""confidence"":3}","[0,1]","../img/tt/1270tt.jpg","",""
"4835.794999962673","","","recognition","survey-text","506","24788750","0.0-6.0-3.71","26095103","co39145","norming","","","{""guess"":""hamster""}","","../img/tt/1270tt.jpg","",""
"null","../img/gs/1270gs.jpg","null","reveal","image-keyboard-response","507","24790756","0.0-6.0-4.71","26095103","co39145","norming","","","","","","",""
"null","../img/tt/1270tt.jpg","null","mooney2","image-keyboard-response","508","24792761","0.0-6.0-5.71","26095103","co39145","norming","","","","","","",""
"5210.050000110641","","","post_reveal_questions","survey-likert","509","24797973","0.0-6.0-6.71","26095103","co39145","norming","","","{""aha"":4}","[0]","../img/tt/1270tt.jpg","",""
"null","<div style=""font-size:60px;""> </div>","null","fixation","html-keyboard-response","510","24798176","0.0-6.0-0.72","26095103","co39145","norming","","","","","","",""
"null","../img/tt/301tt.jpg","null","mooney1","image-keyboard-response","511","24801179","0.0-6.0-1.72","26095103","co39145","norming","","","","","","",""
"3668.844999978319","","","post_mooney1_questions","survey-likert","512","24804850","0.0-6.0-2.72","26095103","co39145","norming","","","{""curiosity"":5,""confidence"":0}","[0,1]","../img/tt/301tt.jpg","",""
"1831.345000071451","","","recognition","survey-text","513","24806686","0.0-6.0-3.72","26095103","co39145","norming","","","{""guess"":""""}","","../img/tt/301tt.jpg","",""
"null","../img/gs/301gs.jpg","null","reveal","image-keyboard-response","514","24808690","0.0-6.0-4.72","26095103","co39145","norming","","","","","","",""
"null","../img/tt/301tt.jpg","null","mooney2","image-keyboard-response","515","24810695","0.0-6.0-5.72","26095103","co39145","norming","","","","","","",""
"3440.724999876693","","","post_reveal_questions","survey-likert","516","24814139","0.0-6.0-6.72","26095103","co39145","norming","","","{""aha"":1}","[0]","../img/tt/301tt.jpg","",""
"null","<div style=""font-size:60px;""> </div>","null","fixation","html-keyboard-response","517","24814344","0.0-6.0-0.73","26095103","co39145","norming","","","","","","",""
"null","../img/tt/1196tt.jpg","null","mooney1","image-keyboard-response","518","24817349","0.0-6.0-1.73","26095103","co39145","norming","","","","","","",""
"5166.375000029802","","","post_mooney1_questions","survey-likert","519","24822518","0.0-6.0-2.73","26095103","co39145","norming","","","{""curiosity"":4,""confidence"":0}","[0,1]","../img/tt/1196tt.jpg","",""
"1602.7699999976903","","","recognition","survey-text","520","24824125","0.0-6.0-3.73","26095103","co39145","norming","","","{""guess"":""""}","","../img/tt/1196tt.jpg","",""
"null","../img/gs/1196gs.jpg","null","reveal","image-keyboard-response","521","24826129","0.0-6.0-4.73","26095103","co39145","norming","","","","","","",""
"null","../img/tt/1196tt.jpg","null","mooney2","image-keyboard-response","522","24828133","0.0-6.0-5.73","26095103","co39145","norming","","","","","","",""
"2208.2499999087304","","","post_reveal_questions","survey-likert","523","24830344","0.0-6.0-6.73","26095103","co39145","norming","","","{""aha"":1}","[0]","../img/tt/1196tt.jpg","",""
"null","<div style=""font-size:60px;""> </div>","null","fixation","html-keyboard-response","524","24830549","0.0-6.0-0.74","26095103","co39145","norming","","","","","","",""
"null","../img/tt/1242tt.jpg","null","mooney1","image-keyboard-response","525","24833551","0.0-6.0-1.74","26095103","co39145","norming","","","","","","",""
"5409.769999794662","","","post_mooney1_questions","survey-likert","526","24838963","0.0-6.0-2.74","26095103","co39145","norming","","","{""curiosity"":4,""confidence"":0}","[0,1]","../img/tt/1242tt.jpg","",""
"829.1949999984354","","","recognition","survey-text","527","24839796","0.0-6.0-3.74","26095103","co39145","norming","","","{""guess"":""""}","","../img/tt/1242tt.jpg","",""
"null","../img/gs/1242gs.jpg","null","reveal","image-keyboard-response","528","24841801","0.0-6.0-4.74","26095103","co39145","norming","","","","","","",""
"null","../img/tt/1242tt.jpg","null","mooney2","image-keyboard-response","529","24843803","0.0-6.0-5.74","26095103","co39145","norming","","","","","","",""
"1432.7000000048429","","","post_reveal_questions","survey-likert","530","24845238","0.0-6.0-6.74","26095103","co39145","norming","","","{""aha"":0}","[0]","../img/tt/1242tt.jpg","",""
"null","<div style=""font-size:60px;""> </div>","null","fixation","html-keyboard-response","531","24845445","0.0-6.0-0.75","26095103","co39145","norming","","","","","","",""
"null","../img/tt/507tt.jpg","null","mooney1","image-keyboard-response","532","24848450","0.0-6.0-1.75","26095103","co39145","norming","","","","","","",""
"6664.479999803007","","","post_mooney1_questions","survey-likert","533","24855118","0.0-6.0-2.75","26095103","co39145","norming","","","{""curiosity"":5,""confidence"":1}","[0,1]","../img/tt/507tt.jpg","",""
"1518.1650000158697","","","recognition","survey-text","534","24856641","0.0-6.0-3.75","26095103","co39145","norming","","","{""guess"":""wolf""}","","../img/tt/507tt.jpg","",""
"null","../img/gs/507gs.jpg","null","reveal","image-keyboard-response","535","24858645","0.0-6.0-4.75","26095103","co39145","norming","","","","","","",""
"null","../img/tt/507tt.jpg","null","mooney2","image-keyboard-response","536","24860647","0.0-6.0-5.75","26095103","co39145","norming","","","","","","",""
"1962.410000152886","","","post_reveal_questions","survey-likert","537","24862612","0.0-6.0-6.75","26095103","co39145","norming","","","{""aha"":2}","[0]","../img/tt/507tt.jpg","",""
"null","<div style=""font-size:60px;""> </div>","null","fixation","html-keyboard-response","538","24862820","0.0-6.0-0.76","26095103","co39145","norming","","","","","","",""
"null","../img/tt/515tt.jpg","null","mooney1","image-keyboard-response","539","24865826","0.0-6.0-1.76","26095103","co39145","norming","","","","","","",""
"3265.570000046864","","","post_mooney1_questions","survey-likert","540","24869094","0.0-6.0-2.76","26095103","co39145","norming","","","{""curiosity"":5,""confidence"":0}","[0,1]","../img/tt/515tt.jpg","",""
"1269.6149998810142","","","recognition","survey-text","541","24870369","0.0-6.0-3.76","26095103","co39145","norming","","","{""guess"":""""}","","../img/tt/515tt.jpg","",""
"null","../img/gs/515gs.jpg","null","reveal","image-keyboard-response","542","24872376","0.0-6.0-4.76","26095103","co39145","norming","","","","","","",""
"null","../img/tt/515tt.jpg","null","mooney2","image-keyboard-response","543","24874383","0.0-6.0-5.76","26095103","co39145","norming","","","","","","",""
"2556.00000009872","","","post_reveal_questions","survey-likert","544","24876941","0.0-6.0-6.76","26095103","co39145","norming","","","{""aha"":0}","[0]","../img/tt/515tt.jpg","",""
