"rt","stimulus","key_press","test_part","trial_type","trial_index","time_elapsed","internal_node_id","totalTime","subject","experiment_name","button_pressed","success","responses","question_order","currentStim","old","correct"
"3186.634999998205","Welcome to the experiment. This is an online experiment so please don't close the tab/window until we say goodbye.  Press any key to begin.","32","instructions","html-keyboard-response","0","3457","0.0-0.0","2611301","co39517","norming","","","","","","",""
"45160.71500000544","<div style='word-wrap: break-word; width: 900px'><h3>Please consider this information carefully before deciding whether to participate in this research</h3><ul style='text-align: left; font-size: .8em;'><li><b>Purpose of the research</b>: To examine how people process images.</li><li><b>What you will do in this research</b>:  Stimuli (images) will be presented on the computer and you will be asked different questions about them.</li><li><b>Time required</b>: Participation will take between 45 and 60 minutes to complete.</li><li><b>Risks</b>:  There are no anticipated risks associated with participating in this study. The effects of participating should be comparable to those you would experience from viewing a computer monitor for 30 minutes and using a mouse or keyboard.</li><li><b>Benefits</b>:  This study provides no benefits to you individually except for the credit. The study provides important information about the nature of perception and learning.</li><li><b>Confidentiality</b>:  Your participation in this study will remain confidential. No personally identifiable information will be associated with your data. Your de-identified data may be shared with other researchers and used in future projects.</li><li><b>Participation and withdrawal</b>:  Your participation in this study is completely voluntary and you may refuse to participate or you may choose to withdraw at any time without penalty.</li><li><b>How to contact the researchers</b>: If you have questions or concerns about your participation or payment, or want to request a summary of research findings, please contact Sander Van de Cruys (KU Leuven), at sander.vandecruys@kuleuven.be.</li></ul><p>The nature and purpose of this research have been sufficiently explained and I agree to participate in this study.  I understand that I am free to withdraw at any time without incurring any penalty.</p><p>Please consent by clicking the button below to continue. Otherwise, please exit the study at this time.</p></div>","","instructions","html-button-response","1","48622","0.0-1.0","2611301","co39517","norming","0","","","","","",""
"","","","instructions","fullscreen","2","54118","0.0-2.0","2611301","co39517","norming","","true","","","","",""
"21337.60500000062","","","sona","survey-html-form","3","75460","0.0-3.0","2611301","co39517","norming","","","[{""name"":""sonaid"",""value"":""39517""},{""name"":""debrief"",""value"":""yes""},{""name"":""datajoin"",""value"":""yes""}]","","","",""
"41493.6549999984","<div style='word-wrap: break-word; width: 900px'><h3>Instructions</h3><p>This experiment will have 3 parts. In the first part you will see a series of distorted images like the one below on the left. As you can see in the righthand image, the distorted images are derived from actual photographs. In what follows, you will <strong>briefly</strong> be presented with <strong>only</strong> the distorted image.</p> <div style='float: left; margin-right: 20px;'><img src='../img/018tt.jpg' height='250' width='250'></img></div><div style='float: right; margin-left: 20px;'><img src='../img/018gs.jpg' height='250' width='250'></img></div><p>Subsequently you will be asked a few questions about the image: One question on how <strong>curious</strong> you are about the solution and one on how <strong>confident</strong> you are that you know the solution.</p>Next, we ask you to make a guess on what is in the image. Note that it is OK to name just the <strong>basic level category</strong>. For example when you see a parrot in the image, 'parrot' will obviously be a correct answer but also correct is 'bird'. However, 'animal' will <strong>not</strong> be counted as a correct response. For the example above, 'rose' would be correct or 'flower', but not 'plant'. When soccer players are depicted, 'soccer', 'football', 'soccer players' will be correct, but not 'humans', 'outdoors', or 'sports'. You do not need to describe the image in full, just name the main object in it <strong>in one or two words</strong>. All images depict objects from one of the following broad level categories: animals, inanimate objects, plants, sports, vehicles, and food. Recognizing means knowing <strong>more</strong> than these broad labels for a given image. But we always encourage you to <strong>make a guess</strong> if you can. Note that you are allowed to use <strong>Dutch and English</strong> in your answers, whatever comes easiest for you.</p><p>Press any key to continue.</p></div>","32","instructions","html-keyboard-response","4","116959","0.0-4.0","2611301","co39517","norming","","","","","","",""
"10952.339999996184","<div style='word-wrap: break-word; width: 900px'><h3>Instructions</h3> <p>Next, the solution image will be revealed to you and you'll be asked to indicate how strong your <strong>aha-experience</strong> was after seeing the solution. This describes the positive feeling of the 'click' you sometimes experience, when the pieces of the 'puzzle' fall together and you suddenly have 'insight' in the image.</p><img src='aha.jpg' height='188' width='250'></img><p>Note that there are no right or wrong answers. We are interested in what <strong>you</strong> see in the image and how <strong>you</strong> feel about it.</p><p>Press any key to start the experiment.</p></div>","32","instructions","html-keyboard-response","5","127913","0.0-5.0","2611301","co39517","norming","","","","","","",""
"null","<div style=""font-size:60px;""> </div>","null","fixation","html-keyboard-response","6","128117","0.0-6.0-0.0","2611301","co39517","norming","","","","","","",""
"null","../img/tt/108tt.jpg","null","mooney1","image-keyboard-response","7","131123","0.0-6.0-1.0","2611301","co39517","norming","","","","","","",""
"6279.579999994894","","","post_mooney1_questions","survey-likert","8","137406","0.0-6.0-2.0","2611301","co39517","norming","","","{""curiosity"":5,""confidence"":0}","[0,1]","../img/tt/108tt.jpg","",""
"11978.280000002997","","","recognition","survey-text","9","149394","0.0-6.0-3.0","2611301","co39517","norming","","","{""guess"":""world, planet, earth""}","","../img/tt/108tt.jpg","",""
"null","../img/gs/108gs.jpg","null","reveal","image-keyboard-response","10","151398","0.0-6.0-4.0","2611301","co39517","norming","","","","","","",""
"null","../img/tt/108tt.jpg","null","mooney2","image-keyboard-response","11","153404","0.0-6.0-5.0","2611301","co39517","norming","","","","","","",""
"3841.755000001285","","","post_reveal_questions","survey-likert","12","157248","0.0-6.0-6.0","2611301","co39517","norming","","","{""aha"":4}","[0]","../img/tt/108tt.jpg","",""
"null","<div style=""font-size:60px;""> </div>","null","fixation","html-keyboard-response","13","157458","0.0-6.0-0.1","2611301","co39517","norming","","","","","","",""
"null","../img/tt/534tt.jpg","null","mooney1","image-keyboard-response","14","160460","0.0-6.0-1.1","2611301","co39517","norming","","","","","","",""
"5188.764999998966","","","post_mooney1_questions","survey-likert","15","165653","0.0-6.0-2.1","2611301","co39517","norming","","","{""curiosity"":6,""confidence"":2}","[0,1]","../img/tt/534tt.jpg","",""
"8606.560000000172","","","recognition","survey-text","16","174269","0.0-6.0-3.1","2611301","co39517","norming","","","{""guess"":""plant, jungle""}","","../img/tt/534tt.jpg","",""
"null","../img/gs/534gs.jpg","null","reveal","image-keyboard-response","17","176273","0.0-6.0-4.1","2611301","co39517","norming","","","","","","",""
"null","../img/tt/534tt.jpg","null","mooney2","image-keyboard-response","18","178279","0.0-6.0-5.1","2611301","co39517","norming","","","","","","",""
"2609.935000000405","","","post_reveal_questions","survey-likert","19","180891","0.0-6.0-6.1","2611301","co39517","norming","","","{""aha"":4}","[0]","../img/tt/534tt.jpg","",""
"null","<div style=""font-size:60px;""> </div>","null","fixation","html-keyboard-response","20","181098","0.0-6.0-0.2","2611301","co39517","norming","","","","","","",""
"null","../img/tt/603tt.jpg","null","mooney1","image-keyboard-response","21","184100","0.0-6.0-1.2","2611301","co39517","norming","","","","","","",""
"3423.815000001923","","","post_mooney1_questions","survey-likert","22","187527","0.0-6.0-2.2","2611301","co39517","norming","","","{""curiosity"":5,""confidence"":0}","[0,1]","../img/tt/603tt.jpg","",""
"9160.750000002736","","","recognition","survey-text","23","196697","0.0-6.0-3.2","2611301","co39517","norming","","","{""guess"":""hands, embrace""}","","../img/tt/603tt.jpg","",""
"null","../img/gs/603gs.jpg","null","reveal","image-keyboard-response","24","198699","0.0-6.0-4.2","2611301","co39517","norming","","","","","","",""
"null","../img/tt/603tt.jpg","null","mooney2","image-keyboard-response","25","200701","0.0-6.0-5.2","2611301","co39517","norming","","","","","","",""
"2676.0550000035437","","","post_reveal_questions","survey-likert","26","203379","0.0-6.0-6.2","2611301","co39517","norming","","","{""aha"":6}","[0]","../img/tt/603tt.jpg","",""
"null","<div style=""font-size:60px;""> </div>","null","fixation","html-keyboard-response","27","203590","0.0-6.0-0.3","2611301","co39517","norming","","","","","","",""
"null","../img/tt/418tt.jpg","null","mooney1","image-keyboard-response","28","206593","0.0-6.0-1.3","2611301","co39517","norming","","","","","","",""
"89240.79500000516","","","post_mooney1_questions","survey-likert","29","295839","0.0-6.0-2.3","2611301","co39517","norming","","","{""curiosity"":6,""confidence"":0}","[0,1]","../img/tt/418tt.jpg","",""
"4713.515000003099","","","recognition","survey-text","30","300563","0.0-6.0-3.3","2611301","co39517","norming","","","{""guess"":""""}","","../img/tt/418tt.jpg","",""
"null","../img/gs/418gs.jpg","null","reveal","image-keyboard-response","31","302567","0.0-6.0-4.3","2611301","co39517","norming","","","","","","",""
"null","../img/tt/418tt.jpg","null","mooney2","image-keyboard-response","32","304574","0.0-6.0-5.3","2611301","co39517","norming","","","","","","",""
"5767.345000000205","","","post_reveal_questions","survey-likert","33","310343","0.0-6.0-6.3","2611301","co39517","norming","","","{""aha"":6}","[0]","../img/tt/418tt.jpg","",""
"null","<div style=""font-size:60px;""> </div>","null","fixation","html-keyboard-response","34","310552","0.0-6.0-0.4","2611301","co39517","norming","","","","","","",""
"null","../img/tt/318tt.jpg","null","mooney1","image-keyboard-response","35","313557","0.0-6.0-1.4","2611301","co39517","norming","","","","","","",""
"12383.88500000292","","","post_mooney1_questions","survey-likert","36","325943","0.0-6.0-2.4","2611301","co39517","norming","","","{""curiosity"":6,""confidence"":2}","[0,1]","../img/tt/318tt.jpg","",""
"9632.779999999912","","","recognition","survey-text","37","335590","0.0-6.0-3.4","2611301","co39517","norming","","","{""guess"":""koala""}","","../img/tt/318tt.jpg","",""
"null","../img/gs/318gs.jpg","null","reveal","image-keyboard-response","38","337597","0.0-6.0-4.4","2611301","co39517","norming","","","","","","",""
"null","../img/tt/318tt.jpg","null","mooney2","image-keyboard-response","39","339600","0.0-6.0-5.4","2611301","co39517","norming","","","","","","",""
"3676.774999999907","","","post_reveal_questions","survey-likert","40","343281","0.0-6.0-6.4","2611301","co39517","norming","","","{""aha"":6}","[0]","../img/tt/318tt.jpg","",""
"null","<div style=""font-size:60px;""> </div>","null","fixation","html-keyboard-response","41","343486","0.0-6.0-0.5","2611301","co39517","norming","","","","","","",""
"null","../img/tt/094tt.jpg","null","mooney1","image-keyboard-response","42","346490","0.0-6.0-1.5","2611301","co39517","norming","","","","","","",""
"4802.485000000161","","","post_mooney1_questions","survey-likert","43","351298","0.0-6.0-2.5","2611301","co39517","norming","","","{""curiosity"":6,""confidence"":1}","[0,1]","../img/tt/094tt.jpg","",""
"8096.270000001823","","","recognition","survey-text","44","359406","0.0-6.0-3.5","2611301","co39517","norming","","","{""guess"":""bear, predator""}","","../img/tt/094tt.jpg","",""
"null","../img/gs/094gs.jpg","null","reveal","image-keyboard-response","45","361413","0.0-6.0-4.5","2611301","co39517","norming","","","","","","",""
"null","../img/tt/094tt.jpg","null","mooney2","image-keyboard-response","46","363417","0.0-6.0-5.5","2611301","co39517","norming","","","","","","",""
"3892.469999998866","","","post_reveal_questions","survey-likert","47","367313","0.0-6.0-6.5","2611301","co39517","norming","","","{""aha"":4}","[0]","../img/tt/094tt.jpg","",""
"null","<div style=""font-size:60px;""> </div>","null","fixation","html-keyboard-response","48","367522","0.0-6.0-0.6","2611301","co39517","norming","","","","","","",""
"null","../img/tt/436tt.jpg","null","mooney1","image-keyboard-response","49","370527","0.0-6.0-1.6","2611301","co39517","norming","","","","","","",""
"5647.485000001325","","","post_mooney1_questions","survey-likert","50","376178","0.0-6.0-2.6","2611301","co39517","norming","","","{""curiosity"":6,""confidence"":0}","[0,1]","../img/tt/436tt.jpg","",""
"5385.450000001583","","","recognition","survey-text","51","381573","0.0-6.0-3.6","2611301","co39517","norming","","","{""guess"":""crocodile""}","","../img/tt/436tt.jpg","",""
"null","../img/gs/436gs.jpg","null","reveal","image-keyboard-response","52","383579","0.0-6.0-4.6","2611301","co39517","norming","","","","","","",""
"null","../img/tt/436tt.jpg","null","mooney2","image-keyboard-response","53","385583","0.0-6.0-5.6","2611301","co39517","norming","","","","","","",""
"4404.584999996587","","","post_reveal_questions","survey-likert","54","389990","0.0-6.0-6.6","2611301","co39517","norming","","","{""aha"":3}","[0]","../img/tt/436tt.jpg","",""
"null","<div style=""font-size:60px;""> </div>","null","fixation","html-keyboard-response","55","390199","0.0-6.0-0.7","2611301","co39517","norming","","","","","","",""
"null","../img/tt/007tt.jpg","null","mooney1","image-keyboard-response","56","393206","0.0-6.0-1.7","2611301","co39517","norming","","","","","","",""
"5674.065000006522","","","post_mooney1_questions","survey-likert","57","398883","0.0-6.0-2.7","2611301","co39517","norming","","","{""curiosity"":5,""confidence"":1}","[0,1]","../img/tt/007tt.jpg","",""
"12962.14499999769","","","recognition","survey-text","58","411855","0.0-6.0-3.7","2611301","co39517","norming","","","{""guess"":""fangs vampire""}","","../img/tt/007tt.jpg","",""
"null","../img/gs/007gs.jpg","null","reveal","image-keyboard-response","59","413861","0.0-6.0-4.7","2611301","co39517","norming","","","","","","",""
"null","../img/tt/007tt.jpg","null","mooney2","image-keyboard-response","60","415862","0.0-6.0-5.7","2611301","co39517","norming","","","","","","",""
"2328.974999996717","","","post_reveal_questions","survey-likert","61","418194","0.0-6.0-6.7","2611301","co39517","norming","","","{""aha"":5}","[0]","../img/tt/007tt.jpg","",""
"null","<div style=""font-size:60px;""> </div>","null","fixation","html-keyboard-response","62","418402","0.0-6.0-0.8","2611301","co39517","norming","","","","","","",""
"null","../img/tt/019tt.jpg","null","mooney1","image-keyboard-response","63","421404","0.0-6.0-1.8","2611301","co39517","norming","","","","","","",""
"3378.4749999977066","","","post_mooney1_questions","survey-likert","64","424785","0.0-6.0-2.8","2611301","co39517","norming","","","{""curiosity"":6,""confidence"":0}","[0,1]","../img/tt/019tt.jpg","",""
"5465.935000000172","","","recognition","survey-text","65","430261","0.0-6.0-3.8","2611301","co39517","norming","","","{""guess"":""boat sea""}","","../img/tt/019tt.jpg","",""
"null","../img/gs/019gs.jpg","null","reveal","image-keyboard-response","66","432263","0.0-6.0-4.8","2611301","co39517","norming","","","","","","",""
"null","../img/tt/019tt.jpg","null","mooney2","image-keyboard-response","67","434265","0.0-6.0-5.8","2611301","co39517","norming","","","","","","",""
"4483.344999993278","","","post_reveal_questions","survey-likert","68","438750","0.0-6.0-6.8","2611301","co39517","norming","","","{""aha"":4}","[0]","../img/tt/019tt.jpg","",""
"null","<div style=""font-size:60px;""> </div>","null","fixation","html-keyboard-response","69","438962","0.0-6.0-0.9","2611301","co39517","norming","","","","","","",""
"null","../img/tt/1237tt.jpg","null","mooney1","image-keyboard-response","70","441964","0.0-6.0-1.9","2611301","co39517","norming","","","","","","",""
"4606.500000001688","","","post_mooney1_questions","survey-likert","71","446573","0.0-6.0-2.9","2611301","co39517","norming","","","{""curiosity"":6,""confidence"":0}","[0,1]","../img/tt/1237tt.jpg","",""
"3125.4100000005565","","","recognition","survey-text","72","449707","0.0-6.0-3.9","2611301","co39517","norming","","","{""guess"":""sea waves""}","","../img/tt/1237tt.jpg","",""
"null","../img/gs/1237gs.jpg","null","reveal","image-keyboard-response","73","451711","0.0-6.0-4.9","2611301","co39517","norming","","","","","","",""
"null","../img/tt/1237tt.jpg","null","mooney2","image-keyboard-response","74","453714","0.0-6.0-5.9","2611301","co39517","norming","","","","","","",""
"2277.3200000010547","","","post_reveal_questions","survey-likert","75","455993","0.0-6.0-6.9","2611301","co39517","norming","","","{""aha"":4}","[0]","../img/tt/1237tt.jpg","",""
"null","<div style=""font-size:60px;""> </div>","null","fixation","html-keyboard-response","76","456204","0.0-6.0-0.10","2611301","co39517","norming","","","","","","",""
"null","../img/tt/1186tt.jpg","null","mooney1","image-keyboard-response","77","459210","0.0-6.0-1.10","2611301","co39517","norming","","","","","","",""
"4264.269999999669","","","post_mooney1_questions","survey-likert","78","463478","0.0-6.0-2.10","2611301","co39517","norming","","","{""curiosity"":6,""confidence"":0}","[0,1]","../img/tt/1186tt.jpg","",""
"7650.820000002568","","","recognition","survey-text","79","471139","0.0-6.0-3.10","2611301","co39517","norming","","","{""guess"":""policeman street""}","","../img/tt/1186tt.jpg","",""
"null","../img/gs/1186gs.jpg","null","reveal","image-keyboard-response","80","473142","0.0-6.0-4.10","2611301","co39517","norming","","","","","","",""
"null","../img/tt/1186tt.jpg","null","mooney2","image-keyboard-response","81","475147","0.0-6.0-5.10","2611301","co39517","norming","","","","","","",""
"2650.0949999972363","","","post_reveal_questions","survey-likert","82","477799","0.0-6.0-6.10","2611301","co39517","norming","","","{""aha"":4}","[0]","../img/tt/1186tt.jpg","",""
"null","<div style=""font-size:60px;""> </div>","null","fixation","html-keyboard-response","83","478010","0.0-6.0-0.11","2611301","co39517","norming","","","","","","",""
"null","../img/tt/1122tt.jpg","null","mooney1","image-keyboard-response","84","481014","0.0-6.0-1.11","2611301","co39517","norming","","","","","","",""
"4834.320000001753","","","post_mooney1_questions","survey-likert","85","485851","0.0-6.0-2.11","2611301","co39517","norming","","","{""curiosity"":6,""confidence"":0}","[0,1]","../img/tt/1122tt.jpg","",""
"29313.81500000134","","","recognition","survey-text","86","515176","0.0-6.0-3.11","2611301","co39517","norming","","","{""guess"":""boat""}","","../img/tt/1122tt.jpg","",""
"null","../img/gs/1122gs.jpg","null","reveal","image-keyboard-response","87","517178","0.0-6.0-4.11","2611301","co39517","norming","","","","","","",""
"null","../img/tt/1122tt.jpg","null","mooney2","image-keyboard-response","88","519183","0.0-6.0-5.11","2611301","co39517","norming","","","","","","",""
"3259.1899999969173","","","post_reveal_questions","survey-likert","89","522445","0.0-6.0-6.11","2611301","co39517","norming","","","{""aha"":4}","[0]","../img/tt/1122tt.jpg","",""
"null","<div style=""font-size:60px;""> </div>","null","fixation","html-keyboard-response","90","522654","0.0-6.0-0.12","2611301","co39517","norming","","","","","","",""
"null","../img/tt/1242tt.jpg","null","mooney1","image-keyboard-response","91","525656","0.0-6.0-1.12","2611301","co39517","norming","","","","","","",""
"5088.200000005658","","","post_mooney1_questions","survey-likert","92","530746","0.0-6.0-2.12","2611301","co39517","norming","","","{""curiosity"":6,""confidence"":2}","[0,1]","../img/tt/1242tt.jpg","",""
"4737.5150000007125","","","recognition","survey-text","93","535498","0.0-6.0-3.12","2611301","co39517","norming","","","{""guess"":""carebear""}","","../img/tt/1242tt.jpg","",""
"null","../img/gs/1242gs.jpg","null","reveal","image-keyboard-response","94","537503","0.0-6.0-4.12","2611301","co39517","norming","","","","","","",""
"null","../img/tt/1242tt.jpg","null","mooney2","image-keyboard-response","95","539508","0.0-6.0-5.12","2611301","co39517","norming","","","","","","",""
"4241.219999996247","","","post_reveal_questions","survey-likert","96","543752","0.0-6.0-6.12","2611301","co39517","norming","","","{""aha"":3}","[0]","../img/tt/1242tt.jpg","",""
"null","<div style=""font-size:60px;""> </div>","null","fixation","html-keyboard-response","97","543961","0.0-6.0-0.13","2611301","co39517","norming","","","","","","",""
"null","../img/tt/380tt.jpg","null","mooney1","image-keyboard-response","98","546963","0.0-6.0-1.13","2611301","co39517","norming","","","","","","",""
"4215.4500000033295","","","post_mooney1_questions","survey-likert","99","551181","0.0-6.0-2.13","2611301","co39517","norming","","","{""curiosity"":5,""confidence"":0}","[0,1]","../img/tt/380tt.jpg","",""
"2301.635000003502","","","recognition","survey-text","100","553494","0.0-6.0-3.13","2611301","co39517","norming","","","{""guess"":""""}","","../img/tt/380tt.jpg","",""
"null","../img/gs/380gs.jpg","null","reveal","image-keyboard-response","101","555497","0.0-6.0-4.13","2611301","co39517","norming","","","","","","",""
"null","../img/tt/380tt.jpg","null","mooney2","image-keyboard-response","102","557499","0.0-6.0-5.13","2611301","co39517","norming","","","","","","",""
"2722.959999999148","","","post_reveal_questions","survey-likert","103","560224","0.0-6.0-6.13","2611301","co39517","norming","","","{""aha"":5}","[0]","../img/tt/380tt.jpg","",""
"null","<div style=""font-size:60px;""> </div>","null","fixation","html-keyboard-response","104","560434","0.0-6.0-0.14","2611301","co39517","norming","","","","","","",""
"null","../img/tt/124tt.jpg","null","mooney1","image-keyboard-response","105","563437","0.0-6.0-1.14","2611301","co39517","norming","","","","","","",""
"4832.665000001667","","","post_mooney1_questions","survey-likert","106","568272","0.0-6.0-2.14","2611301","co39517","norming","","","{""curiosity"":6,""confidence"":4}","[0,1]","../img/tt/124tt.jpg","",""
"5696.489999994868","","","recognition","survey-text","107","573976","0.0-6.0-3.14","2611301","co39517","norming","","","{""guess"":""panda bamboo""}","","../img/tt/124tt.jpg","",""
"null","../img/gs/124gs.jpg","null","reveal","image-keyboard-response","108","575978","0.0-6.0-4.14","2611301","co39517","norming","","","","","","",""
"null","../img/tt/124tt.jpg","null","mooney2","image-keyboard-response","109","577981","0.0-6.0-5.14","2611301","co39517","norming","","","","","","",""
"4834.0450000033015","","","post_reveal_questions","survey-likert","110","582817","0.0-6.0-6.14","2611301","co39517","norming","","","{""aha"":5}","[0]","../img/tt/124tt.jpg","",""
"null","<div style=""font-size:60px;""> </div>","null","fixation","html-keyboard-response","111","583025","0.0-6.0-0.15","2611301","co39517","norming","","","","","","",""
"null","../img/tt/1189tt.jpg","null","mooney1","image-keyboard-response","112","586027","0.0-6.0-1.15","2611301","co39517","norming","","","","","","",""
"8016.810000000987","","","post_mooney1_questions","survey-likert","113","594046","0.0-6.0-2.15","2611301","co39517","norming","","","{""curiosity"":6,""confidence"":0}","[0,1]","../img/tt/1189tt.jpg","",""
"800.2249999991618","","","recognition","survey-text","114","594855","0.0-6.0-3.15","2611301","co39517","norming","","","{""guess"":""""}","","../img/tt/1189tt.jpg","",""
"null","../img/gs/1189gs.jpg","null","reveal","image-keyboard-response","115","596857","0.0-6.0-4.15","2611301","co39517","norming","","","","","","",""
"null","../img/tt/1189tt.jpg","null","mooney2","image-keyboard-response","116","598858","0.0-6.0-5.15","2611301","co39517","norming","","","","","","",""
"3451.7550000018673","","","post_reveal_questions","survey-likert","117","602312","0.0-6.0-6.15","2611301","co39517","norming","","","{""aha"":5}","[0]","../img/tt/1189tt.jpg","",""
"null","<div style=""font-size:60px;""> </div>","null","fixation","html-keyboard-response","118","602523","0.0-6.0-0.16","2611301","co39517","norming","","","","","","",""
"null","../img/tt/1173tt.jpg","null","mooney1","image-keyboard-response","119","605530","0.0-6.0-1.16","2611301","co39517","norming","","","","","","",""
"6959.314999999944","","","post_mooney1_questions","survey-likert","120","612491","0.0-6.0-2.16","2611301","co39517","norming","","","{""curiosity"":4,""confidence"":5}","[0,1]","../img/tt/1173tt.jpg","",""
"3494.234999998356","","","recognition","survey-text","121","615995","0.0-6.0-3.16","2611301","co39517","norming","","","{""guess"":""hockey""}","","../img/tt/1173tt.jpg","",""
"null","../img/gs/1173gs.jpg","null","reveal","image-keyboard-response","122","617999","0.0-6.0-4.16","2611301","co39517","norming","","","","","","",""
"null","../img/tt/1173tt.jpg","null","mooney2","image-keyboard-response","123","620006","0.0-6.0-5.16","2611301","co39517","norming","","","","","","",""
"4163.3399999991525","","","post_reveal_questions","survey-likert","124","624171","0.0-6.0-6.16","2611301","co39517","norming","","","{""aha"":3}","[0]","../img/tt/1173tt.jpg","",""
"null","<div style=""font-size:60px;""> </div>","null","fixation","html-keyboard-response","125","624381","0.0-6.0-0.17","2611301","co39517","norming","","","","","","",""
"null","../img/tt/1232tt.jpg","null","mooney1","image-keyboard-response","126","627384","0.0-6.0-1.17","2611301","co39517","norming","","","","","","",""
"3210.675000002142","","","post_mooney1_questions","survey-likert","127","630599","0.0-6.0-2.17","2611301","co39517","norming","","","{""curiosity"":4,""confidence"":4}","[0,1]","../img/tt/1232tt.jpg","",""
"6151.184999995166","","","recognition","survey-text","128","636760","0.0-6.0-3.17","2611301","co39517","norming","","","{""guess"":""turtle sea""}","","../img/tt/1232tt.jpg","",""
"null","../img/gs/1232gs.jpg","null","reveal","image-keyboard-response","129","638764","0.0-6.0-4.17","2611301","co39517","norming","","","","","","",""
"null","../img/tt/1232tt.jpg","null","mooney2","image-keyboard-response","130","640766","0.0-6.0-5.17","2611301","co39517","norming","","","","","","",""
"2825.2100000026403","","","post_reveal_questions","survey-likert","131","643593","0.0-6.0-6.17","2611301","co39517","norming","","","{""aha"":4}","[0]","../img/tt/1232tt.jpg","",""
"null","<div style=""font-size:60px;""> </div>","null","fixation","html-keyboard-response","132","643803","0.0-6.0-0.18","2611301","co39517","norming","","","","","","",""
"null","../img/tt/584tt.jpg","null","mooney1","image-keyboard-response","133","646806","0.0-6.0-1.18","2611301","co39517","norming","","","","","","",""
"3386.7099999987986","","","post_mooney1_questions","survey-likert","134","650196","0.0-6.0-2.18","2611301","co39517","norming","","","{""curiosity"":5,""confidence"":2}","[0,1]","../img/tt/584tt.jpg","",""
"3383.574999999837","","","recognition","survey-text","135","653588","0.0-6.0-3.18","2611301","co39517","norming","","","{""guess"":""flower""}","","../img/tt/584tt.jpg","",""
"null","../img/gs/584gs.jpg","null","reveal","image-keyboard-response","136","655595","0.0-6.0-4.18","2611301","co39517","norming","","","","","","",""
"null","../img/tt/584tt.jpg","null","mooney2","image-keyboard-response","137","657598","0.0-6.0-5.18","2611301","co39517","norming","","","","","","",""
"2937.610000000801","","","post_reveal_questions","survey-likert","138","660537","0.0-6.0-6.18","2611301","co39517","norming","","","{""aha"":5}","[0]","../img/tt/584tt.jpg","",""
"null","<div style=""font-size:60px;""> </div>","null","fixation","html-keyboard-response","139","660747","0.0-6.0-0.19","2611301","co39517","norming","","","","","","",""
"null","../img/tt/1156tt.jpg","null","mooney1","image-keyboard-response","140","663749","0.0-6.0-1.19","2611301","co39517","norming","","","","","","",""
"8519.400000004796","","","post_mooney1_questions","survey-likert","141","672272","0.0-6.0-2.19","2611301","co39517","norming","","","{""curiosity"":5,""confidence"":2}","[0,1]","../img/tt/1156tt.jpg","",""
"9734.57000000053","","","recognition","survey-text","142","682016","0.0-6.0-3.19","2611301","co39517","norming","","","{""guess"":""woman sunbathing""}","","../img/tt/1156tt.jpg","",""
"null","../img/gs/1156gs.jpg","null","reveal","image-keyboard-response","143","684022","0.0-6.0-4.19","2611301","co39517","norming","","","","","","",""
"null","../img/tt/1156tt.jpg","null","mooney2","image-keyboard-response","144","686024","0.0-6.0-5.19","2611301","co39517","norming","","","","","","",""
"6481.825000002515","","","post_reveal_questions","survey-likert","145","692508","0.0-6.0-6.19","2611301","co39517","norming","","","{""aha"":2}","[0]","../img/tt/1156tt.jpg","",""
"null","<div style=""font-size:60px;""> </div>","null","fixation","html-keyboard-response","146","692718","0.0-6.0-0.20","2611301","co39517","norming","","","","","","",""
"null","../img/tt/405tt.jpg","null","mooney1","image-keyboard-response","147","695720","0.0-6.0-1.20","2611301","co39517","norming","","","","","","",""
"3348.990000005928","","","post_mooney1_questions","survey-likert","148","699072","0.0-6.0-2.20","2611301","co39517","norming","","","{""curiosity"":5,""confidence"":2}","[0,1]","../img/tt/405tt.jpg","",""
"2422.0850000055507","","","recognition","survey-text","149","701504","0.0-6.0-3.20","2611301","co39517","norming","","","{""guess"":""elephant""}","","../img/tt/405tt.jpg","",""
"null","../img/gs/405gs.jpg","null","reveal","image-keyboard-response","150","703506","0.0-6.0-4.20","2611301","co39517","norming","","","","","","",""
"null","../img/tt/405tt.jpg","null","mooney2","image-keyboard-response","151","705514","0.0-6.0-5.20","2611301","co39517","norming","","","","","","",""
"2455.1149999970803","","","post_reveal_questions","survey-likert","152","707971","0.0-6.0-6.20","2611301","co39517","norming","","","{""aha"":3}","[0]","../img/tt/405tt.jpg","",""
"null","<div style=""font-size:60px;""> </div>","null","fixation","html-keyboard-response","153","708180","0.0-6.0-0.21","2611301","co39517","norming","","","","","","",""
"null","../img/tt/1250tt.jpg","null","mooney1","image-keyboard-response","154","711184","0.0-6.0-1.21","2611301","co39517","norming","","","","","","",""
"3782.7699999980396","","","post_mooney1_questions","survey-likert","155","714969","0.0-6.0-2.21","2611301","co39517","norming","","","{""curiosity"":5,""confidence"":2}","[0,1]","../img/tt/1250tt.jpg","",""
"7786.055000004126","","","recognition","survey-text","156","722765","0.0-6.0-3.21","2611301","co39517","norming","","","{""guess"":""drowning waves""}","","../img/tt/1250tt.jpg","",""
"null","../img/gs/1250gs.jpg","null","reveal","image-keyboard-response","157","724771","0.0-6.0-4.21","2611301","co39517","norming","","","","","","",""
"null","../img/tt/1250tt.jpg","null","mooney2","image-keyboard-response","158","726775","0.0-6.0-5.21","2611301","co39517","norming","","","","","","",""
"3336.510000001057","","","post_reveal_questions","survey-likert","159","730114","0.0-6.0-6.21","2611301","co39517","norming","","","{""aha"":2}","[0]","../img/tt/1250tt.jpg","",""
"null","<div style=""font-size:60px;""> </div>","null","fixation","html-keyboard-response","160","730325","0.0-6.0-0.22","2611301","co39517","norming","","","","","","",""
"null","../img/tt/524tt.jpg","null","mooney1","image-keyboard-response","161","733332","0.0-6.0-1.22","2611301","co39517","norming","","","","","","",""
"9095.430000001215","","","post_mooney1_questions","survey-likert","162","742431","0.0-6.0-2.22","2611301","co39517","norming","","","{""curiosity"":5,""confidence"":3}","[0,1]","../img/tt/524tt.jpg","",""
"1840.2100000021746","","","recognition","survey-text","163","744280","0.0-6.0-3.22","2611301","co39517","norming","","","{""guess"":""bear""}","","../img/tt/524tt.jpg","",""
"null","../img/gs/524gs.jpg","null","reveal","image-keyboard-response","164","746286","0.0-6.0-4.22","2611301","co39517","norming","","","","","","",""
"null","../img/tt/524tt.jpg","null","mooney2","image-keyboard-response","165","748287","0.0-6.0-5.22","2611301","co39517","norming","","","","","","",""
"3764.3000000026077","","","post_reveal_questions","survey-likert","166","752053","0.0-6.0-6.22","2611301","co39517","norming","","","{""aha"":3}","[0]","../img/tt/524tt.jpg","",""
"null","<div style=""font-size:60px;""> </div>","null","fixation","html-keyboard-response","167","752261","0.0-6.0-0.23","2611301","co39517","norming","","","","","","",""
"null","../img/tt/496tt.jpg","null","mooney1","image-keyboard-response","168","755268","0.0-6.0-1.23","2611301","co39517","norming","","","","","","",""
"5300.23000000068","","","post_mooney1_questions","survey-likert","169","760571","0.0-6.0-2.23","2611301","co39517","norming","","","{""curiosity"":6,""confidence"":0}","[0,1]","../img/tt/496tt.jpg","",""
"662.3400000025285","","","recognition","survey-text","170","761243","0.0-6.0-3.23","2611301","co39517","norming","","","{""guess"":""""}","","../img/tt/496tt.jpg","",""
"null","../img/gs/496gs.jpg","null","reveal","image-keyboard-response","171","763245","0.0-6.0-4.23","2611301","co39517","norming","","","","","","",""
"null","../img/tt/496tt.jpg","null","mooney2","image-keyboard-response","172","765249","0.0-6.0-5.23","2611301","co39517","norming","","","","","","",""
"2407.7699999980396","","","post_reveal_questions","survey-likert","173","767659","0.0-6.0-6.23","2611301","co39517","norming","","","{""aha"":4}","[0]","../img/tt/496tt.jpg","",""
"null","<div style=""font-size:60px;""> </div>","null","fixation","html-keyboard-response","174","767867","0.0-6.0-0.24","2611301","co39517","norming","","","","","","",""
"null","../img/tt/1066tt.jpg","null","mooney1","image-keyboard-response","175","770873","0.0-6.0-1.24","2611301","co39517","norming","","","","","","",""
"5950.57000000088","","","post_mooney1_questions","survey-likert","176","776826","0.0-6.0-2.24","2611301","co39517","norming","","","{""curiosity"":4,""confidence"":5}","[0,1]","../img/tt/1066tt.jpg","",""
"1489.580000001355","","","recognition","survey-text","177","778322","0.0-6.0-3.24","2611301","co39517","norming","","","{""guess"":""bus""}","","../img/tt/1066tt.jpg","",""
"null","../img/gs/1066gs.jpg","null","reveal","image-keyboard-response","178","780329","0.0-6.0-4.24","2611301","co39517","norming","","","","","","",""
"null","../img/tt/1066tt.jpg","null","mooney2","image-keyboard-response","179","782335","0.0-6.0-5.24","2611301","co39517","norming","","","","","","",""
"2489.8050000045914","","","post_reveal_questions","survey-likert","180","784827","0.0-6.0-6.24","2611301","co39517","norming","","","{""aha"":1}","[0]","../img/tt/1066tt.jpg","",""
"null","<div style=""font-size:60px;""> </div>","null","fixation","html-keyboard-response","181","785034","0.0-6.0-0.25","2611301","co39517","norming","","","","","","",""
"null","../img/tt/1118tt.jpg","null","mooney1","image-keyboard-response","182","788037","0.0-6.0-1.25","2611301","co39517","norming","","","","","","",""
"3169.2550000005867","","","post_mooney1_questions","survey-likert","183","791209","0.0-6.0-2.25","2611301","co39517","norming","","","{""curiosity"":5,""confidence"":1}","[0,1]","../img/tt/1118tt.jpg","",""
"2097.2550000005867","","","recognition","survey-text","184","793315","0.0-6.0-3.25","2611301","co39517","norming","","","{""guess"":""car""}","","../img/tt/1118tt.jpg","",""
"null","../img/gs/1118gs.jpg","null","reveal","image-keyboard-response","185","795318","0.0-6.0-4.25","2611301","co39517","norming","","","","","","",""
"null","../img/tt/1118tt.jpg","null","mooney2","image-keyboard-response","186","797324","0.0-6.0-5.25","2611301","co39517","norming","","","","","","",""
"2836.5649999978486","","","post_reveal_questions","survey-likert","187","800163","0.0-6.0-6.25","2611301","co39517","norming","","","{""aha"":4}","[0]","../img/tt/1118tt.jpg","",""
"null","<div style=""font-size:60px;""> </div>","null","fixation","html-keyboard-response","188","800371","0.0-6.0-0.26","2611301","co39517","norming","","","","","","",""
"null","../img/tt/060tt.jpg","null","mooney1","image-keyboard-response","189","803375","0.0-6.0-1.26","2611301","co39517","norming","","","","","","",""
"4618.1799999976065","","","post_mooney1_questions","survey-likert","190","807996","0.0-6.0-2.26","2611301","co39517","norming","","","{""curiosity"":5,""confidence"":2}","[0,1]","../img/tt/060tt.jpg","",""
"1504.9199999993434","","","recognition","survey-text","191","809511","0.0-6.0-3.26","2611301","co39517","norming","","","{""guess"":""duck""}","","../img/tt/060tt.jpg","",""
"null","../img/gs/060gs.jpg","null","reveal","image-keyboard-response","192","811515","0.0-6.0-4.26","2611301","co39517","norming","","","","","","",""
"null","../img/tt/060tt.jpg","null","mooney2","image-keyboard-response","193","813517","0.0-6.0-5.26","2611301","co39517","norming","","","","","","",""
"2716.3650000002235","","","post_reveal_questions","survey-likert","194","816236","0.0-6.0-6.26","2611301","co39517","norming","","","{""aha"":4}","[0]","../img/tt/060tt.jpg","",""
"null","<div style=""font-size:60px;""> </div>","null","fixation","html-keyboard-response","195","816445","0.0-6.0-0.27","2611301","co39517","norming","","","","","","",""
"null","../img/tt/1260tt.jpg","null","mooney1","image-keyboard-response","196","819452","0.0-6.0-1.27","2611301","co39517","norming","","","","","","",""
"3372.8699999991804","","","post_mooney1_questions","survey-likert","197","822827","0.0-6.0-2.27","2611301","co39517","norming","","","{""curiosity"":6,""confidence"":1}","[0,1]","../img/tt/1260tt.jpg","",""
"2137.3899999962887","","","recognition","survey-text","198","824974","0.0-6.0-3.27","2611301","co39517","norming","","","{""guess"":""crocodile""}","","../img/tt/1260tt.jpg","",""
"null","../img/gs/1260gs.jpg","null","reveal","image-keyboard-response","199","826977","0.0-6.0-4.27","2611301","co39517","norming","","","","","","",""
"null","../img/tt/1260tt.jpg","null","mooney2","image-keyboard-response","200","828982","0.0-6.0-5.27","2611301","co39517","norming","","","","","","",""
"2420.849999994971","","","post_reveal_questions","survey-likert","201","831405","0.0-6.0-6.27","2611301","co39517","norming","","","{""aha"":4}","[0]","../img/tt/1260tt.jpg","",""
"null","<div style=""font-size:60px;""> </div>","null","fixation","html-keyboard-response","202","831616","0.0-6.0-0.28","2611301","co39517","norming","","","","","","",""
"null","../img/tt/1211tt.jpg","null","mooney1","image-keyboard-response","203","834619","0.0-6.0-1.28","2611301","co39517","norming","","","","","","",""
"3939.774999998859","","","post_mooney1_questions","survey-likert","204","838561","0.0-6.0-2.28","2611301","co39517","norming","","","{""curiosity"":5,""confidence"":2}","[0,1]","../img/tt/1211tt.jpg","",""
"1381.0749999973923","","","recognition","survey-text","205","839951","0.0-6.0-3.28","2611301","co39517","norming","","","{""guess"":""river""}","","../img/tt/1211tt.jpg","",""
"null","../img/gs/1211gs.jpg","null","reveal","image-keyboard-response","206","841953","0.0-6.0-4.28","2611301","co39517","norming","","","","","","",""
"null","../img/tt/1211tt.jpg","null","mooney2","image-keyboard-response","207","843955","0.0-6.0-5.28","2611301","co39517","norming","","","","","","",""
"2665.8599999936996","","","post_reveal_questions","survey-likert","208","846623","0.0-6.0-6.28","2611301","co39517","norming","","","{""aha"":4}","[0]","../img/tt/1211tt.jpg","",""
"null","<div style=""font-size:60px;""> </div>","null","fixation","html-keyboard-response","209","846834","0.0-6.0-0.29","2611301","co39517","norming","","","","","","",""
"null","../img/tt/296tt.jpg","null","mooney1","image-keyboard-response","210","849836","0.0-6.0-1.29","2611301","co39517","norming","","","","","","",""
"4024.8850000061793","","","post_mooney1_questions","survey-likert","211","853864","0.0-6.0-2.29","2611301","co39517","norming","","","{""curiosity"":5,""confidence"":2}","[0,1]","../img/tt/296tt.jpg","",""
"3882.5549999965588","","","recognition","survey-text","212","857756","0.0-6.0-3.29","2611301","co39517","norming","","","{""guess"":""hospitalbed""}","","../img/tt/296tt.jpg","",""
"null","../img/gs/296gs.jpg","null","reveal","image-keyboard-response","213","859762","0.0-6.0-4.29","2611301","co39517","norming","","","","","","",""
"null","../img/tt/296tt.jpg","null","mooney2","image-keyboard-response","214","861768","0.0-6.0-5.29","2611301","co39517","norming","","","","","","",""
"4777.094999997644","","","post_reveal_questions","survey-likert","215","866548","0.0-6.0-6.29","2611301","co39517","norming","","","{""aha"":2}","[0]","../img/tt/296tt.jpg","",""
"null","<div style=""font-size:60px;""> </div>","null","fixation","html-keyboard-response","216","866758","0.0-6.0-0.30","2611301","co39517","norming","","","","","","",""
"null","../img/tt/056tt.jpg","null","mooney1","image-keyboard-response","217","869763","0.0-6.0-1.30","2611301","co39517","norming","","","","","","",""
"3473.68999999878","","","post_mooney1_questions","survey-likert","218","873239","0.0-6.0-2.30","2611301","co39517","norming","","","{""curiosity"":5,""confidence"":2}","[0,1]","../img/tt/056tt.jpg","",""
"2435.649999999441","","","recognition","survey-text","219","875685","0.0-6.0-3.30","2611301","co39517","norming","","","{""guess"":""basketball""}","","../img/tt/056tt.jpg","",""
"null","../img/gs/056gs.jpg","null","reveal","image-keyboard-response","220","877689","0.0-6.0-4.30","2611301","co39517","norming","","","","","","",""
"null","../img/tt/056tt.jpg","null","mooney2","image-keyboard-response","221","879695","0.0-6.0-5.30","2611301","co39517","norming","","","","","","",""
"3875.5349999992177","","","post_reveal_questions","survey-likert","222","883573","0.0-6.0-6.30","2611301","co39517","norming","","","{""aha"":5}","[0]","../img/tt/056tt.jpg","",""
"null","<div style=""font-size:60px;""> </div>","null","fixation","html-keyboard-response","223","883784","0.0-6.0-0.31","2611301","co39517","norming","","","","","","",""
"null","../img/tt/307tt.jpg","null","mooney1","image-keyboard-response","224","886791","0.0-6.0-1.31","2611301","co39517","norming","","","","","","",""
"4835.42500000482","","","post_mooney1_questions","survey-likert","225","891629","0.0-6.0-2.31","2611301","co39517","norming","","","{""curiosity"":5,""confidence"":2}","[0,1]","../img/tt/307tt.jpg","",""
"1467.8649999987101","","","recognition","survey-text","226","893106","0.0-6.0-3.31","2611301","co39517","norming","","","{""guess"":""slug""}","","../img/tt/307tt.jpg","",""
"null","../img/gs/307gs.jpg","null","reveal","image-keyboard-response","227","895109","0.0-6.0-4.31","2611301","co39517","norming","","","","","","",""
"null","../img/tt/307tt.jpg","null","mooney2","image-keyboard-response","228","897112","0.0-6.0-5.31","2611301","co39517","norming","","","","","","",""
"2424.8000000006286","","","post_reveal_questions","survey-likert","229","899539","0.0-6.0-6.31","2611301","co39517","norming","","","{""aha"":5}","[0]","../img/tt/307tt.jpg","",""
"null","<div style=""font-size:60px;""> </div>","null","fixation","html-keyboard-response","230","899751","0.0-6.0-0.32","2611301","co39517","norming","","","","","","",""
"null","../img/tt/1033tt.jpg","null","mooney1","image-keyboard-response","231","902754","0.0-6.0-1.32","2611301","co39517","norming","","","","","","",""
"3910.2400000046473","","","post_mooney1_questions","survey-likert","232","906667","0.0-6.0-2.32","2611301","co39517","norming","","","{""curiosity"":5,""confidence"":6}","[0,1]","../img/tt/1033tt.jpg","",""
"7447.819999994012","","","recognition","survey-text","233","914124","0.0-6.0-3.32","2611301","co39517","norming","","","{""guess"":""baseball batter""}","","../img/tt/1033tt.jpg","",""
"null","../img/gs/1033gs.jpg","null","reveal","image-keyboard-response","234","916131","0.0-6.0-4.32","2611301","co39517","norming","","","","","","",""
"null","../img/tt/1033tt.jpg","null","mooney2","image-keyboard-response","235","918134","0.0-6.0-5.32","2611301","co39517","norming","","","","","","",""
"2966.7149999949615","","","post_reveal_questions","survey-likert","236","921103","0.0-6.0-6.32","2611301","co39517","norming","","","{""aha"":0}","[0]","../img/tt/1033tt.jpg","",""
"null","<div style=""font-size:60px;""> </div>","null","fixation","html-keyboard-response","237","921315","0.0-6.0-0.33","2611301","co39517","norming","","","","","","",""
"null","../img/tt/036tt.jpg","null","mooney1","image-keyboard-response","238","924319","0.0-6.0-1.33","2611301","co39517","norming","","","","","","",""
"3442.7399999985937","","","post_mooney1_questions","survey-likert","239","927763","0.0-6.0-2.33","2611301","co39517","norming","","","{""curiosity"":5,""confidence"":2}","[0,1]","../img/tt/036tt.jpg","",""
"23121.709999999497","","","recognition","survey-text","240","950895","0.0-6.0-3.33","2611301","co39517","norming","","","{""guess"":""lightning""}","","../img/tt/036tt.jpg","",""
"null","../img/gs/036gs.jpg","null","reveal","image-keyboard-response","241","952899","0.0-6.0-4.33","2611301","co39517","norming","","","","","","",""
"null","../img/tt/036tt.jpg","null","mooney2","image-keyboard-response","242","954908","0.0-6.0-5.33","2611301","co39517","norming","","","","","","",""
"3541.645000004908","","","post_reveal_questions","survey-likert","243","958451","0.0-6.0-6.33","2611301","co39517","norming","","","{""aha"":5}","[0]","../img/tt/036tt.jpg","",""
"null","<div style=""font-size:60px;""> </div>","null","fixation","html-keyboard-response","244","958662","0.0-6.0-0.34","2611301","co39517","norming","","","","","","",""
"null","../img/tt/378tt.jpg","null","mooney1","image-keyboard-response","245","961669","0.0-6.0-1.34","2611301","co39517","norming","","","","","","",""
"5671.870000005467","","","post_mooney1_questions","survey-likert","246","967343","0.0-6.0-2.34","2611301","co39517","norming","","","{""curiosity"":6,""confidence"":0}","[0,1]","../img/tt/378tt.jpg","",""
"959.689999995986","","","recognition","survey-text","247","968312","0.0-6.0-3.34","2611301","co39517","norming","","","{""guess"":""""}","","../img/tt/378tt.jpg","",""
"null","../img/gs/378gs.jpg","null","reveal","image-keyboard-response","248","970315","0.0-6.0-4.34","2611301","co39517","norming","","","","","","",""
"null","../img/tt/378tt.jpg","null","mooney2","image-keyboard-response","249","972318","0.0-6.0-5.34","2611301","co39517","norming","","","","","","",""
"2127.274999998859","","","post_reveal_questions","survey-likert","250","974447","0.0-6.0-6.34","2611301","co39517","norming","","","{""aha"":4}","[0]","../img/tt/378tt.jpg","",""
"null","<div style=""font-size:60px;""> </div>","null","fixation","html-keyboard-response","251","974656","0.0-6.0-0.35","2611301","co39517","norming","","","","","","",""
"null","../img/tt/1309tt.jpg","null","mooney1","image-keyboard-response","252","977660","0.0-6.0-1.35","2611301","co39517","norming","","","","","","",""
"3736.6549999933923","","","post_mooney1_questions","survey-likert","253","981399","0.0-6.0-2.35","2611301","co39517","norming","","","{""curiosity"":6,""confidence"":3}","[0,1]","../img/tt/1309tt.jpg","",""
"1799.6050000000978","","","recognition","survey-text","254","983209","0.0-6.0-3.35","2611301","co39517","norming","","","{""guess"":""woods""}","","../img/tt/1309tt.jpg","",""
"null","../img/gs/1309gs.jpg","null","reveal","image-keyboard-response","255","985214","0.0-6.0-4.35","2611301","co39517","norming","","","","","","",""
"null","../img/tt/1309tt.jpg","null","mooney2","image-keyboard-response","256","987218","0.0-6.0-5.35","2611301","co39517","norming","","","","","","",""
"2519.8349999992643","","","post_reveal_questions","survey-likert","257","989740","0.0-6.0-6.35","2611301","co39517","norming","","","{""aha"":4}","[0]","../img/tt/1309tt.jpg","",""
"null","<div style=""font-size:60px;""> </div>","null","fixation","html-keyboard-response","258","989950","0.0-6.0-0.36","2611301","co39517","norming","","","","","","",""
"null","../img/tt/013tt.jpg","null","mooney1","image-keyboard-response","259","992954","0.0-6.0-1.36","2611301","co39517","norming","","","","","","",""
"5739.195000001928","","","post_mooney1_questions","survey-likert","260","998696","0.0-6.0-2.36","2611301","co39517","norming","","","{""curiosity"":6,""confidence"":0}","[0,1]","../img/tt/013tt.jpg","",""
"2840.904999997234","","","recognition","survey-text","261","1001546","0.0-6.0-3.36","2611301","co39517","norming","","","{""guess"":""man""}","","../img/tt/013tt.jpg","",""
"null","../img/gs/013gs.jpg","null","reveal","image-keyboard-response","262","1003553","0.0-6.0-4.36","2611301","co39517","norming","","","","","","",""
"null","../img/tt/013tt.jpg","null","mooney2","image-keyboard-response","263","1005557","0.0-6.0-5.36","2611301","co39517","norming","","","","","","",""
"2420.7650000026915","","","post_reveal_questions","survey-likert","264","1007979","0.0-6.0-6.36","2611301","co39517","norming","","","{""aha"":4}","[0]","../img/tt/013tt.jpg","",""
"null","<div style=""font-size:60px;""> </div>","null","fixation","html-keyboard-response","265","1008184","0.0-6.0-0.37","2611301","co39517","norming","","","","","","",""
"null","../img/tt/1097tt.jpg","null","mooney1","image-keyboard-response","266","1011189","0.0-6.0-1.37","2611301","co39517","norming","","","","","","",""
"4620.604999996489","","","post_mooney1_questions","survey-likert","267","1015812","0.0-6.0-2.37","2611301","co39517","norming","","","{""curiosity"":6,""confidence"":3}","[0,1]","../img/tt/1097tt.jpg","",""
"11417.45500000252","","","recognition","survey-text","268","1027240","0.0-6.0-3.37","2611301","co39517","norming","","","{""guess"":""kayak man ""}","","../img/tt/1097tt.jpg","",""
"null","../img/gs/1097gs.jpg","null","reveal","image-keyboard-response","269","1029242","0.0-6.0-4.37","2611301","co39517","norming","","","","","","",""
"null","../img/tt/1097tt.jpg","null","mooney2","image-keyboard-response","270","1031243","0.0-6.0-5.37","2611301","co39517","norming","","","","","","",""
"3853.080000000773","","","post_reveal_questions","survey-likert","271","1035099","0.0-6.0-6.37","2611301","co39517","norming","","","{""aha"":3}","[0]","../img/tt/1097tt.jpg","",""
"null","<div style=""font-size:60px;""> </div>","null","fixation","html-keyboard-response","272","1035312","0.0-6.0-0.38","2611301","co39517","norming","","","","","","",""
"null","../img/tt/1142tt.jpg","null","mooney1","image-keyboard-response","273","1038314","0.0-6.0-1.38","2611301","co39517","norming","","","","","","",""
"4028.890000001411","","","post_mooney1_questions","survey-likert","274","1042346","0.0-6.0-2.38","2611301","co39517","norming","","","{""curiosity"":5,""confidence"":3}","[0,1]","../img/tt/1142tt.jpg","",""
"3005.4600000004284","","","recognition","survey-text","275","1045361","0.0-6.0-3.38","2611301","co39517","norming","","","{""guess"":""cheerleader""}","","../img/tt/1142tt.jpg","",""
"null","../img/gs/1142gs.jpg","null","reveal","image-keyboard-response","276","1047366","0.0-6.0-4.38","2611301","co39517","norming","","","","","","",""
"null","../img/tt/1142tt.jpg","null","mooney2","image-keyboard-response","277","1049369","0.0-6.0-5.38","2611301","co39517","norming","","","","","","",""
"2244.8999999978114","","","post_reveal_questions","survey-likert","278","1051616","0.0-6.0-6.38","2611301","co39517","norming","","","{""aha"":3}","[0]","../img/tt/1142tt.jpg","",""
"null","<div style=""font-size:60px;""> </div>","null","fixation","html-keyboard-response","279","1051826","0.0-6.0-0.39","2611301","co39517","norming","","","","","","",""
"null","../img/tt/515tt.jpg","null","mooney1","image-keyboard-response","280","1054832","0.0-6.0-1.39","2611301","co39517","norming","","","","","","",""
"5175.804999998771","","","post_mooney1_questions","survey-likert","281","1060011","0.0-6.0-2.39","2611301","co39517","norming","","","{""curiosity"":5,""confidence"":2}","[0,1]","../img/tt/515tt.jpg","",""
"1632.0649999980815","","","recognition","survey-text","282","1061652","0.0-6.0-3.39","2611301","co39517","norming","","","{""guess"":""book""}","","../img/tt/515tt.jpg","",""
"null","../img/gs/515gs.jpg","null","reveal","image-keyboard-response","283","1063658","0.0-6.0-4.39","2611301","co39517","norming","","","","","","",""
"null","../img/tt/515tt.jpg","null","mooney2","image-keyboard-response","284","1065660","0.0-6.0-5.39","2611301","co39517","norming","","","","","","",""
"2423.434999997029","","","post_reveal_questions","survey-likert","285","1068085","0.0-6.0-6.39","2611301","co39517","norming","","","{""aha"":4}","[0]","../img/tt/515tt.jpg","",""
"null","<div style=""font-size:60px;""> </div>","null","fixation","html-keyboard-response","286","1068294","0.0-6.0-0.40","2611301","co39517","norming","","","","","","",""
"null","../img/tt/1087tt.jpg","null","mooney1","image-keyboard-response","287","1071297","0.0-6.0-1.40","2611301","co39517","norming","","","","","","",""
"3697.019999999786","","","post_mooney1_questions","survey-likert","288","1074996","0.0-6.0-2.40","2611301","co39517","norming","","","{""curiosity"":5,""confidence"":2}","[0,1]","../img/tt/1087tt.jpg","",""
"1865.525000001071","","","recognition","survey-text","289","1076872","0.0-6.0-3.40","2611301","co39517","norming","","","{""guess"":""yawning""}","","../img/tt/1087tt.jpg","",""
"null","../img/gs/1087gs.jpg","null","reveal","image-keyboard-response","290","1078877","0.0-6.0-4.40","2611301","co39517","norming","","","","","","",""
"null","../img/tt/1087tt.jpg","null","mooney2","image-keyboard-response","291","1080880","0.0-6.0-5.40","2611301","co39517","norming","","","","","","",""
"3694.6949999984354","","","post_reveal_questions","survey-likert","292","1084577","0.0-6.0-6.40","2611301","co39517","norming","","","{""aha"":4}","[0]","../img/tt/1087tt.jpg","",""
"null","<div style=""font-size:60px;""> </div>","null","fixation","html-keyboard-response","293","1084789","0.0-6.0-0.41","2611301","co39517","norming","","","","","","",""
"null","../img/tt/1217tt.jpg","null","mooney1","image-keyboard-response","294","1087796","0.0-6.0-1.41","2611301","co39517","norming","","","","","","",""
"4376.870000000112","","","post_mooney1_questions","survey-likert","295","1092175","0.0-6.0-2.41","2611301","co39517","norming","","","{""curiosity"":5,""confidence"":0}","[0,1]","../img/tt/1217tt.jpg","",""
"3162.77499999688","","","recognition","survey-text","296","1095347","0.0-6.0-3.41","2611301","co39517","norming","","","{""guess"":""herd""}","","../img/tt/1217tt.jpg","",""
"null","../img/gs/1217gs.jpg","null","reveal","image-keyboard-response","297","1097351","0.0-6.0-4.41","2611301","co39517","norming","","","","","","",""
"null","../img/tt/1217tt.jpg","null","mooney2","image-keyboard-response","298","1099356","0.0-6.0-5.41","2611301","co39517","norming","","","","","","",""
"2818.1600000024773","","","post_reveal_questions","survey-likert","299","1102175","0.0-6.0-6.41","2611301","co39517","norming","","","{""aha"":5}","[0]","../img/tt/1217tt.jpg","",""
"null","<div style=""font-size:60px;""> </div>","null","fixation","html-keyboard-response","300","1102382","0.0-6.0-0.42","2611301","co39517","norming","","","","","","",""
"null","../img/tt/1002tt.jpg","null","mooney1","image-keyboard-response","301","1105384","0.0-6.0-1.42","2611301","co39517","norming","","","","","","",""
"5532.184999996331","","","post_mooney1_questions","survey-likert","302","1110919","0.0-6.0-2.42","2611301","co39517","norming","","","{""curiosity"":5,""confidence"":2}","[0,1]","../img/tt/1002tt.jpg","",""
"2173.9850000012666","","","recognition","survey-text","303","1113102","0.0-6.0-3.42","2611301","co39517","norming","","","{""guess"":""woods man""}","","../img/tt/1002tt.jpg","",""
"null","../img/gs/1002gs.jpg","null","reveal","image-keyboard-response","304","1115110","0.0-6.0-4.42","2611301","co39517","norming","","","","","","",""
"null","../img/tt/1002tt.jpg","null","mooney2","image-keyboard-response","305","1117116","0.0-6.0-5.42","2611301","co39517","norming","","","","","","",""
"1823.700000000652","","","post_reveal_questions","survey-likert","306","1118942","0.0-6.0-6.42","2611301","co39517","norming","","","{""aha"":4}","[0]","../img/tt/1002tt.jpg","",""
"null","<div style=""font-size:60px;""> </div>","null","fixation","html-keyboard-response","307","1119153","0.0-6.0-0.43","2611301","co39517","norming","","","","","","",""
"null","../img/tt/1224tt.jpg","null","mooney1","image-keyboard-response","308","1122162","0.0-6.0-1.43","2611301","co39517","norming","","","","","","",""
"2862.64500000095","","","post_mooney1_questions","survey-likert","309","1125026","0.0-6.0-2.43","2611301","co39517","norming","","","{""curiosity"":5,""confidence"":2}","[0,1]","../img/tt/1224tt.jpg","",""
"6430.3100000033155","","","recognition","survey-text","310","1131467","0.0-6.0-3.43","2611301","co39517","norming","","","{""guess"":""singing woman""}","","../img/tt/1224tt.jpg","",""
"null","../img/gs/1224gs.jpg","null","reveal","image-keyboard-response","311","1133471","0.0-6.0-4.43","2611301","co39517","norming","","","","","","",""
"null","../img/tt/1224tt.jpg","null","mooney2","image-keyboard-response","312","1135472","0.0-6.0-5.43","2611301","co39517","norming","","","","","","",""
"2552.4550000044983","","","post_reveal_questions","survey-likert","313","1138029","0.0-6.0-6.43","2611301","co39517","norming","","","{""aha"":4}","[0]","../img/tt/1224tt.jpg","",""
"null","<div style=""font-size:60px;""> </div>","null","fixation","html-keyboard-response","314","1138236","0.0-6.0-0.44","2611301","co39517","norming","","","","","","",""
"null","../img/tt/1243tt.jpg","null","mooney1","image-keyboard-response","315","1141242","0.0-6.0-1.44","2611301","co39517","norming","","","","","","",""
"3855.1050000023097","","","post_mooney1_questions","survey-likert","316","1145099","0.0-6.0-2.44","2611301","co39517","norming","","","{""curiosity"":5,""confidence"":2}","[0,1]","../img/tt/1243tt.jpg","",""
"1497.3450000034645","","","recognition","survey-text","317","1146606","0.0-6.0-3.44","2611301","co39517","norming","","","{""guess"":""shower""}","","../img/tt/1243tt.jpg","",""
"null","../img/gs/1243gs.jpg","null","reveal","image-keyboard-response","318","1148609","0.0-6.0-4.44","2611301","co39517","norming","","","","","","",""
"null","../img/tt/1243tt.jpg","null","mooney2","image-keyboard-response","319","1150611","0.0-6.0-5.44","2611301","co39517","norming","","","","","","",""
"2060.5349999968894","","","post_reveal_questions","survey-likert","320","1152674","0.0-6.0-6.44","2611301","co39517","norming","","","{""aha"":4}","[0]","../img/tt/1243tt.jpg","",""
"null","<div style=""font-size:60px;""> </div>","null","fixation","html-keyboard-response","321","1152887","0.0-6.0-0.45","2611301","co39517","norming","","","","","","",""
"null","../img/tt/599tt.jpg","null","mooney1","image-keyboard-response","322","1155889","0.0-6.0-1.45","2611301","co39517","norming","","","","","","",""
"4616.3850000011735","","","post_mooney1_questions","survey-likert","323","1160507","0.0-6.0-2.45","2611301","co39517","norming","","","{""curiosity"":5,""confidence"":2}","[0,1]","../img/tt/599tt.jpg","",""
"1461.1850000000559","","","recognition","survey-text","324","1161978","0.0-6.0-3.45","2611301","co39517","norming","","","{""guess"":""mask""}","","../img/tt/599tt.jpg","",""
"null","../img/gs/599gs.jpg","null","reveal","image-keyboard-response","325","1163985","0.0-6.0-4.45","2611301","co39517","norming","","","","","","",""
"null","../img/tt/599tt.jpg","null","mooney2","image-keyboard-response","326","1165991","0.0-6.0-5.45","2611301","co39517","norming","","","","","","",""
"3818.725000004517","","","post_reveal_questions","survey-likert","327","1169813","0.0-6.0-6.45","2611301","co39517","norming","","","{""aha"":4}","[0]","../img/tt/599tt.jpg","",""
"null","<div style=""font-size:60px;""> </div>","null","fixation","html-keyboard-response","328","1170024","0.0-6.0-0.46","2611301","co39517","norming","","","","","","",""
"null","../img/tt/1130tt.jpg","null","mooney1","image-keyboard-response","329","1173030","0.0-6.0-1.46","2611301","co39517","norming","","","","","","",""
"3760.5699999984354","","","post_mooney1_questions","survey-likert","330","1176793","0.0-6.0-2.46","2611301","co39517","norming","","","{""curiosity"":5,""confidence"":1}","[0,1]","../img/tt/1130tt.jpg","",""
"1391.3949999986216","","","recognition","survey-text","331","1178196","0.0-6.0-3.46","2611301","co39517","norming","","","{""guess"":""panda""}","","../img/tt/1130tt.jpg","",""
"null","../img/gs/1130gs.jpg","null","reveal","image-keyboard-response","332","1180200","0.0-6.0-4.46","2611301","co39517","norming","","","","","","",""
"null","../img/tt/1130tt.jpg","null","mooney2","image-keyboard-response","333","1182206","0.0-6.0-5.46","2611301","co39517","norming","","","","","","",""
"2541.0499999998137","","","post_reveal_questions","survey-likert","334","1184750","0.0-6.0-6.46","2611301","co39517","norming","","","{""aha"":4}","[0]","../img/tt/1130tt.jpg","",""
"null","<div style=""font-size:60px;""> </div>","null","fixation","html-keyboard-response","335","1184961","0.0-6.0-0.47","2611301","co39517","norming","","","","","","",""
"null","../img/tt/1146tt.jpg","null","mooney1","image-keyboard-response","336","1187967","0.0-6.0-1.47","2611301","co39517","norming","","","","","","",""
"2897.6049999983516","","","post_mooney1_questions","survey-likert","337","1190867","0.0-6.0-2.47","2611301","co39517","norming","","","{""curiosity"":5,""confidence"":2}","[0,1]","../img/tt/1146tt.jpg","",""
"1718.710000001127","","","recognition","survey-text","338","1192596","0.0-6.0-3.47","2611301","co39517","norming","","","{""guess"":""stairs""}","","../img/tt/1146tt.jpg","",""
"null","../img/gs/1146gs.jpg","null","reveal","image-keyboard-response","339","1194598","0.0-6.0-4.47","2611301","co39517","norming","","","","","","",""
"null","../img/tt/1146tt.jpg","null","mooney2","image-keyboard-response","340","1196603","0.0-6.0-5.47","2611301","co39517","norming","","","","","","",""
"3467.225000000326","","","post_reveal_questions","survey-likert","341","1200073","0.0-6.0-6.47","2611301","co39517","norming","","","{""aha"":5}","[0]","../img/tt/1146tt.jpg","",""
"null","<div style=""font-size:60px;""> </div>","null","fixation","html-keyboard-response","342","1200285","0.0-6.0-0.48","2611301","co39517","norming","","","","","","",""
"null","../img/tt/1048tt.jpg","null","mooney1","image-keyboard-response","343","1203287","0.0-6.0-1.48","2611301","co39517","norming","","","","","","",""
"4052.8049999992363","","","post_mooney1_questions","survey-likert","344","1207342","0.0-6.0-2.48","2611301","co39517","norming","","","{""curiosity"":5,""confidence"":2}","[0,1]","../img/tt/1048tt.jpg","",""
"2791.790000003064","","","recognition","survey-text","345","1210144","0.0-6.0-3.48","2611301","co39517","norming","","","{""guess"":""woods""}","","../img/tt/1048tt.jpg","",""
"null","../img/gs/1048gs.jpg","null","reveal","image-keyboard-response","346","1212150","0.0-6.0-4.48","2611301","co39517","norming","","","","","","",""
"null","../img/tt/1048tt.jpg","null","mooney2","image-keyboard-response","347","1214154","0.0-6.0-5.48","2611301","co39517","norming","","","","","","",""
"3253.205000001006","","","post_reveal_questions","survey-likert","348","1217409","0.0-6.0-6.48","2611301","co39517","norming","","","{""aha"":3}","[0]","../img/tt/1048tt.jpg","",""
"null","<div style=""font-size:60px;""> </div>","null","fixation","html-keyboard-response","349","1217622","0.0-6.0-0.49","2611301","co39517","norming","","","","","","",""
"null","../img/tt/1089tt.jpg","null","mooney1","image-keyboard-response","350","1220624","0.0-6.0-1.49","2611301","co39517","norming","","","","","","",""
"5334.790000000736","","","post_mooney1_questions","survey-likert","351","1225964","0.0-6.0-2.49","2611301","co39517","norming","","","{""curiosity"":5,""confidence"":2}","[0,1]","../img/tt/1089tt.jpg","",""
"20052.589999999385","","","recognition","survey-text","352","1246033","0.0-6.0-3.49","2611301","co39517","norming","","","{""guess"":""carwash  rack""}","","../img/tt/1089tt.jpg","",""
"null","../img/gs/1089gs.jpg","null","reveal","image-keyboard-response","353","1248039","0.0-6.0-4.49","2611301","co39517","norming","","","","","","",""
"null","../img/tt/1089tt.jpg","null","mooney2","image-keyboard-response","354","1250040","0.0-6.0-5.49","2611301","co39517","norming","","","","","","",""
"1988.0600000033155","","","post_reveal_questions","survey-likert","355","1252031","0.0-6.0-6.49","2611301","co39517","norming","","","{""aha"":4}","[0]","../img/tt/1089tt.jpg","",""
"null","<div style=""font-size:60px;""> </div>","null","fixation","html-keyboard-response","356","1252243","0.0-6.0-0.50","2611301","co39517","norming","","","","","","",""
"null","../img/tt/580tt.jpg","null","mooney1","image-keyboard-response","357","1255247","0.0-6.0-1.50","2611301","co39517","norming","","","","","","",""
"2702.7499999967404","","","post_mooney1_questions","survey-likert","358","1257953","0.0-6.0-2.50","2611301","co39517","norming","","","{""curiosity"":5,""confidence"":2}","[0,1]","../img/tt/580tt.jpg","",""
"1617.9849999970756","","","recognition","survey-text","359","1259580","0.0-6.0-3.50","2611301","co39517","norming","","","{""guess"":""old man""}","","../img/tt/580tt.jpg","",""
"null","../img/gs/580gs.jpg","null","reveal","image-keyboard-response","360","1261585","0.0-6.0-4.50","2611301","co39517","norming","","","","","","",""
"null","../img/tt/580tt.jpg","null","mooney2","image-keyboard-response","361","1263592","0.0-6.0-5.50","2611301","co39517","norming","","","","","","",""
"2325.6649999967776","","","post_reveal_questions","survey-likert","362","1265920","0.0-6.0-6.50","2611301","co39517","norming","","","{""aha"":4}","[0]","../img/tt/580tt.jpg","",""
"null","<div style=""font-size:60px;""> </div>","null","fixation","html-keyboard-response","363","1266126","0.0-6.0-0.51","2611301","co39517","norming","","","","","","",""
"null","../img/tt/1251tt.jpg","null","mooney1","image-keyboard-response","364","1269129","0.0-6.0-1.51","2611301","co39517","norming","","","","","","",""
"3078.580000001006","","","post_mooney1_questions","survey-likert","365","1272210","0.0-6.0-2.51","2611301","co39517","norming","","","{""curiosity"":5,""confidence"":2}","[0,1]","../img/tt/1251tt.jpg","",""
"5563.719999998342","","","recognition","survey-text","366","1277784","0.0-6.0-3.51","2611301","co39517","norming","","","{""guess"":""wire bear""}","","../img/tt/1251tt.jpg","",""
"null","../img/gs/1251gs.jpg","null","reveal","image-keyboard-response","367","1279789","0.0-6.0-4.51","2611301","co39517","norming","","","","","","",""
"null","../img/tt/1251tt.jpg","null","mooney2","image-keyboard-response","368","1281791","0.0-6.0-5.51","2611301","co39517","norming","","","","","","",""
"2426.0249999933876","","","post_reveal_questions","survey-likert","369","1284219","0.0-6.0-6.51","2611301","co39517","norming","","","{""aha"":1}","[0]","../img/tt/1251tt.jpg","",""
"null","<div style=""font-size:60px;""> </div>","null","fixation","html-keyboard-response","370","1284431","0.0-6.0-0.52","2611301","co39517","norming","","","","","","",""
"null","../img/tt/1247tt.jpg","null","mooney1","image-keyboard-response","371","1287434","0.0-6.0-1.52","2611301","co39517","norming","","","","","","",""
"3378.1699999962","","","post_mooney1_questions","survey-likert","372","1290815","0.0-6.0-2.52","2611301","co39517","norming","","","{""curiosity"":5,""confidence"":2}","[0,1]","../img/tt/1247tt.jpg","",""
"1696.51500000339","","","recognition","survey-text","373","1292521","0.0-6.0-3.52","2611301","co39517","norming","","","{""guess"":""flowers""}","","../img/tt/1247tt.jpg","",""
"null","../img/gs/1247gs.jpg","null","reveal","image-keyboard-response","374","1294528","0.0-6.0-4.52","2611301","co39517","norming","","","","","","",""
"null","../img/tt/1247tt.jpg","null","mooney2","image-keyboard-response","375","1296532","0.0-6.0-5.52","2611301","co39517","norming","","","","","","",""
"2547.9049999995623","","","post_reveal_questions","survey-likert","376","1299082","0.0-6.0-6.52","2611301","co39517","norming","","","{""aha"":4}","[0]","../img/tt/1247tt.jpg","",""
"null","<div style=""font-size:60px;""> </div>","null","fixation","html-keyboard-response","377","1299293","0.0-6.0-0.53","2611301","co39517","norming","","","","","","",""
"null","../img/tt/1262tt.jpg","null","mooney1","image-keyboard-response","378","1302296","0.0-6.0-1.53","2611301","co39517","norming","","","","","","",""
"3693.2749999975786","","","post_mooney1_questions","survey-likert","379","1305992","0.0-6.0-2.53","2611301","co39517","norming","","","{""curiosity"":5,""confidence"":2}","[0,1]","../img/tt/1262tt.jpg","",""
"3917.189999999944","","","recognition","survey-text","380","1309919","0.0-6.0-3.53","2611301","co39517","norming","","","{""guess"":""cage bird""}","","../img/tt/1262tt.jpg","",""
"null","../img/gs/1262gs.jpg","null","reveal","image-keyboard-response","381","1311925","0.0-6.0-4.53","2611301","co39517","norming","","","","","","",""
"null","../img/tt/1262tt.jpg","null","mooney2","image-keyboard-response","382","1313928","0.0-6.0-5.53","2611301","co39517","norming","","","","","","",""
"2215.850000000559","","","post_reveal_questions","survey-likert","383","1316146","0.0-6.0-6.53","2611301","co39517","norming","","","{""aha"":3}","[0]","../img/tt/1262tt.jpg","",""
"null","<div style=""font-size:60px;""> </div>","null","fixation","html-keyboard-response","384","1316356","0.0-6.0-0.54","2611301","co39517","norming","","","","","","",""
"null","../img/tt/1278tt.jpg","null","mooney1","image-keyboard-response","385","1319361","0.0-6.0-1.54","2611301","co39517","norming","","","","","","",""
"4662.575000002049","","","post_mooney1_questions","survey-likert","386","1324026","0.0-6.0-2.54","2611301","co39517","norming","","","{""curiosity"":5,""confidence"":2}","[0,1]","../img/tt/1278tt.jpg","",""
"2899.1249999962747","","","recognition","survey-text","387","1326935","0.0-6.0-3.54","2611301","co39517","norming","","","{""guess"":""angry man""}","","../img/tt/1278tt.jpg","",""
"null","../img/gs/1278gs.jpg","null","reveal","image-keyboard-response","388","1328941","0.0-6.0-4.54","2611301","co39517","norming","","","","","","",""
"null","../img/tt/1278tt.jpg","null","mooney2","image-keyboard-response","389","1330943","0.0-6.0-5.54","2611301","co39517","norming","","","","","","",""
"2996.1049999983516","","","post_reveal_questions","survey-likert","390","1333941","0.0-6.0-6.54","2611301","co39517","norming","","","{""aha"":4}","[0]","../img/tt/1278tt.jpg","",""
"null","<div style=""font-size:60px;""> </div>","null","fixation","html-keyboard-response","391","1334151","0.0-6.0-0.55","2611301","co39517","norming","","","","","","",""
"null","../img/tt/1043tt.jpg","null","mooney1","image-keyboard-response","392","1337155","0.0-6.0-1.55","2611301","co39517","norming","","","","","","",""
"4056.7749999973457","","","post_mooney1_questions","survey-likert","393","1341214","0.0-6.0-2.55","2611301","co39517","norming","","","{""curiosity"":5,""confidence"":3}","[0,1]","../img/tt/1043tt.jpg","",""
"2226.0749999985565","","","recognition","survey-text","394","1343450","0.0-6.0-3.55","2611301","co39517","norming","","","{""guess"":""bumper car""}","","../img/tt/1043tt.jpg","",""
"null","../img/gs/1043gs.jpg","null","reveal","image-keyboard-response","395","1345456","0.0-6.0-4.55","2611301","co39517","norming","","","","","","",""
"null","../img/tt/1043tt.jpg","null","mooney2","image-keyboard-response","396","1347458","0.0-6.0-5.55","2611301","co39517","norming","","","","","","",""
"4739.804999997374","","","post_reveal_questions","survey-likert","397","1352200","0.0-6.0-6.55","2611301","co39517","norming","","","{""aha"":4}","[0]","../img/tt/1043tt.jpg","",""
"null","<div style=""font-size:60px;""> </div>","null","fixation","html-keyboard-response","398","1352412","0.0-6.0-0.56","2611301","co39517","norming","","","","","","",""
"null","../img/tt/1126tt.jpg","null","mooney1","image-keyboard-response","399","1355417","0.0-6.0-1.56","2611301","co39517","norming","","","","","","",""
"3744.2800000063144","","","post_mooney1_questions","survey-likert","400","1359164","0.0-6.0-2.56","2611301","co39517","norming","","","{""curiosity"":5,""confidence"":2}","[0,1]","../img/tt/1126tt.jpg","",""
"2266.1300000036135","","","recognition","survey-text","401","1361439","0.0-6.0-3.56","2611301","co39517","norming","","","{""guess"":""mountain""}","","../img/tt/1126tt.jpg","",""
"null","../img/gs/1126gs.jpg","null","reveal","image-keyboard-response","402","1363445","0.0-6.0-4.56","2611301","co39517","norming","","","","","","",""
"null","../img/tt/1126tt.jpg","null","mooney2","image-keyboard-response","403","1365452","0.0-6.0-5.56","2611301","co39517","norming","","","","","","",""
"2764.3050000043586","","","post_reveal_questions","survey-likert","404","1368218","0.0-6.0-6.56","2611301","co39517","norming","","","{""aha"":2}","[0]","../img/tt/1126tt.jpg","",""
"null","<div style=""font-size:60px;""> </div>","null","fixation","html-keyboard-response","405","1368430","0.0-6.0-0.57","2611301","co39517","norming","","","","","","",""
"null","../img/tt/1044tt.jpg","null","mooney1","image-keyboard-response","406","1371435","0.0-6.0-1.57","2611301","co39517","norming","","","","","","",""
"4160.835000002524","","","post_mooney1_questions","survey-likert","407","1375599","0.0-6.0-2.57","2611301","co39517","norming","","","{""curiosity"":5,""confidence"":1}","[0,1]","../img/tt/1044tt.jpg","",""
"1204.255000004312","","","recognition","survey-text","408","1376813","0.0-6.0-3.57","2611301","co39517","norming","","","{""guess"":""hat""}","","../img/tt/1044tt.jpg","",""
"null","../img/gs/1044gs.jpg","null","reveal","image-keyboard-response","409","1378817","0.0-6.0-4.57","2611301","co39517","norming","","","","","","",""
"null","../img/tt/1044tt.jpg","null","mooney2","image-keyboard-response","410","1380818","0.0-6.0-5.57","2611301","co39517","norming","","","","","","",""
"1795.4549999996088","","","post_reveal_questions","survey-likert","411","1382616","0.0-6.0-6.57","2611301","co39517","norming","","","{""aha"":4}","[0]","../img/tt/1044tt.jpg","",""
"null","<div style=""font-size:60px;""> </div>","null","fixation","html-keyboard-response","412","1382823","0.0-6.0-0.58","2611301","co39517","norming","","","","","","",""
"null","../img/tt/468tt.jpg","null","mooney1","image-keyboard-response","413","1385827","0.0-6.0-1.58","2611301","co39517","norming","","","","","","",""
"3377.9799999974202","","","post_mooney1_questions","survey-likert","414","1389208","0.0-6.0-2.58","2611301","co39517","norming","","","{""curiosity"":5,""confidence"":2}","[0,1]","../img/tt/468tt.jpg","",""
"2793.43499999959","","","recognition","survey-text","415","1392011","0.0-6.0-3.58","2611301","co39517","norming","","","{""guess"":""chopsticks""}","","../img/tt/468tt.jpg","",""
"null","../img/gs/468gs.jpg","null","reveal","image-keyboard-response","416","1394016","0.0-6.0-4.58","2611301","co39517","norming","","","","","","",""
"null","../img/tt/468tt.jpg","null","mooney2","image-keyboard-response","417","1396019","0.0-6.0-5.58","2611301","co39517","norming","","","","","","",""
"1988.0850000043865","","","post_reveal_questions","survey-likert","418","1398009","0.0-6.0-6.58","2611301","co39517","norming","","","{""aha"":2}","[0]","../img/tt/468tt.jpg","",""
"null","<div style=""font-size:60px;""> </div>","null","fixation","html-keyboard-response","419","1398219","0.0-6.0-0.59","2611301","co39517","norming","","","","","","",""
"null","../img/tt/078tt.jpg","null","mooney1","image-keyboard-response","420","1401223","0.0-6.0-1.59","2611301","co39517","norming","","","","","","",""
"4309.820000002161","","","post_mooney1_questions","survey-likert","421","1405537","0.0-6.0-2.59","2611301","co39517","norming","","","{""curiosity"":5,""confidence"":3}","[0,1]","../img/tt/078tt.jpg","",""
"1733.2850000020117","","","recognition","survey-text","422","1407281","0.0-6.0-3.59","2611301","co39517","norming","","","{""guess"":""grapes""}","","../img/tt/078tt.jpg","",""
"null","../img/gs/078gs.jpg","null","reveal","image-keyboard-response","423","1409287","0.0-6.0-4.59","2611301","co39517","norming","","","","","","",""
"null","../img/tt/078tt.jpg","null","mooney2","image-keyboard-response","424","1411292","0.0-6.0-5.59","2611301","co39517","norming","","","","","","",""
"3266.775000003632","","","post_reveal_questions","survey-likert","425","1414560","0.0-6.0-6.59","2611301","co39517","norming","","","{""aha"":1}","[0]","../img/tt/078tt.jpg","",""
"null","<div style=""font-size:60px;""> </div>","null","fixation","html-keyboard-response","426","1414769","0.0-6.0-0.60","2611301","co39517","norming","","","","","","",""
"null","../img/tt/121tt.jpg","null","mooney1","image-keyboard-response","427","1417771","0.0-6.0-1.60","2611301","co39517","norming","","","","","","",""
"5013.26499999431","","","post_mooney1_questions","survey-likert","428","1422787","0.0-6.0-2.60","2611301","co39517","norming","","","{""curiosity"":5,""confidence"":2}","[0,1]","../img/tt/121tt.jpg","",""
"1449.4150000028312","","","recognition","survey-text","429","1424246","0.0-6.0-3.60","2611301","co39517","norming","","","{""guess"":""swimmer""}","","../img/tt/121tt.jpg","",""
"null","../img/gs/121gs.jpg","null","reveal","image-keyboard-response","430","1426253","0.0-6.0-4.60","2611301","co39517","norming","","","","","","",""
"null","../img/tt/121tt.jpg","null","mooney2","image-keyboard-response","431","1428255","0.0-6.0-5.60","2611301","co39517","norming","","","","","","",""
"2075.4699999962468","","","post_reveal_questions","survey-likert","432","1430332","0.0-6.0-6.60","2611301","co39517","norming","","","{""aha"":2}","[0]","../img/tt/121tt.jpg","",""
"null","<div style=""font-size:60px;""> </div>","null","fixation","html-keyboard-response","433","1430537","0.0-6.0-0.61","2611301","co39517","norming","","","","","","",""
"null","../img/tt/1188tt.jpg","null","mooney1","image-keyboard-response","434","1433540","0.0-6.0-1.61","2611301","co39517","norming","","","","","","",""
"3393.185000000987","","","post_mooney1_questions","survey-likert","435","1436938","0.0-6.0-2.61","2611301","co39517","norming","","","{""curiosity"":5,""confidence"":1}","[0,1]","../img/tt/1188tt.jpg","",""
"2742.8450000006706","","","recognition","survey-text","436","1439689","0.0-6.0-3.61","2611301","co39517","norming","","","{""guess"":""trenchcoat""}","","../img/tt/1188tt.jpg","",""
"null","../img/gs/1188gs.jpg","null","reveal","image-keyboard-response","437","1441694","0.0-6.0-4.61","2611301","co39517","norming","","","","","","",""
"null","../img/tt/1188tt.jpg","null","mooney2","image-keyboard-response","438","1443695","0.0-6.0-5.61","2611301","co39517","norming","","","","","","",""
"1864.4599999971688","","","post_reveal_questions","survey-likert","439","1445563","0.0-6.0-6.61","2611301","co39517","norming","","","{""aha"":3}","[0]","../img/tt/1188tt.jpg","",""
"null","<div style=""font-size:60px;""> </div>","null","fixation","html-keyboard-response","440","1445774","0.0-6.0-0.62","2611301","co39517","norming","","","","","","",""
"null","../img/tt/481tt.jpg","null","mooney1","image-keyboard-response","441","1448777","0.0-6.0-1.62","2611301","co39517","norming","","","","","","",""
"2500.674999995623","","","post_mooney1_questions","survey-likert","442","1451282","0.0-6.0-2.62","2611301","co39517","norming","","","{""curiosity"":6,""confidence"":0}","[0,1]","../img/tt/481tt.jpg","",""
"326.1950000014622","","","recognition","survey-text","443","1451614","0.0-6.0-3.62","2611301","co39517","norming","","","{""guess"":""""}","","../img/tt/481tt.jpg","",""
"null","../img/gs/481gs.jpg","null","reveal","image-keyboard-response","444","1453622","0.0-6.0-4.62","2611301","co39517","norming","","","","","","",""
"null","../img/tt/481tt.jpg","null","mooney2","image-keyboard-response","445","1455623","0.0-6.0-5.62","2611301","co39517","norming","","","","","","",""
"1446.2549999952316","","","post_reveal_questions","survey-likert","446","1457073","0.0-6.0-6.62","2611301","co39517","norming","","","{""aha"":4}","[0]","../img/tt/481tt.jpg","",""
"null","<div style=""font-size:60px;""> </div>","null","fixation","html-keyboard-response","447","1457285","0.0-6.0-0.63","2611301","co39517","norming","","","","","","",""
"null","../img/tt/353tt.jpg","null","mooney1","image-keyboard-response","448","1460287","0.0-6.0-1.63","2611301","co39517","norming","","","","","","",""
"2321.0800000014715","","","post_mooney1_questions","survey-likert","449","1462610","0.0-6.0-2.63","2611301","co39517","norming","","","{""curiosity"":6,""confidence"":2}","[0,1]","../img/tt/353tt.jpg","",""
"1908.9699999969453","","","recognition","survey-text","450","1464529","0.0-6.0-3.63","2611301","co39517","norming","","","{""guess"":""pinguin""}","","../img/tt/353tt.jpg","",""
"null","../img/gs/353gs.jpg","null","reveal","image-keyboard-response","451","1466531","0.0-6.0-4.63","2611301","co39517","norming","","","","","","",""
"null","../img/tt/353tt.jpg","null","mooney2","image-keyboard-response","452","1468533","0.0-6.0-5.63","2611301","co39517","norming","","","","","","",""
"2200.9350000007544","","","post_reveal_questions","survey-likert","453","1470736","0.0-6.0-6.63","2611301","co39517","norming","","","{""aha"":4}","[0]","../img/tt/353tt.jpg","",""
"null","<div style=""font-size:60px;""> </div>","null","fixation","html-keyboard-response","454","1470947","0.0-6.0-0.64","2611301","co39517","norming","","","","","","",""
"null","../img/tt/412tt.jpg","null","mooney1","image-keyboard-response","455","1473950","0.0-6.0-1.64","2611301","co39517","norming","","","","","","",""
"3615.669999999227","","","post_mooney1_questions","survey-likert","456","1477568","0.0-6.0-2.64","2611301","co39517","norming","","","{""curiosity"":5,""confidence"":2}","[0,1]","../img/tt/412tt.jpg","",""
"5275.529999999097","","","recognition","survey-text","457","1482853","0.0-6.0-3.64","2611301","co39517","norming","","","{""guess"":""alcohol""}","","../img/tt/412tt.jpg","",""
"null","../img/gs/412gs.jpg","null","reveal","image-keyboard-response","458","1484859","0.0-6.0-4.64","2611301","co39517","norming","","","","","","",""
"null","../img/tt/412tt.jpg","null","mooney2","image-keyboard-response","459","1486860","0.0-6.0-5.64","2611301","co39517","norming","","","","","","",""
"1982.1500000033993","","","post_reveal_questions","survey-likert","460","1488844","0.0-6.0-6.64","2611301","co39517","norming","","","{""aha"":4}","[0]","../img/tt/412tt.jpg","",""
"null","<div style=""font-size:60px;""> </div>","null","fixation","html-keyboard-response","461","1489057","0.0-6.0-0.65","2611301","co39517","norming","","","","","","",""
"null","../img/tt/049tt.jpg","null","mooney1","image-keyboard-response","462","1492059","0.0-6.0-1.65","2611301","co39517","norming","","","","","","",""
"2963.3800000010524","","","post_mooney1_questions","survey-likert","463","1495025","0.0-6.0-2.65","2611301","co39517","norming","","","{""curiosity"":5,""confidence"":2}","[0,1]","../img/tt/049tt.jpg","",""
"1650.8250000043772","","","recognition","survey-text","464","1496686","0.0-6.0-3.65","2611301","co39517","norming","","","{""guess"":""badger""}","","../img/tt/049tt.jpg","",""
"null","../img/gs/049gs.jpg","null","reveal","image-keyboard-response","465","1498693","0.0-6.0-4.65","2611301","co39517","norming","","","","","","",""
"null","../img/tt/049tt.jpg","null","mooney2","image-keyboard-response","466","1500694","0.0-6.0-5.65","2611301","co39517","norming","","","","","","",""
"1820.155000001425","","","post_reveal_questions","survey-likert","467","1502516","0.0-6.0-6.65","2611301","co39517","norming","","","{""aha"":4}","[0]","../img/tt/049tt.jpg","",""
"null","<div style=""font-size:60px;""> </div>","null","fixation","html-keyboard-response","468","1502727","0.0-6.0-0.66","2611301","co39517","norming","","","","","","",""
"null","../img/tt/497tt.jpg","null","mooney1","image-keyboard-response","469","1505734","0.0-6.0-1.66","2611301","co39517","norming","","","","","","",""
"3991.4299999945797","","","post_mooney1_questions","survey-likert","470","1509728","0.0-6.0-2.66","2611301","co39517","norming","","","{""curiosity"":5,""confidence"":2}","[0,1]","../img/tt/497tt.jpg","",""
"3613.980000001844","","","recognition","survey-text","471","1513352","0.0-6.0-3.66","2611301","co39517","norming","","","{""guess"":""caroussel""}","","../img/tt/497tt.jpg","",""
"null","../img/gs/497gs.jpg","null","reveal","image-keyboard-response","472","1515356","0.0-6.0-4.66","2611301","co39517","norming","","","","","","",""
"null","../img/tt/497tt.jpg","null","mooney2","image-keyboard-response","473","1517362","0.0-6.0-5.66","2611301","co39517","norming","","","","","","",""
"1919.5350000008475","","","post_reveal_questions","survey-likert","474","1519284","0.0-6.0-6.66","2611301","co39517","norming","","","{""aha"":3}","[0]","../img/tt/497tt.jpg","",""
"null","<div style=""font-size:60px;""> </div>","null","fixation","html-keyboard-response","475","1519492","0.0-6.0-0.67","2611301","co39517","norming","","","","","","",""
"null","../img/tt/477tt.jpg","null","mooney1","image-keyboard-response","476","1522497","0.0-6.0-1.67","2611301","co39517","norming","","","","","","",""
"2240.3449999983422","","","post_mooney1_questions","survey-likert","477","1524741","0.0-6.0-2.67","2611301","co39517","norming","","","{""curiosity"":6,""confidence"":0}","[0,1]","../img/tt/477tt.jpg","",""
"166.52999999490567","","","recognition","survey-text","478","1524916","0.0-6.0-3.67","2611301","co39517","norming","","","{""guess"":""""}","","../img/tt/477tt.jpg","",""
"null","../img/gs/477gs.jpg","null","reveal","image-keyboard-response","479","1526918","0.0-6.0-4.67","2611301","co39517","norming","","","","","","",""
"null","../img/tt/477tt.jpg","null","mooney2","image-keyboard-response","480","1528920","0.0-6.0-5.67","2611301","co39517","norming","","","","","","",""
"3506.604999995092","","","post_reveal_questions","survey-likert","481","1532429","0.0-6.0-6.67","2611301","co39517","norming","","","{""aha"":5}","[0]","../img/tt/477tt.jpg","",""
"null","<div style=""font-size:60px;""> </div>","null","fixation","html-keyboard-response","482","1532640","0.0-6.0-0.68","2611301","co39517","norming","","","","","","",""
"null","../img/tt/1070tt.jpg","null","mooney1","image-keyboard-response","483","1535645","0.0-6.0-1.68","2611301","co39517","norming","","","","","","",""
"4132.0899999991525","","","post_mooney1_questions","survey-likert","484","1539780","0.0-6.0-2.68","2611301","co39517","norming","","","{""curiosity"":5,""confidence"":1}","[0,1]","../img/tt/1070tt.jpg","",""
"2281.049999997951","","","recognition","survey-text","485","1542071","0.0-6.0-3.68","2611301","co39517","norming","","","{""guess"":""fishstick""}","","../img/tt/1070tt.jpg","",""
"null","../img/gs/1070gs.jpg","null","reveal","image-keyboard-response","486","1544079","0.0-6.0-4.68","2611301","co39517","norming","","","","","","",""
"null","../img/tt/1070tt.jpg","null","mooney2","image-keyboard-response","487","1546083","0.0-6.0-5.68","2611301","co39517","norming","","","","","","",""
"1973.1249999969732","","","post_reveal_questions","survey-likert","488","1548059","0.0-6.0-6.68","2611301","co39517","norming","","","{""aha"":4}","[0]","../img/tt/1070tt.jpg","",""
"null","<div style=""font-size:60px;""> </div>","null","fixation","html-keyboard-response","489","1548266","0.0-6.0-0.69","2611301","co39517","norming","","","","","","",""
"null","../img/tt/053tt.jpg","null","mooney1","image-keyboard-response","490","1551272","0.0-6.0-1.69","2611301","co39517","norming","","","","","","",""
"3613.5399999984074","","","post_mooney1_questions","survey-likert","491","1554888","0.0-6.0-2.69","2611301","co39517","norming","","","{""curiosity"":5,""confidence"":3}","[0,1]","../img/tt/053tt.jpg","",""
"2430.3450000006706","","","recognition","survey-text","492","1557327","0.0-6.0-3.69","2611301","co39517","norming","","","{""guess"":""waterfalls""}","","../img/tt/053tt.jpg","",""
"null","../img/gs/053gs.jpg","null","reveal","image-keyboard-response","493","1559330","0.0-6.0-4.69","2611301","co39517","norming","","","","","","",""
"null","../img/tt/053tt.jpg","null","mooney2","image-keyboard-response","494","1561333","0.0-6.0-5.69","2611301","co39517","norming","","","","","","",""
"1644.2150000000838","","","post_reveal_questions","survey-likert","495","1562981","0.0-6.0-6.69","2611301","co39517","norming","","","{""aha"":3}","[0]","../img/tt/053tt.jpg","",""
"null","<div style=""font-size:60px;""> </div>","null","fixation","html-keyboard-response","496","1563190","0.0-6.0-0.70","2611301","co39517","norming","","","","","","",""
"null","../img/tt/435tt.jpg","null","mooney1","image-keyboard-response","497","1566192","0.0-6.0-1.70","2611301","co39517","norming","","","","","","",""
"2800.4700000018347","","","post_mooney1_questions","survey-likert","498","1568995","0.0-6.0-2.70","2611301","co39517","norming","","","{""curiosity"":5,""confidence"":4}","[0,1]","../img/tt/435tt.jpg","",""
"2385.0850000018254","","","recognition","survey-text","499","1571390","0.0-6.0-3.70","2611301","co39517","norming","","","{""guess"":""biljart""}","","../img/tt/435tt.jpg","",""
"null","../img/gs/435gs.jpg","null","reveal","image-keyboard-response","500","1573397","0.0-6.0-4.70","2611301","co39517","norming","","","","","","",""
"null","../img/tt/435tt.jpg","null","mooney2","image-keyboard-response","501","1575403","0.0-6.0-5.70","2611301","co39517","norming","","","","","","",""
"2349.4500000015832","","","post_reveal_questions","survey-likert","502","1577755","0.0-6.0-6.70","2611301","co39517","norming","","","{""aha"":2}","[0]","../img/tt/435tt.jpg","",""
"null","<div style=""font-size:60px;""> </div>","null","fixation","html-keyboard-response","503","1577965","0.0-6.0-0.71","2611301","co39517","norming","","","","","","",""
"null","../img/tt/1175tt.jpg","null","mooney1","image-keyboard-response","504","1580967","0.0-6.0-1.71","2611301","co39517","norming","","","","","","",""
"2888.0450000069104","","","post_mooney1_questions","survey-likert","505","1583857","0.0-6.0-2.71","2611301","co39517","norming","","","{""curiosity"":5,""confidence"":2}","[0,1]","../img/tt/1175tt.jpg","",""
"1262.575000000652","","","recognition","survey-text","506","1585129","0.0-6.0-3.71","2611301","co39517","norming","","","{""guess"":""boat""}","","../img/tt/1175tt.jpg","",""
"null","../img/gs/1175gs.jpg","null","reveal","image-keyboard-response","507","1587133","0.0-6.0-4.71","2611301","co39517","norming","","","","","","",""
"null","../img/tt/1175tt.jpg","null","mooney2","image-keyboard-response","508","1589136","0.0-6.0-5.71","2611301","co39517","norming","","","","","","",""
"2334.380000000354","","","post_reveal_questions","survey-likert","509","1591472","0.0-6.0-6.71","2611301","co39517","norming","","","{""aha"":4}","[0]","../img/tt/1175tt.jpg","",""
"null","<div style=""font-size:60px;""> </div>","null","fixation","html-keyboard-response","510","1591682","0.0-6.0-0.72","2611301","co39517","norming","","","","","","",""
"null","../img/tt/1084tt.jpg","null","mooney1","image-keyboard-response","511","1594689","0.0-6.0-1.72","2611301","co39517","norming","","","","","","",""
"3333.024999999907","","","post_mooney1_questions","survey-likert","512","1598024","0.0-6.0-2.72","2611301","co39517","norming","","","{""curiosity"":5,""confidence"":2}","[0,1]","../img/tt/1084tt.jpg","",""
"2119.6749999944586","","","recognition","survey-text","513","1600154","0.0-6.0-3.72","2611301","co39517","norming","","","{""guess"":""sandwich""}","","../img/tt/1084tt.jpg","",""
"null","../img/gs/1084gs.jpg","null","reveal","image-keyboard-response","514","1602161","0.0-6.0-4.72","2611301","co39517","norming","","","","","","",""
"null","../img/tt/1084tt.jpg","null","mooney2","image-keyboard-response","515","1604165","0.0-6.0-5.72","2611301","co39517","norming","","","","","","",""
"2760.0749999983236","","","post_reveal_questions","survey-likert","516","1606927","0.0-6.0-6.72","2611301","co39517","norming","","","{""aha"":3}","[0]","../img/tt/1084tt.jpg","",""
"null","<div style=""font-size:60px;""> </div>","null","fixation","html-keyboard-response","517","1607138","0.0-6.0-0.73","2611301","co39517","norming","","","","","","",""
"null","../img/tt/1196tt.jpg","null","mooney1","image-keyboard-response","518","1610145","0.0-6.0-1.73","2611301","co39517","norming","","","","","","",""
"3101.275000000838","","","post_mooney1_questions","survey-likert","519","1613248","0.0-6.0-2.73","2611301","co39517","norming","","","{""curiosity"":5,""confidence"":1}","[0,1]","../img/tt/1196tt.jpg","",""
"2611.1850000016857","","","recognition","survey-text","520","1615866","0.0-6.0-3.73","2611301","co39517","norming","","","{""guess"":""dancer""}","","../img/tt/1196tt.jpg","",""
"null","../img/gs/1196gs.jpg","null","reveal","image-keyboard-response","521","1617871","0.0-6.0-4.73","2611301","co39517","norming","","","","","","",""
"null","../img/tt/1196tt.jpg","null","mooney2","image-keyboard-response","522","1619873","0.0-6.0-5.73","2611301","co39517","norming","","","","","","",""
"1906.8599999954458","","","post_reveal_questions","survey-likert","523","1621782","0.0-6.0-6.73","2611301","co39517","norming","","","{""aha"":3}","[0]","../img/tt/1196tt.jpg","",""
"null","<div style=""font-size:60px;""> </div>","null","fixation","html-keyboard-response","524","1621990","0.0-6.0-0.74","2611301","co39517","norming","","","","","","",""
"null","../img/tt/080tt.jpg","null","mooney1","image-keyboard-response","525","1624997","0.0-6.0-1.74","2611301","co39517","norming","","","","","","",""
"5563.130000002217","","","post_mooney1_questions","survey-likert","526","1630563","0.0-6.0-2.74","2611301","co39517","norming","","","{""curiosity"":5,""confidence"":2}","[0,1]","../img/tt/080tt.jpg","",""
"12197.88500000164","","","recognition","survey-text","527","1642771","0.0-6.0-3.74","2611301","co39517","norming","","","{""guess"":""calimero""}","","../img/tt/080tt.jpg","",""
"null","../img/gs/080gs.jpg","null","reveal","image-keyboard-response","528","1644776","0.0-6.0-4.74","2611301","co39517","norming","","","","","","",""
"null","../img/tt/080tt.jpg","null","mooney2","image-keyboard-response","529","1646779","0.0-6.0-5.74","2611301","co39517","norming","","","","","","",""
"3974.5750000001863","","","post_reveal_questions","survey-likert","530","1650756","0.0-6.0-6.74","2611301","co39517","norming","","","{""aha"":4}","[0]","../img/tt/080tt.jpg","",""
"null","<div style=""font-size:60px;""> </div>","null","fixation","html-keyboard-response","531","1650965","0.0-6.0-0.75","2611301","co39517","norming","","","","","","",""
"null","../img/tt/1190tt.jpg","null","mooney1","image-keyboard-response","532","1653968","0.0-6.0-1.75","2611301","co39517","norming","","","","","","",""
"4523.195000001462","","","post_mooney1_questions","survey-likert","533","1658494","0.0-6.0-2.75","2611301","co39517","norming","","","{""curiosity"":5,""confidence"":2}","[0,1]","../img/tt/1190tt.jpg","",""
"1694.104999995092","","","recognition","survey-text","534","1660197","0.0-6.0-3.75","2611301","co39517","norming","","","{""guess"":""woods""}","","../img/tt/1190tt.jpg","",""
"null","../img/gs/1190gs.jpg","null","reveal","image-keyboard-response","535","1662201","0.0-6.0-4.75","2611301","co39517","norming","","","","","","",""
"null","../img/tt/1190tt.jpg","null","mooney2","image-keyboard-response","536","1664207","0.0-6.0-5.75","2611301","co39517","norming","","","","","","",""
"2585.735000000568","","","post_reveal_questions","survey-likert","537","1666795","0.0-6.0-6.75","2611301","co39517","norming","","","{""aha"":3}","[0]","../img/tt/1190tt.jpg","",""
"null","<div style=""font-size:60px;""> </div>","null","fixation","html-keyboard-response","538","1667006","0.0-6.0-0.76","2611301","co39517","norming","","","","","","",""
"null","../img/tt/1366tt.jpg","null","mooney1","image-keyboard-response","539","1670013","0.0-6.0-1.76","2611301","co39517","norming","","","","","","",""
"5448.824999999488","","","post_mooney1_questions","survey-likert","540","1675464","0.0-6.0-2.76","2611301","co39517","norming","","","{""curiosity"":5,""confidence"":1}","[0,1]","../img/tt/1366tt.jpg","",""
"3201.0200000004843","","","recognition","survey-text","541","1678675","0.0-6.0-3.76","2611301","co39517","norming","","","{""guess"":""cricustent""}","","../img/tt/1366tt.jpg","",""
"null","../img/gs/1366gs.jpg","null","reveal","image-keyboard-response","542","1680681","0.0-6.0-4.76","2611301","co39517","norming","","","","","","",""
"null","../img/tt/1366tt.jpg","null","mooney2","image-keyboard-response","543","1682683","0.0-6.0-5.76","2611301","co39517","norming","","","","","","",""
"4146.605000001844","","","post_reveal_questions","survey-likert","544","1686832","0.0-6.0-6.76","2611301","co39517","norming","","","{""aha"":4}","[0]","../img/tt/1366tt.jpg","",""
"null","<div style=""font-size:60px;""> </div>","null","fixation","html-keyboard-response","545","1687044","0.0-6.0-0.77","2611301","co39517","norming","","","","","","",""
"null","../img/tt/123tt.jpg","null","mooney1","image-keyboard-response","546","1690051","0.0-6.0-1.77","2611301","co39517","norming","","","","","","",""
"3345.8899999968708","","","post_mooney1_questions","survey-likert","547","1693400","0.0-6.0-2.77","2611301","co39517","norming","","","{""curiosity"":5,""confidence"":1}","[0,1]","../img/tt/123tt.jpg","",""
"2641.1300000036135","","","recognition","survey-text","548","1696050","0.0-6.0-3.77","2611301","co39517","norming","","","{""guess"":""guitar""}","","../img/tt/123tt.jpg","",""
"null","../img/gs/123gs.jpg","null","reveal","image-keyboard-response","549","1698055","0.0-6.0-4.77","2611301","co39517","norming","","","","","","",""
"null","../img/tt/123tt.jpg","null","mooney2","image-keyboard-response","550","1700062","0.0-6.0-5.77","2611301","co39517","norming","","","","","","",""
