"rt","stimulus","key_press","test_part","trial_type","trial_index","time_elapsed","internal_node_id","totalTime","subject","experiment_name","button_pressed","success","responses","question_order","currentStim","old","correct"
"11223.72499993071","Welcome to the experiment. This is an online experiment so please don't close the tab/window until we say goodbye.  Press any key to begin.","32","instructions","html-keyboard-response","0","11285","0.0-0.0","4985720","co39304","norming","","","","","","",""
"70980.19000003114","<div style='word-wrap: break-word; width: 900px'><h3>Please consider this information carefully before deciding whether to participate in this research</h3><ul style='text-align: left; font-size: .8em;'><li><b>Purpose of the research</b>: To examine how people process images.</li><li><b>What you will do in this research</b>:  Stimuli (images) will be presented on the computer and you will be asked different questions about them.</li><li><b>Time required</b>: Participation will take between 45 and 60 minutes to complete.</li><li><b>Risks</b>:  There are no anticipated risks associated with participating in this study. The effects of participating should be comparable to those you would experience from viewing a computer monitor for 30 minutes and using a mouse or keyboard.</li><li><b>Benefits</b>:  This study provides no benefits to you individually except for the credit. The study provides important information about the nature of perception and learning.</li><li><b>Confidentiality</b>:  Your participation in this study will remain confidential. No personally identifiable information will be associated with your data. Your de-identified data may be shared with other researchers and used in future projects.</li><li><b>Participation and withdrawal</b>:  Your participation in this study is completely voluntary and you may refuse to participate or you may choose to withdraw at any time without penalty.</li><li><b>How to contact the researchers</b>: If you have questions or concerns about your participation or payment, or want to request a summary of research findings, please contact Sander Van de Cruys (KU Leuven), at sander.vandecruys@kuleuven.be.</li></ul><p>The nature and purpose of this research have been sufficiently explained and I agree to participate in this study.  I understand that I am free to withdraw at any time without incurring any penalty.</p><p>Please consent by clicking the button below to continue. Otherwise, please exit the study at this time.</p></div>","","instructions","html-button-response","1","82273","0.0-1.0","4985720","co39304","norming","0","","","","","",""
"","","","instructions","fullscreen","2","86103","0.0-2.0","4985720","co39304","norming","","true","","","","",""
"43541.02499992587","","","sona","survey-html-form","3","129652","0.0-3.0","4985720","co39304","norming","","","[{""name"":""sonaid"",""value"":""39304""},{""name"":""debrief"",""value"":""yes""},{""name"":""datajoin"",""value"":""yes""}]","","","",""
"114124.5699999854","<div style='word-wrap: break-word; width: 900px'><h3>Instructions</h3><p>This experiment will have 3 parts. In the first part you will see a series of distorted images like the one below on the left. As you can see in the righthand image, the distorted images are derived from actual photographs. In what follows, you will <strong>briefly</strong> be presented with <strong>only</strong> the distorted image.</p> <div style='float: left; margin-right: 20px;'><img src='../img/018tt.jpg' height='250' width='250'></img></div><div style='float: right; margin-left: 20px;'><img src='../img/018gs.jpg' height='250' width='250'></img></div><p>Subsequently you will be asked a few questions about the image: One question on how <strong>curious</strong> you are about the solution and one on how <strong>confident</strong> you are that you know the solution.</p>Next, we ask you to make a guess on what is in the image. Note that it is OK to name just the <strong>basic level category</strong>. For example when you see a parrot in the image, 'parrot' will obviously be a correct answer but also correct is 'bird'. However, 'animal' will <strong>not</strong> be counted as a correct response. For the example above, 'rose' would be correct or 'flower', but not 'plant'. When soccer players are depicted, 'soccer', 'football', 'soccer players' will be correct, but not 'humans', 'outdoors', or 'sports'. You do not need to describe the image in full, just name the main object in it <strong>in one or two words</strong>. All images depict objects from one of the following broad level categories: animals, inanimate objects, plants, sports, vehicles, and food. Recognizing means knowing <strong>more</strong> than these broad labels for a given image. But we always encourage you to <strong>make a guess</strong> if you can. Note that you are allowed to use <strong>Dutch and English</strong> in your answers, whatever comes easiest for you.</p><p>Press any key to continue.</p></div>","32","instructions","html-keyboard-response","4","243784","0.0-4.0","4985720","co39304","norming","","","","","","",""
"69819.70999995247","<div style='word-wrap: break-word; width: 900px'><h3>Instructions</h3> <p>Next, the solution image will be revealed to you and you'll be asked to indicate how strong your <strong>aha-experience</strong> was after seeing the solution. This describes the positive feeling of the 'click' you sometimes experience, when the pieces of the 'puzzle' fall together and you suddenly have 'insight' in the image.</p><img src='aha.jpg' height='188' width='250'></img><p>Note that there are no right or wrong answers. We are interested in what <strong>you</strong> see in the image and how <strong>you</strong> feel about it.</p><p>Press any key to start the experiment.</p></div>","32","instructions","html-keyboard-response","5","313603","0.0-5.0","4985720","co39304","norming","","","","","","",""
"null","<div style=""font-size:60px;""> </div>","null","fixation","html-keyboard-response","6","313810","0.0-6.0-0.0","4985720","co39304","norming","","","","","","",""
"null","../img/tt/1228tt.jpg","null","mooney1","image-keyboard-response","7","316839","0.0-6.0-1.0","4985720","co39304","norming","","","","","","",""
"96315.45999995433","","","post_mooney1_questions","survey-likert","8","413185","0.0-6.0-2.0","4985720","co39304","norming","","","{""curiosity"":6,""confidence"":5}","[0,1]","../img/tt/1228tt.jpg","",""
"9668.78499998711","","","recognition","survey-text","9","422935","0.0-6.0-3.0","4985720","co39304","norming","","","{""guess"":""""}","","../img/tt/1228tt.jpg","",""
"null","../img/gs/1228gs.jpg","null","reveal","image-keyboard-response","10","424952","0.0-6.0-4.0","4985720","co39304","norming","","","","","","",""
"null","../img/tt/1228tt.jpg","null","mooney2","image-keyboard-response","11","426958","0.0-6.0-5.0","4985720","co39304","norming","","","","","","",""
"15162.804999854416","","","post_reveal_questions","survey-likert","12","442135","0.0-6.0-6.0","4985720","co39304","norming","","","{""aha"":2}","[0]","../img/tt/1228tt.jpg","",""
"null","<div style=""font-size:60px;""> </div>","null","fixation","html-keyboard-response","13","442421","0.0-6.0-0.1","4985720","co39304","norming","","","","","","",""
"null","../img/tt/1063tt.jpg","null","mooney1","image-keyboard-response","14","445440","0.0-6.0-1.1","4985720","co39304","norming","","","","","","",""
"11119.840000057593","","","post_mooney1_questions","survey-likert","15","456577","0.0-6.0-2.1","4985720","co39304","norming","","","{""curiosity"":5,""confidence"":3}","[0,1]","../img/tt/1063tt.jpg","",""
"6048.829999985173","","","recognition","survey-text","16","462688","0.0-6.0-3.1","4985720","co39304","norming","","","{""guess"":""cows""}","","../img/tt/1063tt.jpg","",""
"null","../img/gs/1063gs.jpg","null","reveal","image-keyboard-response","17","464714","0.0-6.0-4.1","4985720","co39304","norming","","","","","","",""
"null","../img/tt/1063tt.jpg","null","mooney2","image-keyboard-response","18","466732","0.0-6.0-5.1","4985720","co39304","norming","","","","","","",""
"6833.674999885261","","","post_reveal_questions","survey-likert","19","473580","0.0-6.0-6.1","4985720","co39304","norming","","","{""aha"":3}","[0]","../img/tt/1063tt.jpg","",""
"null","<div style=""font-size:60px;""> </div>","null","fixation","html-keyboard-response","20","473863","0.0-6.0-0.2","4985720","co39304","norming","","","","","","",""
"null","../img/tt/524tt.jpg","null","mooney1","image-keyboard-response","21","476882","0.0-6.0-1.2","4985720","co39304","norming","","","","","","",""
"7055.44999986887","","","post_mooney1_questions","survey-likert","22","483953","0.0-6.0-2.2","4985720","co39304","norming","","","{""curiosity"":5,""confidence"":3}","[0,1]","../img/tt/524tt.jpg","",""
"23605.11999996379","","","recognition","survey-text","23","507637","0.0-6.0-3.2","4985720","co39304","norming","","","{""guess"":""a cow""}","","../img/tt/524tt.jpg","",""
"null","../img/gs/524gs.jpg","null","reveal","image-keyboard-response","24","509657","0.0-6.0-4.2","4985720","co39304","norming","","","","","","",""
"null","../img/tt/524tt.jpg","null","mooney2","image-keyboard-response","25","511673","0.0-6.0-5.2","4985720","co39304","norming","","","","","","",""
"5521.464999997988","","","post_reveal_questions","survey-likert","26","517207","0.0-6.0-6.2","4985720","co39304","norming","","","{""aha"":1}","[0]","../img/tt/524tt.jpg","",""
"null","<div style=""font-size:60px;""> </div>","null","fixation","html-keyboard-response","27","517489","0.0-6.0-0.3","4985720","co39304","norming","","","","","","",""
"null","../img/tt/064tt.jpg","null","mooney1","image-keyboard-response","28","520509","0.0-6.0-1.3","4985720","co39304","norming","","","","","","",""
"6428.830000106245","","","post_mooney1_questions","survey-likert","29","526948","0.0-6.0-2.3","4985720","co39304","norming","","","{""curiosity"":5,""confidence"":4}","[0,1]","../img/tt/064tt.jpg","",""
"4545.274999924004","","","recognition","survey-text","30","531571","0.0-6.0-3.3","4985720","co39304","norming","","","{""guess"":""a turtle""}","","../img/tt/064tt.jpg","",""
"null","../img/gs/064gs.jpg","null","reveal","image-keyboard-response","31","533591","0.0-6.0-4.3","4985720","co39304","norming","","","","","","",""
"null","../img/tt/064tt.jpg","null","mooney2","image-keyboard-response","32","535600","0.0-6.0-5.3","4985720","co39304","norming","","","","","","",""
"2434.499999973923","","","post_reveal_questions","survey-likert","33","538045","0.0-6.0-6.3","4985720","co39304","norming","","","{""aha"":0}","[0]","../img/tt/064tt.jpg","",""
"null","<div style=""font-size:60px;""> </div>","null","fixation","html-keyboard-response","34","538304","0.0-6.0-0.4","4985720","co39304","norming","","","","","","",""
"null","../img/tt/1226tt.jpg","null","mooney1","image-keyboard-response","35","541326","0.0-6.0-1.4","4985720","co39304","norming","","","","","","",""
"6404.6199999284","","","post_mooney1_questions","survey-likert","36","547748","0.0-6.0-2.4","4985720","co39304","norming","","","{""curiosity"":5,""confidence"":3}","[0,1]","../img/tt/1226tt.jpg","",""
"5083.409999962896","","","recognition","survey-text","37","552914","0.0-6.0-3.4","4985720","co39304","norming","","","{""guess"":""a man with a hat""}","","../img/tt/1226tt.jpg","",""
"null","../img/gs/1226gs.jpg","null","reveal","image-keyboard-response","38","554934","0.0-6.0-4.4","4985720","co39304","norming","","","","","","",""
"null","../img/tt/1226tt.jpg","null","mooney2","image-keyboard-response","39","556964","0.0-6.0-5.4","4985720","co39304","norming","","","","","","",""
"3129.7949999570847","","","post_reveal_questions","survey-likert","40","560105","0.0-6.0-6.4","4985720","co39304","norming","","","{""aha"":4}","[0]","../img/tt/1226tt.jpg","",""
"null","<div style=""font-size:60px;""> </div>","null","fixation","html-keyboard-response","41","560434","0.0-6.0-0.5","4985720","co39304","norming","","","","","","",""
"null","../img/tt/1190tt.jpg","null","mooney1","image-keyboard-response","42","563453","0.0-6.0-1.5","4985720","co39304","norming","","","","","","",""
"6567.994999932125","","","post_mooney1_questions","survey-likert","43","570038","0.0-6.0-2.5","4985720","co39304","norming","","","{""curiosity"":4,""confidence"":3}","[0,1]","../img/tt/1190tt.jpg","",""
"6836.2050000578165","","","recognition","survey-text","44","576961","0.0-6.0-3.5","4985720","co39304","norming","","","{""guess"":""a bear""}","","../img/tt/1190tt.jpg","",""
"null","../img/gs/1190gs.jpg","null","reveal","image-keyboard-response","45","578982","0.0-6.0-4.5","4985720","co39304","norming","","","","","","",""
"null","../img/tt/1190tt.jpg","null","mooney2","image-keyboard-response","46","580995","0.0-6.0-5.5","4985720","co39304","norming","","","","","","",""
"7468.155000125989","","","post_reveal_questions","survey-likert","47","588477","0.0-6.0-6.5","4985720","co39304","norming","","","{""aha"":1}","[0]","../img/tt/1190tt.jpg","",""
"null","<div style=""font-size:60px;""> </div>","null","fixation","html-keyboard-response","48","588761","0.0-6.0-0.6","4985720","co39304","norming","","","","","","",""
"null","../img/tt/112tt.jpg","null","mooney1","image-keyboard-response","49","591778","0.0-6.0-1.6","4985720","co39304","norming","","","","","","",""
"6957.085000118241","","","post_mooney1_questions","survey-likert","50","598755","0.0-6.0-2.6","4985720","co39304","norming","","","{""curiosity"":4,""confidence"":2}","[0,1]","../img/tt/112tt.jpg","",""
"5193.019999889657","","","recognition","survey-text","51","604054","0.0-6.0-3.6","4985720","co39304","norming","","","{""guess"":""a bottle ""}","","../img/tt/112tt.jpg","",""
"null","../img/gs/112gs.jpg","null","reveal","image-keyboard-response","52","606075","0.0-6.0-4.6","4985720","co39304","norming","","","","","","",""
"null","../img/tt/112tt.jpg","null","mooney2","image-keyboard-response","53","608089","0.0-6.0-5.6","4985720","co39304","norming","","","","","","",""
"4958.845000015572","","","post_reveal_questions","survey-likert","54","613061","0.0-6.0-6.6","4985720","co39304","norming","","","{""aha"":3}","[0]","../img/tt/112tt.jpg","",""
"null","<div style=""font-size:60px;""> </div>","null","fixation","html-keyboard-response","55","613341","0.0-6.0-0.7","4985720","co39304","norming","","","","","","",""
"null","../img/tt/096tt.jpg","null","mooney1","image-keyboard-response","56","616359","0.0-6.0-1.7","4985720","co39304","norming","","","","","","",""
"8545.280000194907","","","post_mooney1_questions","survey-likert","57","624922","0.0-6.0-2.7","4985720","co39304","norming","","","{""curiosity"":5,""confidence"":2}","[0,1]","../img/tt/096tt.jpg","",""
"11302.620000205934","","","recognition","survey-text","58","636323","0.0-6.0-3.7","4985720","co39304","norming","","","{""guess"":""a machine to make bread""}","","../img/tt/096tt.jpg","",""
"null","../img/gs/096gs.jpg","null","reveal","image-keyboard-response","59","638339","0.0-6.0-4.7","4985720","co39304","norming","","","","","","",""
"null","../img/tt/096tt.jpg","null","mooney2","image-keyboard-response","60","640351","0.0-6.0-5.7","4985720","co39304","norming","","","","","","",""
"3222.6749998517334","","","post_reveal_questions","survey-likert","61","643587","0.0-6.0-6.7","4985720","co39304","norming","","","{""aha"":4}","[0]","../img/tt/096tt.jpg","",""
"null","<div style=""font-size:60px;""> </div>","null","fixation","html-keyboard-response","62","643903","0.0-6.0-0.8","4985720","co39304","norming","","","","","","",""
"null","../img/tt/598tt.jpg","null","mooney1","image-keyboard-response","63","646925","0.0-6.0-1.8","4985720","co39304","norming","","","","","","",""
"7379.040000028908","","","post_mooney1_questions","survey-likert","64","654324","0.0-6.0-2.8","4985720","co39304","norming","","","{""curiosity"":4,""confidence"":2}","[0,1]","../img/tt/598tt.jpg","",""
"1429.685000097379","","","recognition","survey-text","65","655831","0.0-6.0-3.8","4985720","co39304","norming","","","{""guess"":""""}","","../img/tt/598tt.jpg","",""
"null","../img/gs/598gs.jpg","null","reveal","image-keyboard-response","66","657856","0.0-6.0-4.8","4985720","co39304","norming","","","","","","",""
"null","../img/tt/598tt.jpg","null","mooney2","image-keyboard-response","67","659869","0.0-6.0-5.8","4985720","co39304","norming","","","","","","",""
"3905.3899999707937","","","post_reveal_questions","survey-likert","68","663787","0.0-6.0-6.8","4985720","co39304","norming","","","{""aha"":3}","[0]","../img/tt/598tt.jpg","",""
"null","<div style=""font-size:60px;""> </div>","null","fixation","html-keyboard-response","69","664087","0.0-6.0-0.9","4985720","co39304","norming","","","","","","",""
"null","../img/tt/353tt.jpg","null","mooney1","image-keyboard-response","70","667105","0.0-6.0-1.9","4985720","co39304","norming","","","","","","",""
"7248.510000063106","","","post_mooney1_questions","survey-likert","71","674371","0.0-6.0-2.9","4985720","co39304","norming","","","{""curiosity"":5,""confidence"":2}","[0,1]","../img/tt/353tt.jpg","",""
"28397.2749998793","","","recognition","survey-text","72","702865","0.0-6.0-3.9","4985720","co39304","norming","","","{""guess"":""konijnen op een boomstronk""}","","../img/tt/353tt.jpg","",""
"null","../img/gs/353gs.jpg","null","reveal","image-keyboard-response","73","704880","0.0-6.0-4.9","4985720","co39304","norming","","","","","","",""
"null","../img/tt/353tt.jpg","null","mooney2","image-keyboard-response","74","706896","0.0-6.0-5.9","4985720","co39304","norming","","","","","","",""
"28604.245000053197","","","post_reveal_questions","survey-likert","75","735511","0.0-6.0-6.9","4985720","co39304","norming","","","{""aha"":2}","[0]","../img/tt/353tt.jpg","",""
"null","<div style=""font-size:60px;""> </div>","null","fixation","html-keyboard-response","76","735821","0.0-6.0-0.10","4985720","co39304","norming","","","","","","",""
"null","../img/tt/140tt.jpg","null","mooney1","image-keyboard-response","77","738842","0.0-6.0-1.10","4985720","co39304","norming","","","","","","",""
"5412.4350000638515","","","post_mooney1_questions","survey-likert","78","744273","0.0-6.0-2.10","4985720","co39304","norming","","","{""curiosity"":5,""confidence"":3}","[0,1]","../img/tt/140tt.jpg","",""
"4091.729999985546","","","recognition","survey-text","79","748469","0.0-6.0-3.10","4985720","co39304","norming","","","{""guess"":""vorken""}","","../img/tt/140tt.jpg","",""
"null","../img/gs/140gs.jpg","null","reveal","image-keyboard-response","80","750486","0.0-6.0-4.10","4985720","co39304","norming","","","","","","",""
"null","../img/tt/140tt.jpg","null","mooney2","image-keyboard-response","81","752501","0.0-6.0-5.10","4985720","co39304","norming","","","","","","",""
"4005.0049999263138","","","post_reveal_questions","survey-likert","82","756518","0.0-6.0-6.10","4985720","co39304","norming","","","{""aha"":3}","[0]","../img/tt/140tt.jpg","",""
"null","<div style=""font-size:60px;""> </div>","null","fixation","html-keyboard-response","83","756803","0.0-6.0-0.11","4985720","co39304","norming","","","","","","",""
"null","../img/tt/1241tt.jpg","null","mooney1","image-keyboard-response","84","759823","0.0-6.0-1.11","4985720","co39304","norming","","","","","","",""
"5162.394999992102","","","post_mooney1_questions","survey-likert","85","765002","0.0-6.0-2.11","4985720","co39304","norming","","","{""curiosity"":5,""confidence"":2}","[0,1]","../img/tt/1241tt.jpg","",""
"1605.3450000472367","","","recognition","survey-text","86","766723","0.0-6.0-3.11","4985720","co39304","norming","","","{""guess"":""""}","","../img/tt/1241tt.jpg","",""
"null","../img/gs/1241gs.jpg","null","reveal","image-keyboard-response","87","768737","0.0-6.0-4.11","4985720","co39304","norming","","","","","","",""
"null","../img/tt/1241tt.jpg","null","mooney2","image-keyboard-response","88","770749","0.0-6.0-5.11","4985720","co39304","norming","","","","","","",""
"21004.439999815077","","","post_reveal_questions","survey-likert","89","791766","0.0-6.0-6.11","4985720","co39304","norming","","","{""aha"":2}","[0]","../img/tt/1241tt.jpg","",""
"null","<div style=""font-size:60px;""> </div>","null","fixation","html-keyboard-response","90","792046","0.0-6.0-0.12","4985720","co39304","norming","","","","","","",""
"null","../img/tt/599tt.jpg","null","mooney1","image-keyboard-response","91","795063","0.0-6.0-1.12","4985720","co39304","norming","","","","","","",""
"7550.440000137314","","","post_mooney1_questions","survey-likert","92","802629","0.0-6.0-2.12","4985720","co39304","norming","","","{""curiosity"":5,""confidence"":3}","[0,1]","../img/tt/599tt.jpg","",""
"20240.96000008285","","","recognition","survey-text","93","822940","0.0-6.0-3.12","4985720","co39304","norming","","","{""guess"":""een vrouw met een hoofddoek op""}","","../img/tt/599tt.jpg","",""
"null","../img/gs/599gs.jpg","null","reveal","image-keyboard-response","94","824964","0.0-6.0-4.12","4985720","co39304","norming","","","","","","",""
"null","../img/tt/599tt.jpg","null","mooney2","image-keyboard-response","95","826983","0.0-6.0-5.12","4985720","co39304","norming","","","","","","",""
"4807.809999911115","","","post_reveal_questions","survey-likert","96","831803","0.0-6.0-6.12","4985720","co39304","norming","","","{""aha"":5}","[0]","../img/tt/599tt.jpg","",""
"null","<div style=""font-size:60px;""> </div>","null","fixation","html-keyboard-response","97","832091","0.0-6.0-0.13","4985720","co39304","norming","","","","","","",""
"null","../img/tt/1027tt.jpg","null","mooney1","image-keyboard-response","98","835100","0.0-6.0-1.13","4985720","co39304","norming","","","","","","",""
"7789.095000131056","","","post_mooney1_questions","survey-likert","99","842900","0.0-6.0-2.13","4985720","co39304","norming","","","{""curiosity"":5,""confidence"":2}","[0,1]","../img/tt/1027tt.jpg","",""
"6861.5900001022965","","","recognition","survey-text","100","849865","0.0-6.0-3.13","4985720","co39304","norming","","","{""guess"":""twee mensen die kussen""}","","../img/tt/1027tt.jpg","",""
"null","../img/gs/1027gs.jpg","null","reveal","image-keyboard-response","101","851876","0.0-6.0-4.13","4985720","co39304","norming","","","","","","",""
"null","../img/tt/1027tt.jpg","null","mooney2","image-keyboard-response","102","853888","0.0-6.0-5.13","4985720","co39304","norming","","","","","","",""
"3471.900000004098","","","post_reveal_questions","survey-likert","103","857373","0.0-6.0-6.13","4985720","co39304","norming","","","{""aha"":5}","[0]","../img/tt/1027tt.jpg","",""
"null","<div style=""font-size:60px;""> </div>","null","fixation","html-keyboard-response","104","857650","0.0-6.0-0.14","4985720","co39304","norming","","","","","","",""
"null","../img/tt/1043tt.jpg","null","mooney1","image-keyboard-response","105","860666","0.0-6.0-1.14","4985720","co39304","norming","","","","","","",""
"4302.159999962896","","","post_mooney1_questions","survey-likert","106","864989","0.0-6.0-2.14","4985720","co39304","norming","","","{""curiosity"":5,""confidence"":2}","[0,1]","../img/tt/1043tt.jpg","",""
"8426.674999995157","","","recognition","survey-text","107","873493","0.0-6.0-3.14","4985720","co39304","norming","","","{""guess"":""fruit in een fruitschaal""}","","../img/tt/1043tt.jpg","",""
"null","../img/gs/1043gs.jpg","null","reveal","image-keyboard-response","108","875506","0.0-6.0-4.14","4985720","co39304","norming","","","","","","",""
"null","../img/tt/1043tt.jpg","null","mooney2","image-keyboard-response","109","877522","0.0-6.0-5.14","4985720","co39304","norming","","","","","","",""
"5663.980000186712","","","post_reveal_questions","survey-likert","110","883199","0.0-6.0-6.14","4985720","co39304","norming","","","{""aha"":4}","[0]","../img/tt/1043tt.jpg","",""
"null","<div style=""font-size:60px;""> </div>","null","fixation","html-keyboard-response","111","883500","0.0-6.0-0.15","4985720","co39304","norming","","","","","","",""
"null","../img/tt/406tt.jpg","null","mooney1","image-keyboard-response","112","886512","0.0-6.0-1.15","4985720","co39304","norming","","","","","","",""
"5925.439999904484","","","post_mooney1_questions","survey-likert","113","892455","0.0-6.0-2.15","4985720","co39304","norming","","","{""curiosity"":5,""confidence"":2}","[0,1]","../img/tt/406tt.jpg","",""
"4234.715000027791","","","recognition","survey-text","114","896766","0.0-6.0-3.15","4985720","co39304","norming","","","{""guess"":""een vrouw""}","","../img/tt/406tt.jpg","",""
"null","../img/gs/406gs.jpg","null","reveal","image-keyboard-response","115","898784","0.0-6.0-4.15","4985720","co39304","norming","","","","","","",""
"null","../img/tt/406tt.jpg","null","mooney2","image-keyboard-response","116","900798","0.0-6.0-5.15","4985720","co39304","norming","","","","","","",""
"4035.3800000157207","","","post_reveal_questions","survey-likert","117","904846","0.0-6.0-6.15","4985720","co39304","norming","","","{""aha"":5}","[0]","../img/tt/406tt.jpg","",""
"null","<div style=""font-size:60px;""> </div>","null","fixation","html-keyboard-response","118","905179","0.0-6.0-0.16","4985720","co39304","norming","","","","","","",""
"null","../img/tt/1217tt.jpg","null","mooney1","image-keyboard-response","119","908199","0.0-6.0-1.16","4985720","co39304","norming","","","","","","",""
"6055.954999988899","","","post_mooney1_questions","survey-likert","120","914273","0.0-6.0-2.16","4985720","co39304","norming","","","{""curiosity"":5,""confidence"":2}","[0,1]","../img/tt/1217tt.jpg","",""
"6170.70999997668","","","recognition","survey-text","121","920508","0.0-6.0-3.16","4985720","co39304","norming","","","{""guess"":""een bos ""}","","../img/tt/1217tt.jpg","",""
"null","../img/gs/1217gs.jpg","null","reveal","image-keyboard-response","122","922526","0.0-6.0-4.16","4985720","co39304","norming","","","","","","",""
"null","../img/tt/1217tt.jpg","null","mooney2","image-keyboard-response","123","924532","0.0-6.0-5.16","4985720","co39304","norming","","","","","","",""
"3422.450000187382","","","post_reveal_questions","survey-likert","124","927965","0.0-6.0-6.16","4985720","co39304","norming","","","{""aha"":6}","[0]","../img/tt/1217tt.jpg","",""
"null","<div style=""font-size:60px;""> </div>","null","fixation","html-keyboard-response","125","928252","0.0-6.0-0.17","4985720","co39304","norming","","","","","","",""
"null","../img/tt/1270tt.jpg","null","mooney1","image-keyboard-response","126","931273","0.0-6.0-1.17","4985720","co39304","norming","","","","","","",""
"6777.805000077933","","","post_mooney1_questions","survey-likert","127","938064","0.0-6.0-2.17","4985720","co39304","norming","","","{""curiosity"":5,""confidence"":2}","[0,1]","../img/tt/1270tt.jpg","",""
"3108.7700000498444","","","recognition","survey-text","128","941230","0.0-6.0-3.17","4985720","co39304","norming","","","{""guess"":""een vis""}","","../img/tt/1270tt.jpg","",""
"null","../img/gs/1270gs.jpg","null","reveal","image-keyboard-response","129","943252","0.0-6.0-4.17","4985720","co39304","norming","","","","","","",""
"null","../img/tt/1270tt.jpg","null","mooney2","image-keyboard-response","130","945260","0.0-6.0-5.17","4985720","co39304","norming","","","","","","",""
"2762.624999973923","","","post_reveal_questions","survey-likert","131","948036","0.0-6.0-6.17","4985720","co39304","norming","","","{""aha"":6}","[0]","../img/tt/1270tt.jpg","",""
"null","<div style=""font-size:60px;""> </div>","null","fixation","html-keyboard-response","132","948353","0.0-6.0-0.18","4985720","co39304","norming","","","","","","",""
"null","../img/tt/380tt.jpg","null","mooney1","image-keyboard-response","133","951369","0.0-6.0-1.18","4985720","co39304","norming","","","","","","",""
"7722.740000113845","","","post_mooney1_questions","survey-likert","134","959109","0.0-6.0-2.18","4985720","co39304","norming","","","{""curiosity"":5,""confidence"":2}","[0,1]","../img/tt/380tt.jpg","",""
"3708.875000011176","","","recognition","survey-text","135","962897","0.0-6.0-3.18","4985720","co39304","norming","","","{""guess"":""een kever""}","","../img/tt/380tt.jpg","",""
"null","../img/gs/380gs.jpg","null","reveal","image-keyboard-response","136","964918","0.0-6.0-4.18","4985720","co39304","norming","","","","","","",""
"null","../img/tt/380tt.jpg","null","mooney2","image-keyboard-response","137","966923","0.0-6.0-5.18","4985720","co39304","norming","","","","","","",""
"3116.6500002145767","","","post_reveal_questions","survey-likert","138","970053","0.0-6.0-6.18","4985720","co39304","norming","","","{""aha"":6}","[0]","../img/tt/380tt.jpg","",""
"null","<div style=""font-size:60px;""> </div>","null","fixation","html-keyboard-response","139","970350","0.0-6.0-0.19","4985720","co39304","norming","","","","","","",""
"null","../img/tt/1224tt.jpg","null","mooney1","image-keyboard-response","140","973369","0.0-6.0-1.19","4985720","co39304","norming","","","","","","",""
"4848.680000053719","","","post_mooney1_questions","survey-likert","141","978232","0.0-6.0-2.19","4985720","co39304","norming","","","{""curiosity"":5,""confidence"":2}","[0,1]","../img/tt/1224tt.jpg","",""
"5333.534999983385","","","recognition","survey-text","142","983620","0.0-6.0-3.19","4985720","co39304","norming","","","{""guess"":""een vrouw op een stoel""}","","../img/tt/1224tt.jpg","",""
"null","../img/gs/1224gs.jpg","null","reveal","image-keyboard-response","143","985635","0.0-6.0-4.19","4985720","co39304","norming","","","","","","",""
"null","../img/tt/1224tt.jpg","null","mooney2","image-keyboard-response","144","987651","0.0-6.0-5.19","4985720","co39304","norming","","","","","","",""
"3403.819999890402","","","post_reveal_questions","survey-likert","145","991069","0.0-6.0-6.19","4985720","co39304","norming","","","{""aha"":5}","[0]","../img/tt/1224tt.jpg","",""
"null","<div style=""font-size:60px;""> </div>","null","fixation","html-keyboard-response","146","991347","0.0-6.0-0.20","4985720","co39304","norming","","","","","","",""
"null","../img/tt/1033tt.jpg","null","mooney1","image-keyboard-response","147","994356","0.0-6.0-1.20","4985720","co39304","norming","","","","","","",""
"6495.809999993071","","","post_mooney1_questions","survey-likert","148","1000870","0.0-6.0-2.20","4985720","co39304","norming","","","{""curiosity"":5,""confidence"":5}","[0,1]","../img/tt/1033tt.jpg","",""
"13749.460000079125","","","recognition","survey-text","149","1014706","0.0-6.0-3.20","4985720","co39304","norming","","","{""guess"":""een ijshockey speler""}","","../img/tt/1033tt.jpg","",""
"null","../img/gs/1033gs.jpg","null","reveal","image-keyboard-response","150","1016726","0.0-6.0-4.20","4985720","co39304","norming","","","","","","",""
"null","../img/tt/1033tt.jpg","null","mooney2","image-keyboard-response","151","1018742","0.0-6.0-5.20","4985720","co39304","norming","","","","","","",""
"3158.3300000056624","","","post_reveal_questions","survey-likert","152","1021913","0.0-6.0-6.20","4985720","co39304","norming","","","{""aha"":5}","[0]","../img/tt/1033tt.jpg","",""
"null","<div style=""font-size:60px;""> </div>","null","fixation","html-keyboard-response","153","1022210","0.0-6.0-0.21","4985720","co39304","norming","","","","","","",""
"null","../img/tt/091tt.jpg","null","mooney1","image-keyboard-response","154","1025232","0.0-6.0-1.21","4985720","co39304","norming","","","","","","",""
"7519.405000144616","","","post_mooney1_questions","survey-likert","155","1032765","0.0-6.0-2.21","4985720","co39304","norming","","","{""curiosity"":5,""confidence"":0}","[0,1]","../img/tt/091tt.jpg","",""
"1186.3450000528246","","","recognition","survey-text","156","1034010","0.0-6.0-3.21","4985720","co39304","norming","","","{""guess"":""""}","","../img/tt/091tt.jpg","",""
"null","../img/gs/091gs.jpg","null","reveal","image-keyboard-response","157","1036023","0.0-6.0-4.21","4985720","co39304","norming","","","","","","",""
"null","../img/tt/091tt.jpg","null","mooney2","image-keyboard-response","158","1038038","0.0-6.0-5.21","4985720","co39304","norming","","","","","","",""
"3408.8999999221414","","","post_reveal_questions","survey-likert","159","1041459","0.0-6.0-6.21","4985720","co39304","norming","","","{""aha"":5}","[0]","../img/tt/091tt.jpg","",""
"null","<div style=""font-size:60px;""> </div>","null","fixation","html-keyboard-response","160","1041755","0.0-6.0-0.22","4985720","co39304","norming","","","","","","",""
"null","../img/tt/1211tt.jpg","null","mooney1","image-keyboard-response","161","1044775","0.0-6.0-1.22","4985720","co39304","norming","","","","","","",""
"4614.989999914542","","","post_mooney1_questions","survey-likert","162","1049407","0.0-6.0-2.22","4985720","co39304","norming","","","{""curiosity"":5,""confidence"":2}","[0,1]","../img/tt/1211tt.jpg","",""
"3354.869999922812","","","recognition","survey-text","163","1052889","0.0-6.0-3.22","4985720","co39304","norming","","","{""guess"":""een boot""}","","../img/tt/1211tt.jpg","",""
"null","../img/gs/1211gs.jpg","null","reveal","image-keyboard-response","164","1054905","0.0-6.0-4.22","4985720","co39304","norming","","","","","","",""
"null","../img/tt/1211tt.jpg","null","mooney2","image-keyboard-response","165","1056924","0.0-6.0-5.22","4985720","co39304","norming","","","","","","",""
"3731.2549999915063","","","post_reveal_questions","survey-likert","166","1060667","0.0-6.0-6.22","4985720","co39304","norming","","","{""aha"":5}","[0]","../img/tt/1211tt.jpg","",""
"null","<div style=""font-size:60px;""> </div>","null","fixation","html-keyboard-response","167","1060952","0.0-6.0-0.23","4985720","co39304","norming","","","","","","",""
"null","../img/tt/1290tt.jpg","null","mooney1","image-keyboard-response","168","1063970","0.0-6.0-1.23","4985720","co39304","norming","","","","","","",""
"5181.575000053272","","","post_mooney1_questions","survey-likert","169","1069168","0.0-6.0-2.23","4985720","co39304","norming","","","{""curiosity"":5,""confidence"":2}","[0,1]","../img/tt/1290tt.jpg","",""
"4409.964999882504","","","recognition","survey-text","170","1073660","0.0-6.0-3.23","4985720","co39304","norming","","","{""guess"":""handgranaat""}","","../img/tt/1290tt.jpg","",""
"null","../img/gs/1290gs.jpg","null","reveal","image-keyboard-response","171","1075681","0.0-6.0-4.23","4985720","co39304","norming","","","","","","",""
"null","../img/tt/1290tt.jpg","null","mooney2","image-keyboard-response","172","1077688","0.0-6.0-5.23","4985720","co39304","norming","","","","","","",""
"3158.694999990985","","","post_reveal_questions","survey-likert","173","1080858","0.0-6.0-6.23","4985720","co39304","norming","","","{""aha"":5}","[0]","../img/tt/1290tt.jpg","",""
"null","<div style=""font-size:60px;""> </div>","null","fixation","html-keyboard-response","174","1081131","0.0-6.0-0.24","4985720","co39304","norming","","","","","","",""
"null","../img/tt/1278tt.jpg","null","mooney1","image-keyboard-response","175","1084150","0.0-6.0-1.24","4985720","co39304","norming","","","","","","",""
"5436.430000001565","","","post_mooney1_questions","survey-likert","176","1089603","0.0-6.0-2.24","4985720","co39304","norming","","","{""curiosity"":5,""confidence"":2}","[0,1]","../img/tt/1278tt.jpg","",""
"6107.164999935776","","","recognition","survey-text","177","1095781","0.0-6.0-3.24","4985720","co39304","norming","","","{""guess"":""een vrouw met een hoed op""}","","../img/tt/1278tt.jpg","",""
"null","../img/gs/1278gs.jpg","null","reveal","image-keyboard-response","178","1097796","0.0-6.0-4.24","4985720","co39304","norming","","","","","","",""
"null","../img/tt/1278tt.jpg","null","mooney2","image-keyboard-response","179","1099813","0.0-6.0-5.24","4985720","co39304","norming","","","","","","",""
"3509.6299999859184","","","post_reveal_questions","survey-likert","180","1103334","0.0-6.0-6.24","4985720","co39304","norming","","","{""aha"":5}","[0]","../img/tt/1278tt.jpg","",""
"null","<div style=""font-size:60px;""> </div>","null","fixation","html-keyboard-response","181","1103629","0.0-6.0-0.25","4985720","co39304","norming","","","","","","",""
"null","../img/tt/435tt.jpg","null","mooney1","image-keyboard-response","182","1106651","0.0-6.0-1.25","4985720","co39304","norming","","","","","","",""
"8186.239999951795","","","post_mooney1_questions","survey-likert","183","1114855","0.0-6.0-2.25","4985720","co39304","norming","","","{""curiosity"":5,""confidence"":2}","[0,1]","../img/tt/435tt.jpg","",""
"13673.639999935403","","","recognition","survey-text","184","1128596","0.0-6.0-3.25","4985720","co39304","norming","","","{""guess"":""een huis met een raam dat open staat""}","","../img/tt/435tt.jpg","",""
"null","../img/gs/435gs.jpg","null","reveal","image-keyboard-response","185","1130615","0.0-6.0-4.25","4985720","co39304","norming","","","","","","",""
"null","../img/tt/435tt.jpg","null","mooney2","image-keyboard-response","186","1132620","0.0-6.0-5.25","4985720","co39304","norming","","","","","","",""
"2677.635000087321","","","post_reveal_questions","survey-likert","187","1135304","0.0-6.0-6.25","4985720","co39304","norming","","","{""aha"":5}","[0]","../img/tt/435tt.jpg","",""
"null","<div style=""font-size:60px;""> </div>","null","fixation","html-keyboard-response","188","1135588","0.0-6.0-0.26","4985720","co39304","norming","","","","","","",""
"null","../img/tt/105tt.jpg","null","mooney1","image-keyboard-response","189","1138600","0.0-6.0-1.26","4985720","co39304","norming","","","","","","",""
"8465.7850000076","","","post_mooney1_questions","survey-likert","190","1147085","0.0-6.0-2.26","4985720","co39304","norming","","","{""curiosity"":4,""confidence"":5}","[0,1]","../img/tt/105tt.jpg","",""
"4202.790000010282","","","recognition","survey-text","191","1151361","0.0-6.0-3.26","4985720","co39304","norming","","","{""guess"":""peperclips""}","","../img/tt/105tt.jpg","",""
"null","../img/gs/105gs.jpg","null","reveal","image-keyboard-response","192","1153385","0.0-6.0-4.26","4985720","co39304","norming","","","","","","",""
"null","../img/tt/105tt.jpg","null","mooney2","image-keyboard-response","193","1155404","0.0-6.0-5.26","4985720","co39304","norming","","","","","","",""
"5747.704999987036","","","post_reveal_questions","survey-likert","194","1161165","0.0-6.0-6.26","4985720","co39304","norming","","","{""aha"":2}","[0]","../img/tt/105tt.jpg","",""
"null","<div style=""font-size:60px;""> </div>","null","fixation","html-keyboard-response","195","1161468","0.0-6.0-0.27","4985720","co39304","norming","","","","","","",""
"null","../img/tt/300tt.jpg","null","mooney1","image-keyboard-response","196","1164486","0.0-6.0-1.27","4985720","co39304","norming","","","","","","",""
"5516.81000017561","","","post_mooney1_questions","survey-likert","197","1170020","0.0-6.0-2.27","4985720","co39304","norming","","","{""curiosity"":5,""confidence"":3}","[0,1]","../img/tt/300tt.jpg","",""
"13687.535000033677","","","recognition","survey-text","198","1183784","0.0-6.0-3.27","4985720","co39304","norming","","","{""guess"":""een vrouw dat iets op een balie plaatst""}","","../img/tt/300tt.jpg","",""
"null","../img/gs/300gs.jpg","null","reveal","image-keyboard-response","199","1185801","0.0-6.0-4.27","4985720","co39304","norming","","","","","","",""
"null","../img/tt/300tt.jpg","null","mooney2","image-keyboard-response","200","1187809","0.0-6.0-5.27","4985720","co39304","norming","","","","","","",""
"4060.930000152439","","","post_reveal_questions","survey-likert","201","1191882","0.0-6.0-6.27","4985720","co39304","norming","","","{""aha"":5}","[0]","../img/tt/300tt.jpg","",""
"null","<div style=""font-size:60px;""> </div>","null","fixation","html-keyboard-response","202","1192154","0.0-6.0-0.28","4985720","co39304","norming","","","","","","",""
"null","../img/tt/1188tt.jpg","null","mooney1","image-keyboard-response","203","1195171","0.0-6.0-1.28","4985720","co39304","norming","","","","","","",""
"5440.65500004217","","","post_mooney1_questions","survey-likert","204","1200622","0.0-6.0-2.28","4985720","co39304","norming","","","{""curiosity"":5,""confidence"":1}","[0,1]","../img/tt/1188tt.jpg","",""
"6987.715000053868","","","recognition","survey-text","205","1207703","0.0-6.0-3.28","4985720","co39304","norming","","","{""guess"":""een ijshockey speler""}","","../img/tt/1188tt.jpg","",""
"null","../img/gs/1188gs.jpg","null","reveal","image-keyboard-response","206","1209714","0.0-6.0-4.28","4985720","co39304","norming","","","","","","",""
"null","../img/tt/1188tt.jpg","null","mooney2","image-keyboard-response","207","1211717","0.0-6.0-5.28","4985720","co39304","norming","","","","","","",""
"4750.850000185892","","","post_reveal_questions","survey-likert","208","1216482","0.0-6.0-6.28","4985720","co39304","norming","","","{""aha"":6}","[0]","../img/tt/1188tt.jpg","",""
"null","<div style=""font-size:60px;""> </div>","null","fixation","html-keyboard-response","209","1216762","0.0-6.0-0.29","4985720","co39304","norming","","","","","","",""
"null","../img/tt/056tt.jpg","null","mooney1","image-keyboard-response","210","1219775","0.0-6.0-1.29","4985720","co39304","norming","","","","","","",""
"9574.855000013486","","","post_mooney1_questions","survey-likert","211","1229364","0.0-6.0-2.29","4985720","co39304","norming","","","{""curiosity"":5,""confidence"":1}","[0,1]","../img/tt/056tt.jpg","",""
"12082.500000018626","","","recognition","survey-text","212","1241503","0.0-6.0-3.29","4985720","co39304","norming","","","{""guess"":""een kangoeroe""}","","../img/tt/056tt.jpg","",""
"null","../img/gs/056gs.jpg","null","reveal","image-keyboard-response","213","1243522","0.0-6.0-4.29","4985720","co39304","norming","","","","","","",""
"null","../img/tt/056tt.jpg","null","mooney2","image-keyboard-response","214","1245540","0.0-6.0-5.29","4985720","co39304","norming","","","","","","",""
"5453.154999995604","","","post_reveal_questions","survey-likert","215","1251005","0.0-6.0-6.29","4985720","co39304","norming","","","{""aha"":5}","[0]","../img/tt/056tt.jpg","",""
"null","<div style=""font-size:60px;""> </div>","null","fixation","html-keyboard-response","216","1251289","0.0-6.0-0.30","4985720","co39304","norming","","","","","","",""
"null","../img/tt/357tt.jpg","null","mooney1","image-keyboard-response","217","1254309","0.0-6.0-1.30","4985720","co39304","norming","","","","","","",""
"4353.554999921471","","","post_mooney1_questions","survey-likert","218","1258681","0.0-6.0-2.30","4985720","co39304","norming","","","{""curiosity"":5,""confidence"":3}","[0,1]","../img/tt/357tt.jpg","",""
"3780.2549998741597","","","recognition","survey-text","219","1262553","0.0-6.0-3.30","4985720","co39304","norming","","","{""guess"":""een egel""}","","../img/tt/357tt.jpg","",""
"null","../img/gs/357gs.jpg","null","reveal","image-keyboard-response","220","1264569","0.0-6.0-4.30","4985720","co39304","norming","","","","","","",""
"null","../img/tt/357tt.jpg","null","mooney2","image-keyboard-response","221","1266578","0.0-6.0-5.30","4985720","co39304","norming","","","","","","",""
"4458.860000129789","","","post_reveal_questions","survey-likert","222","1271050","0.0-6.0-6.30","4985720","co39304","norming","","","{""aha"":2}","[0]","../img/tt/357tt.jpg","",""
"null","<div style=""font-size:60px;""> </div>","null","fixation","html-keyboard-response","223","1271340","0.0-6.0-0.31","4985720","co39304","norming","","","","","","",""
"null","../img/tt/046tt.jpg","null","mooney1","image-keyboard-response","224","1274357","0.0-6.0-1.31","4985720","co39304","norming","","","","","","",""
"7179.119999986142","","","post_mooney1_questions","survey-likert","225","1281553","0.0-6.0-2.31","4985720","co39304","norming","","","{""curiosity"":5,""confidence"":2}","[0,1]","../img/tt/046tt.jpg","",""
"6778.059999924153","","","recognition","survey-text","226","1288416","0.0-6.0-3.31","4985720","co39304","norming","","","{""guess"":""een man met een schildpad""}","","../img/tt/046tt.jpg","",""
"null","../img/gs/046gs.jpg","null","reveal","image-keyboard-response","227","1290431","0.0-6.0-4.31","4985720","co39304","norming","","","","","","",""
"null","../img/tt/046tt.jpg","null","mooney2","image-keyboard-response","228","1292437","0.0-6.0-5.31","4985720","co39304","norming","","","","","","",""
"4468.445000005886","","","post_reveal_questions","survey-likert","229","1296918","0.0-6.0-6.31","4985720","co39304","norming","","","{""aha"":5}","[0]","../img/tt/046tt.jpg","",""
"null","<div style=""font-size:60px;""> </div>","null","fixation","html-keyboard-response","230","1297197","0.0-6.0-0.32","4985720","co39304","norming","","","","","","",""
"null","../img/tt/060tt.jpg","null","mooney1","image-keyboard-response","231","1300221","0.0-6.0-1.32","4985720","co39304","norming","","","","","","",""
"5247.715000063181","","","post_mooney1_questions","survey-likert","232","1305488","0.0-6.0-2.32","4985720","co39304","norming","","","{""curiosity"":5,""confidence"":2}","[0,1]","../img/tt/060tt.jpg","",""
"4298.3750000130385","","","recognition","survey-text","233","1309884","0.0-6.0-3.32","4985720","co39304","norming","","","{""guess"":""een hamburger""}","","../img/tt/060tt.jpg","",""
"null","../img/gs/060gs.jpg","null","reveal","image-keyboard-response","234","1311910","0.0-6.0-4.32","4985720","co39304","norming","","","","","","",""
"null","../img/tt/060tt.jpg","null","mooney2","image-keyboard-response","235","1313926","0.0-6.0-5.32","4985720","co39304","norming","","","","","","",""
"3390.404999954626","","","post_reveal_questions","survey-likert","236","1317329","0.0-6.0-6.32","4985720","co39304","norming","","","{""aha"":5}","[0]","../img/tt/060tt.jpg","",""
"null","<div style=""font-size:60px;""> </div>","null","fixation","html-keyboard-response","237","1317609","0.0-6.0-0.33","4985720","co39304","norming","","","","","","",""
"null","../img/tt/405tt.jpg","null","mooney1","image-keyboard-response","238","1320629","0.0-6.0-1.33","4985720","co39304","norming","","","","","","",""
"6496.250000083819","","","post_mooney1_questions","survey-likert","239","1327144","0.0-6.0-2.33","4985720","co39304","norming","","","{""curiosity"":5,""confidence"":2}","[0,1]","../img/tt/405tt.jpg","",""
"2893.470000009984","","","recognition","survey-text","240","1330107","0.0-6.0-3.33","4985720","co39304","norming","","","{""guess"":""een hond""}","","../img/tt/405tt.jpg","",""
"null","../img/gs/405gs.jpg","null","reveal","image-keyboard-response","241","1332121","0.0-6.0-4.33","4985720","co39304","norming","","","","","","",""
"null","../img/tt/405tt.jpg","null","mooney2","image-keyboard-response","242","1334130","0.0-6.0-5.33","4985720","co39304","norming","","","","","","",""
"3614.7600000258535","","","post_reveal_questions","survey-likert","243","1337758","0.0-6.0-6.33","4985720","co39304","norming","","","{""aha"":5}","[0]","../img/tt/405tt.jpg","",""
"null","<div style=""font-size:60px;""> </div>","null","fixation","html-keyboard-response","244","1338042","0.0-6.0-0.34","4985720","co39304","norming","","","","","","",""
"null","../img/tt/438tt.jpg","null","mooney1","image-keyboard-response","245","1341064","0.0-6.0-1.34","4985720","co39304","norming","","","","","","",""
"7061.234999913722","","","post_mooney1_questions","survey-likert","246","1348141","0.0-6.0-2.34","4985720","co39304","norming","","","{""curiosity"":6,""confidence"":0}","[0,1]","../img/tt/438tt.jpg","",""
"2268.2499999646097","","","recognition","survey-text","247","1350490","0.0-6.0-3.34","4985720","co39304","norming","","","{""guess"":""""}","","../img/tt/438tt.jpg","",""
"null","../img/gs/438gs.jpg","null","reveal","image-keyboard-response","248","1352507","0.0-6.0-4.34","4985720","co39304","norming","","","","","","",""
"null","../img/tt/438tt.jpg","null","mooney2","image-keyboard-response","249","1354522","0.0-6.0-5.34","4985720","co39304","norming","","","","","","",""
"7615.660000126809","","","post_reveal_questions","survey-likert","250","1362150","0.0-6.0-6.34","4985720","co39304","norming","","","{""aha"":6}","[0]","../img/tt/438tt.jpg","",""
"null","<div style=""font-size:60px;""> </div>","null","fixation","html-keyboard-response","251","1362419","0.0-6.0-0.35","4985720","co39304","norming","","","","","","",""
"null","../img/tt/1087tt.jpg","null","mooney1","image-keyboard-response","252","1365438","0.0-6.0-1.35","4985720","co39304","norming","","","","","","",""
"6572.1700000576675","","","post_mooney1_questions","survey-likert","253","1372030","0.0-6.0-2.35","4985720","co39304","norming","","","{""curiosity"":3,""confidence"":6}","[0,1]","../img/tt/1087tt.jpg","",""
"3504.6600000932813","","","recognition","survey-text","254","1375636","0.0-6.0-3.35","4985720","co39304","norming","","","{""guess"":""schapen""}","","../img/tt/1087tt.jpg","",""
"null","../img/gs/1087gs.jpg","null","reveal","image-keyboard-response","255","1377649","0.0-6.0-4.35","4985720","co39304","norming","","","","","","",""
"null","../img/tt/1087tt.jpg","null","mooney2","image-keyboard-response","256","1379667","0.0-6.0-5.35","4985720","co39304","norming","","","","","","",""
"3389.7649999707937","","","post_reveal_questions","survey-likert","257","1383069","0.0-6.0-6.35","4985720","co39304","norming","","","{""aha"":0}","[0]","../img/tt/1087tt.jpg","",""
"null","<div style=""font-size:60px;""> </div>","null","fixation","html-keyboard-response","258","1383365","0.0-6.0-0.36","4985720","co39304","norming","","","","","","",""
"null","../img/tt/1189tt.jpg","null","mooney1","image-keyboard-response","259","1386384","0.0-6.0-1.36","4985720","co39304","norming","","","","","","",""
"4183.829999994487","","","post_mooney1_questions","survey-likert","260","1390586","0.0-6.0-2.36","4985720","co39304","norming","","","{""curiosity"":5,""confidence"":3}","[0,1]","../img/tt/1189tt.jpg","",""
"4413.5400000959635","","","recognition","survey-text","261","1395109","0.0-6.0-3.36","4985720","co39304","norming","","","{""guess"":""een krokodil""}","","../img/tt/1189tt.jpg","",""
"null","../img/gs/1189gs.jpg","null","reveal","image-keyboard-response","262","1397133","0.0-6.0-4.36","4985720","co39304","norming","","","","","","",""
"null","../img/tt/1189tt.jpg","null","mooney2","image-keyboard-response","263","1399145","0.0-6.0-5.36","4985720","co39304","norming","","","","","","",""
"16063.159999903291","","","post_reveal_questions","survey-likert","264","1415224","0.0-6.0-6.36","4985720","co39304","norming","","","{""aha"":5}","[0]","../img/tt/1189tt.jpg","",""
"null","<div style=""font-size:60px;""> </div>","null","fixation","html-keyboard-response","265","1415510","0.0-6.0-0.37","4985720","co39304","norming","","","","","","",""
"null","../img/tt/040tt.jpg","null","mooney1","image-keyboard-response","266","1418528","0.0-6.0-1.37","4985720","co39304","norming","","","","","","",""
"7153.569999849424","","","post_mooney1_questions","survey-likert","267","1425701","0.0-6.0-2.37","4985720","co39304","norming","","","{""curiosity"":4,""confidence"":6}","[0,1]","../img/tt/040tt.jpg","",""
"5747.745000058785","","","recognition","survey-text","268","1431540","0.0-6.0-3.37","4985720","co39304","norming","","","{""guess"":""een aap""}","","../img/tt/040tt.jpg","",""
"null","../img/gs/040gs.jpg","null","reveal","image-keyboard-response","269","1433569","0.0-6.0-4.37","4985720","co39304","norming","","","","","","",""
"null","../img/tt/040tt.jpg","null","mooney2","image-keyboard-response","270","1435576","0.0-6.0-5.37","4985720","co39304","norming","","","","","","",""
"5506.640000035986","","","post_reveal_questions","survey-likert","271","1441093","0.0-6.0-6.37","4985720","co39304","norming","","","{""aha"":0}","[0]","../img/tt/040tt.jpg","",""
"null","<div style=""font-size:60px;""> </div>","null","fixation","html-keyboard-response","272","1441356","0.0-6.0-0.38","4985720","co39304","norming","","","","","","",""
"null","../img/tt/082tt.jpg","null","mooney1","image-keyboard-response","273","1444377","0.0-6.0-1.38","4985720","co39304","norming","","","","","","",""
"5768.3149999938905","","","post_mooney1_questions","survey-likert","274","1450163","0.0-6.0-2.38","4985720","co39304","norming","","","{""curiosity"":4,""confidence"":6}","[0,1]","../img/tt/082tt.jpg","",""
"7354.195000138134","","","recognition","survey-text","275","1457629","0.0-6.0-3.38","4985720","co39304","norming","","","{""guess"":""een papegaai""}","","../img/tt/082tt.jpg","",""
"null","../img/gs/082gs.jpg","null","reveal","image-keyboard-response","276","1459636","0.0-6.0-4.38","4985720","co39304","norming","","","","","","",""
"null","../img/tt/082tt.jpg","null","mooney2","image-keyboard-response","277","1461642","0.0-6.0-5.38","4985720","co39304","norming","","","","","","",""
"3752.3550000041723","","","post_reveal_questions","survey-likert","278","1465407","0.0-6.0-6.38","4985720","co39304","norming","","","{""aha"":0}","[0]","../img/tt/082tt.jpg","",""
"null","<div style=""font-size:60px;""> </div>","null","fixation","html-keyboard-response","279","1465686","0.0-6.0-0.39","4985720","co39304","norming","","","","","","",""
"null","../img/tt/094tt.jpg","null","mooney1","image-keyboard-response","280","1468711","0.0-6.0-1.39","4985720","co39304","norming","","","","","","",""
"5967.264999868348","","","post_mooney1_questions","survey-likert","281","1474696","0.0-6.0-2.39","4985720","co39304","norming","","","{""curiosity"":6,""confidence"":1}","[0,1]","../img/tt/094tt.jpg","",""
"4829.94500012137","","","recognition","survey-text","282","1479596","0.0-6.0-3.39","4985720","co39304","norming","","","{""guess"":""een wolf""}","","../img/tt/094tt.jpg","",""
"null","../img/gs/094gs.jpg","null","reveal","image-keyboard-response","283","1481620","0.0-6.0-4.39","4985720","co39304","norming","","","","","","",""
"null","../img/tt/094tt.jpg","null","mooney2","image-keyboard-response","284","1483633","0.0-6.0-5.39","4985720","co39304","norming","","","","","","",""
"5503.15500004217","","","post_reveal_questions","survey-likert","285","1489149","0.0-6.0-6.39","4985720","co39304","norming","","","{""aha"":6}","[0]","../img/tt/094tt.jpg","",""
"null","<div style=""font-size:60px;""> </div>","null","fixation","html-keyboard-response","286","1489417","0.0-6.0-0.40","4985720","co39304","norming","","","","","","",""
"null","../img/tt/032tt.jpg","null","mooney1","image-keyboard-response","287","1492435","0.0-6.0-1.40","4985720","co39304","norming","","","","","","",""
"4438.744999933988","","","post_mooney1_questions","survey-likert","288","1496896","0.0-6.0-2.40","4985720","co39304","norming","","","{""curiosity"":6,""confidence"":0}","[0,1]","../img/tt/032tt.jpg","",""
"978.899999987334","","","recognition","survey-text","289","1497962","0.0-6.0-3.40","4985720","co39304","norming","","","{""guess"":""""}","","../img/tt/032tt.jpg","",""
"null","../img/gs/032gs.jpg","null","reveal","image-keyboard-response","290","1499982","0.0-6.0-4.40","4985720","co39304","norming","","","","","","",""
"null","../img/tt/032tt.jpg","null","mooney2","image-keyboard-response","291","1501997","0.0-6.0-5.40","4985720","co39304","norming","","","","","","",""
"4090.5600001569837","","","post_reveal_questions","survey-likert","292","1506100","0.0-6.0-6.40","4985720","co39304","norming","","","{""aha"":6}","[0]","../img/tt/032tt.jpg","",""
"null","<div style=""font-size:60px;""> </div>","null","fixation","html-keyboard-response","293","1506430","0.0-6.0-0.41","4985720","co39304","norming","","","","","","",""
"null","../img/tt/534tt.jpg","null","mooney1","image-keyboard-response","294","1509449","0.0-6.0-1.41","4985720","co39304","norming","","","","","","",""
"8815.78000006266","","","post_mooney1_questions","survey-likert","295","1518283","0.0-6.0-2.41","4985720","co39304","norming","","","{""curiosity"":5,""confidence"":2}","[0,1]","../img/tt/534tt.jpg","",""
"7789.894999936223","","","recognition","survey-text","296","1526155","0.0-6.0-3.41","4985720","co39304","norming","","","{""guess"":""cactussen""}","","../img/tt/534tt.jpg","",""
"null","../img/gs/534gs.jpg","null","reveal","image-keyboard-response","297","1528168","0.0-6.0-4.41","4985720","co39304","norming","","","","","","",""
"null","../img/tt/534tt.jpg","null","mooney2","image-keyboard-response","298","1530182","0.0-6.0-5.41","4985720","co39304","norming","","","","","","",""
"3639.160000020638","","","post_reveal_questions","survey-likert","299","1533833","0.0-6.0-6.41","4985720","co39304","norming","","","{""aha"":4}","[0]","../img/tt/534tt.jpg","",""
"null","<div style=""font-size:60px;""> </div>","null","fixation","html-keyboard-response","300","1534096","0.0-6.0-0.42","4985720","co39304","norming","","","","","","",""
"null","../img/tt/318tt.jpg","null","mooney1","image-keyboard-response","301","1537111","0.0-6.0-1.42","4985720","co39304","norming","","","","","","",""
"4564.869999885559","","","post_mooney1_questions","survey-likert","302","1541694","0.0-6.0-2.42","4985720","co39304","norming","","","{""curiosity"":5,""confidence"":1}","[0,1]","../img/tt/318tt.jpg","",""
"5268.219999969006","","","recognition","survey-text","303","1547093","0.0-6.0-3.42","4985720","co39304","norming","","","{""guess"":""een helm""}","","../img/tt/318tt.jpg","",""
"null","../img/gs/318gs.jpg","null","reveal","image-keyboard-response","304","1549110","0.0-6.0-4.42","4985720","co39304","norming","","","","","","",""
"null","../img/tt/318tt.jpg","null","mooney2","image-keyboard-response","305","1551123","0.0-6.0-5.42","4985720","co39304","norming","","","","","","",""
"4005.1649999804795","","","post_reveal_questions","survey-likert","306","1555141","0.0-6.0-6.42","4985720","co39304","norming","","","{""aha"":6}","[0]","../img/tt/318tt.jpg","",""
"null","<div style=""font-size:60px;""> </div>","null","fixation","html-keyboard-response","307","1555476","0.0-6.0-0.43","4985720","co39304","norming","","","","","","",""
"null","../img/tt/194tt.jpg","null","mooney1","image-keyboard-response","308","1558499","0.0-6.0-1.43","4985720","co39304","norming","","","","","","",""
"7239.919999847189","","","post_mooney1_questions","survey-likert","309","1565757","0.0-6.0-2.43","4985720","co39304","norming","","","{""curiosity"":5,""confidence"":3}","[0,1]","../img/tt/194tt.jpg","",""
"20947.775000007823","","","recognition","survey-text","310","1586824","0.0-6.0-3.43","4985720","co39304","norming","","","{""guess"":""een vrouw dat een muziekinstrument aan het spelen is""}","","../img/tt/194tt.jpg","",""
"null","../img/gs/194gs.jpg","null","reveal","image-keyboard-response","311","1588838","0.0-6.0-4.43","4985720","co39304","norming","","","","","","",""
"null","../img/tt/194tt.jpg","null","mooney2","image-keyboard-response","312","1590846","0.0-6.0-5.43","4985720","co39304","norming","","","","","","",""
"3514.689999865368","","","post_reveal_questions","survey-likert","313","1594375","0.0-6.0-6.43","4985720","co39304","norming","","","{""aha"":4}","[0]","../img/tt/194tt.jpg","",""
"null","<div style=""font-size:60px;""> </div>","null","fixation","html-keyboard-response","314","1594665","0.0-6.0-0.44","4985720","co39304","norming","","","","","","",""
"null","../img/tt/1049tt.jpg","null","mooney1","image-keyboard-response","315","1597683","0.0-6.0-1.44","4985720","co39304","norming","","","","","","",""
"6351.729999994859","","","post_mooney1_questions","survey-likert","316","1604052","0.0-6.0-2.44","4985720","co39304","norming","","","{""curiosity"":6,""confidence"":1}","[0,1]","../img/tt/1049tt.jpg","",""
"6183.24499996379","","","recognition","survey-text","317","1610315","0.0-6.0-3.44","4985720","co39304","norming","","","{""guess"":""een vrouw dat op een bank zit""}","","../img/tt/1049tt.jpg","",""
"null","../img/gs/1049gs.jpg","null","reveal","image-keyboard-response","318","1612331","0.0-6.0-4.44","4985720","co39304","norming","","","","","","",""
"null","../img/tt/1049tt.jpg","null","mooney2","image-keyboard-response","319","1614337","0.0-6.0-5.44","4985720","co39304","norming","","","","","","",""
"2530.625000130385","","","post_reveal_questions","survey-likert","320","1616881","0.0-6.0-6.44","4985720","co39304","norming","","","{""aha"":6}","[0]","../img/tt/1049tt.jpg","",""
"null","<div style=""font-size:60px;""> </div>","null","fixation","html-keyboard-response","321","1617179","0.0-6.0-0.45","4985720","co39304","norming","","","","","","",""
"null","../img/tt/1261tt.jpg","null","mooney1","image-keyboard-response","322","1620196","0.0-6.0-1.45","4985720","co39304","norming","","","","","","",""
"8082.08499988541","","","post_mooney1_questions","survey-likert","323","1628296","0.0-6.0-2.45","4985720","co39304","norming","","","{""curiosity"":6,""confidence"":3}","[0,1]","../img/tt/1261tt.jpg","",""
"3806.489999871701","","","recognition","survey-text","324","1632198","0.0-6.0-3.45","4985720","co39304","norming","","","{""guess"":""een hagedis""}","","../img/tt/1261tt.jpg","",""
"null","../img/gs/1261gs.jpg","null","reveal","image-keyboard-response","325","1634215","0.0-6.0-4.45","4985720","co39304","norming","","","","","","",""
"null","../img/tt/1261tt.jpg","null","mooney2","image-keyboard-response","326","1636229","0.0-6.0-5.45","4985720","co39304","norming","","","","","","",""
"3197.764999931678","","","post_reveal_questions","survey-likert","327","1639440","0.0-6.0-6.45","4985720","co39304","norming","","","{""aha"":6}","[0]","../img/tt/1261tt.jpg","",""
"null","<div style=""font-size:60px;""> </div>","null","fixation","html-keyboard-response","328","1639743","0.0-6.0-0.46","4985720","co39304","norming","","","","","","",""
"null","../img/tt/1237tt.jpg","null","mooney1","image-keyboard-response","329","1642758","0.0-6.0-1.46","4985720","co39304","norming","","","","","","",""
"8284.100000048056","","","post_mooney1_questions","survey-likert","330","1651061","0.0-6.0-2.46","4985720","co39304","norming","","","{""curiosity"":1,""confidence"":6}","[0,1]","../img/tt/1237tt.jpg","",""
"4987.844999879599","","","recognition","survey-text","331","1656146","0.0-6.0-3.46","4985720","co39304","norming","","","{""guess"":""een eend""}","","../img/tt/1237tt.jpg","",""
"null","../img/gs/1237gs.jpg","null","reveal","image-keyboard-response","332","1658158","0.0-6.0-4.46","4985720","co39304","norming","","","","","","",""
"null","../img/tt/1237tt.jpg","null","mooney2","image-keyboard-response","333","1660171","0.0-6.0-5.46","4985720","co39304","norming","","","","","","",""
"3860.1050002034754","","","post_reveal_questions","survey-likert","334","1664044","0.0-6.0-6.46","4985720","co39304","norming","","","{""aha"":0}","[0]","../img/tt/1237tt.jpg","",""
"null","<div style=""font-size:60px;""> </div>","null","fixation","html-keyboard-response","335","1664323","0.0-6.0-0.47","4985720","co39304","norming","","","","","","",""
"null","../img/tt/378tt.jpg","null","mooney1","image-keyboard-response","336","1667333","0.0-6.0-1.47","4985720","co39304","norming","","","","","","",""
"4863.039999967441","","","post_mooney1_questions","survey-likert","337","1672214","0.0-6.0-2.47","4985720","co39304","norming","","","{""curiosity"":6,""confidence"":0}","[0,1]","../img/tt/378tt.jpg","",""
"1089.2750001512468","","","recognition","survey-text","338","1673371","0.0-6.0-3.47","4985720","co39304","norming","","","{""guess"":""""}","","../img/tt/378tt.jpg","",""
"null","../img/gs/378gs.jpg","null","reveal","image-keyboard-response","339","1675389","0.0-6.0-4.47","4985720","co39304","norming","","","","","","",""
"null","../img/tt/378tt.jpg","null","mooney2","image-keyboard-response","340","1677403","0.0-6.0-5.47","4985720","co39304","norming","","","","","","",""
"4301.075000083074","","","post_reveal_questions","survey-likert","341","1681721","0.0-6.0-6.47","4985720","co39304","norming","","","{""aha"":6}","[0]","../img/tt/378tt.jpg","",""
"null","<div style=""font-size:60px;""> </div>","null","fixation","html-keyboard-response","342","1682051","0.0-6.0-0.48","4985720","co39304","norming","","","","","","",""
"null","../img/tt/1175tt.jpg","null","mooney1","image-keyboard-response","343","1685067","0.0-6.0-1.48","4985720","co39304","norming","","","","","","",""
"5524.319999851286","","","post_mooney1_questions","survey-likert","344","1690611","0.0-6.0-2.48","4985720","co39304","norming","","","{""curiosity"":6,""confidence"":1}","[0,1]","../img/tt/1175tt.jpg","",""
"14804.414999904111","","","recognition","survey-text","345","1705478","0.0-6.0-3.48","4985720","co39304","norming","","","{""guess"":""een fabriek in de industrile revolutie""}","","../img/tt/1175tt.jpg","",""
"null","../img/gs/1175gs.jpg","null","reveal","image-keyboard-response","346","1707497","0.0-6.0-4.48","4985720","co39304","norming","","","","","","",""
"null","../img/tt/1175tt.jpg","null","mooney2","image-keyboard-response","347","1709517","0.0-6.0-5.48","4985720","co39304","norming","","","","","","",""
"3047.2299999091774","","","post_reveal_questions","survey-likert","348","1712575","0.0-6.0-6.48","4985720","co39304","norming","","","{""aha"":6}","[0]","../img/tt/1175tt.jpg","",""
"null","<div style=""font-size:60px;""> </div>","null","fixation","html-keyboard-response","349","1712879","0.0-6.0-0.49","4985720","co39304","norming","","","","","","",""
"null","../img/tt/1269tt.jpg","null","mooney1","image-keyboard-response","350","1715901","0.0-6.0-1.49","4985720","co39304","norming","","","","","","",""
"5503.4900000318885","","","post_mooney1_questions","survey-likert","351","1721423","0.0-6.0-2.49","4985720","co39304","norming","","","{""curiosity"":5,""confidence"":5}","[0,1]","../img/tt/1269tt.jpg","",""
"4604.885000037029","","","recognition","survey-text","352","1726093","0.0-6.0-3.49","4985720","co39304","norming","","","{""guess"":""een eekhoorn""}","","../img/tt/1269tt.jpg","",""
"null","../img/gs/1269gs.jpg","null","reveal","image-keyboard-response","353","1728109","0.0-6.0-4.49","4985720","co39304","norming","","","","","","",""
"null","../img/tt/1269tt.jpg","null","mooney2","image-keyboard-response","354","1730118","0.0-6.0-5.49","4985720","co39304","norming","","","","","","",""
"8125.639999983832","","","post_reveal_questions","survey-likert","355","1738254","0.0-6.0-6.49","4985720","co39304","norming","","","{""aha"":1}","[0]","../img/tt/1269tt.jpg","",""
"null","<div style=""font-size:60px;""> </div>","null","fixation","html-keyboard-response","356","1738508","0.0-6.0-0.50","4985720","co39304","norming","","","","","","",""
"null","../img/tt/515tt.jpg","null","mooney1","image-keyboard-response","357","1741525","0.0-6.0-1.50","4985720","co39304","norming","","","","","","",""
"6556.99499999173","","","post_mooney1_questions","survey-likert","358","1748090","0.0-6.0-2.50","4985720","co39304","norming","","","{""curiosity"":6,""confidence"":2}","[0,1]","../img/tt/515tt.jpg","",""
"4354.624999919906","","","recognition","survey-text","359","1752518","0.0-6.0-3.50","4985720","co39304","norming","","","{""guess"":""een zadel""}","","../img/tt/515tt.jpg","",""
"null","../img/gs/515gs.jpg","null","reveal","image-keyboard-response","360","1754538","0.0-6.0-4.50","4985720","co39304","norming","","","","","","",""
"null","../img/tt/515tt.jpg","null","mooney2","image-keyboard-response","361","1756555","0.0-6.0-5.50","4985720","co39304","norming","","","","","","",""
"9449.665000196546","","","post_reveal_questions","survey-likert","362","1766018","0.0-6.0-6.50","4985720","co39304","norming","","","{""aha"":5}","[0]","../img/tt/515tt.jpg","",""
"null","<div style=""font-size:60px;""> </div>","null","fixation","html-keyboard-response","363","1766286","0.0-6.0-0.51","4985720","co39304","norming","","","","","","",""
"null","../img/tt/020tt.jpg","null","mooney1","image-keyboard-response","364","1769297","0.0-6.0-1.51","4985720","co39304","norming","","","","","","",""
"6102.259999839589","","","post_mooney1_questions","survey-likert","365","1775408","0.0-6.0-2.51","4985720","co39304","norming","","","{""curiosity"":1,""confidence"":6}","[0,1]","../img/tt/020tt.jpg","",""
"3836.8899999186397","","","recognition","survey-text","366","1779317","0.0-6.0-3.51","4985720","co39304","norming","","","{""guess"":""een hond""}","","../img/tt/020tt.jpg","",""
"null","../img/gs/020gs.jpg","null","reveal","image-keyboard-response","367","1781335","0.0-6.0-4.51","4985720","co39304","norming","","","","","","",""
"null","../img/tt/020tt.jpg","null","mooney2","image-keyboard-response","368","1783350","0.0-6.0-5.51","4985720","co39304","norming","","","","","","",""
"6902.410000097007","","","post_reveal_questions","survey-likert","369","1790264","0.0-6.0-6.51","4985720","co39304","norming","","","{""aha"":6}","[0]","../img/tt/020tt.jpg","",""
"null","<div style=""font-size:60px;""> </div>","null","fixation","html-keyboard-response","370","1790548","0.0-6.0-0.52","4985720","co39304","norming","","","","","","",""
"null","../img/tt/1096tt.jpg","null","mooney1","image-keyboard-response","371","1793568","0.0-6.0-1.52","4985720","co39304","norming","","","","","","",""
"7503.634999971837","","","post_mooney1_questions","survey-likert","372","1801091","0.0-6.0-2.52","4985720","co39304","norming","","","{""curiosity"":5,""confidence"":4}","[0,1]","../img/tt/1096tt.jpg","",""
"11526.830000104383","","","recognition","survey-text","373","1812699","0.0-6.0-3.52","4985720","co39304","norming","","","{""guess"":""een kamer met een piano en een trap""}","","../img/tt/1096tt.jpg","",""
"null","../img/gs/1096gs.jpg","null","reveal","image-keyboard-response","374","1814714","0.0-6.0-4.52","4985720","co39304","norming","","","","","","",""
"null","../img/tt/1096tt.jpg","null","mooney2","image-keyboard-response","375","1816733","0.0-6.0-5.52","4985720","co39304","norming","","","","","","",""
"2981.3550000544637","","","post_reveal_questions","survey-likert","376","1819730","0.0-6.0-6.52","4985720","co39304","norming","","","{""aha"":6}","[0]","../img/tt/1096tt.jpg","",""
"null","<div style=""font-size:60px;""> </div>","null","fixation","html-keyboard-response","377","1820012","0.0-6.0-0.53","4985720","co39304","norming","","","","","","",""
"null","../img/tt/1066tt.jpg","null","mooney1","image-keyboard-response","378","1823037","0.0-6.0-1.53","4985720","co39304","norming","","","","","","",""
"5361.735000042245","","","post_mooney1_questions","survey-likert","379","1828417","0.0-6.0-2.53","4985720","co39304","norming","","","{""curiosity"":2,""confidence"":6}","[0,1]","../img/tt/1066tt.jpg","",""
"69183.96000005305","","","recognition","survey-text","380","1897710","0.0-6.0-3.53","4985720","co39304","norming","","","{""guess"":""een bus in een stad""}","","../img/tt/1066tt.jpg","",""
"null","../img/gs/1066gs.jpg","null","reveal","image-keyboard-response","381","1899731","0.0-6.0-4.53","4985720","co39304","norming","","","","","","",""
"null","../img/tt/1066tt.jpg","null","mooney2","image-keyboard-response","382","1901738","0.0-6.0-5.53","4985720","co39304","norming","","","","","","",""
"10607.624999945983","","","post_reveal_questions","survey-likert","383","1912360","0.0-6.0-6.53","4985720","co39304","norming","","","{""aha"":4}","[0]","../img/tt/1066tt.jpg","",""
"null","<div style=""font-size:60px;""> </div>","null","fixation","html-keyboard-response","384","1912646","0.0-6.0-0.54","4985720","co39304","norming","","","","","","",""
"null","../img/tt/1122tt.jpg","null","mooney1","image-keyboard-response","385","1915664","0.0-6.0-1.54","4985720","co39304","norming","","","","","","",""
"6535.7600001152605","","","post_mooney1_questions","survey-likert","386","1922218","0.0-6.0-2.54","4985720","co39304","norming","","","{""curiosity"":5,""confidence"":3}","[0,1]","../img/tt/1122tt.jpg","",""
"3702.619999879971","","","recognition","survey-text","387","1925996","0.0-6.0-3.54","4985720","co39304","norming","","","{""guess"":""boten""}","","../img/tt/1122tt.jpg","",""
"null","../img/gs/1122gs.jpg","null","reveal","image-keyboard-response","388","1928018","0.0-6.0-4.54","4985720","co39304","norming","","","","","","",""
"null","../img/tt/1122tt.jpg","null","mooney2","image-keyboard-response","389","1930033","0.0-6.0-5.54","4985720","co39304","norming","","","","","","",""
"11728.959999978542","","","post_reveal_questions","survey-likert","390","1941775","0.0-6.0-6.54","4985720","co39304","norming","","","{""aha"":5}","[0]","../img/tt/1122tt.jpg","",""
"null","<div style=""font-size:60px;""> </div>","null","fixation","html-keyboard-response","391","1942074","0.0-6.0-0.55","4985720","co39304","norming","","","","","","",""
"null","../img/tt/440tt.jpg","null","mooney1","image-keyboard-response","392","1945092","0.0-6.0-1.55","4985720","co39304","norming","","","","","","",""
"5865.089999977499","","","post_mooney1_questions","survey-likert","393","1950976","0.0-6.0-2.55","4985720","co39304","norming","","","{""curiosity"":5,""confidence"":5}","[0,1]","../img/tt/440tt.jpg","",""
"9411.430000094697","","","recognition","survey-text","394","1960504","0.0-6.0-3.55","4985720","co39304","norming","","","{""guess"":""een boksring""}","","../img/tt/440tt.jpg","",""
"null","../img/gs/440gs.jpg","null","reveal","image-keyboard-response","395","1962524","0.0-6.0-4.55","4985720","co39304","norming","","","","","","",""
"null","../img/tt/440tt.jpg","null","mooney2","image-keyboard-response","396","1964540","0.0-6.0-5.55","4985720","co39304","norming","","","","","","",""
"3483.8650000747293","","","post_reveal_questions","survey-likert","397","1968037","0.0-6.0-6.55","4985720","co39304","norming","","","{""aha"":6}","[0]","../img/tt/440tt.jpg","",""
"null","<div style=""font-size:60px;""> </div>","null","fixation","html-keyboard-response","398","1968321","0.0-6.0-0.56","4985720","co39304","norming","","","","","","",""
"null","../img/tt/084tt.jpg","null","mooney1","image-keyboard-response","399","1971337","0.0-6.0-1.56","4985720","co39304","norming","","","","","","",""
"6164.319999981672","","","post_mooney1_questions","survey-likert","400","1977520","0.0-6.0-2.56","4985720","co39304","norming","","","{""curiosity"":6,""confidence"":1}","[0,1]","../img/tt/084tt.jpg","",""
"4922.800000058487","","","recognition","survey-text","401","1982514","0.0-6.0-3.56","4985720","co39304","norming","","","{""guess"":""hooi""}","","../img/tt/084tt.jpg","",""
"null","../img/gs/084gs.jpg","null","reveal","image-keyboard-response","402","1984536","0.0-6.0-4.56","4985720","co39304","norming","","","","","","",""
"null","../img/tt/084tt.jpg","null","mooney2","image-keyboard-response","403","1986550","0.0-6.0-5.56","4985720","co39304","norming","","","","","","",""
"5455.395000055432","","","post_reveal_questions","survey-likert","404","1992019","0.0-6.0-6.56","4985720","co39304","norming","","","{""aha"":6}","[0]","../img/tt/084tt.jpg","",""
"null","<div style=""font-size:60px;""> </div>","null","fixation","html-keyboard-response","405","1992300","0.0-6.0-0.57","4985720","co39304","norming","","","","","","",""
"null","../img/tt/049tt.jpg","null","mooney1","image-keyboard-response","406","1995318","0.0-6.0-1.57","4985720","co39304","norming","","","","","","",""
"12373.510000063106","","","post_mooney1_questions","survey-likert","407","2007711","0.0-6.0-2.57","4985720","co39304","norming","","","{""curiosity"":5,""confidence"":5}","[0,1]","../img/tt/049tt.jpg","",""
"6168.559999903664","","","recognition","survey-text","408","2013979","0.0-6.0-3.57","4985720","co39304","norming","","","{""guess"":""een gordeldier""}","","../img/tt/049tt.jpg","",""
"null","../img/gs/049gs.jpg","null","reveal","image-keyboard-response","409","2015996","0.0-6.0-4.57","4985720","co39304","norming","","","","","","",""
"null","../img/tt/049tt.jpg","null","mooney2","image-keyboard-response","410","2018005","0.0-6.0-5.57","4985720","co39304","norming","","","","","","",""
"3288.440000033006","","","post_reveal_questions","survey-likert","411","2021308","0.0-6.0-6.57","4985720","co39304","norming","","","{""aha"":5}","[0]","../img/tt/049tt.jpg","",""
"null","<div style=""font-size:60px;""> </div>","null","fixation","html-keyboard-response","412","2021594","0.0-6.0-0.58","4985720","co39304","norming","","","","","","",""
"null","../img/tt/522tt.jpg","null","mooney1","image-keyboard-response","413","2024604","0.0-6.0-1.58","4985720","co39304","norming","","","","","","",""
"12379.034999990836","","","post_mooney1_questions","survey-likert","414","2036999","0.0-6.0-2.58","4985720","co39304","norming","","","{""curiosity"":4,""confidence"":3}","[0,1]","../img/tt/522tt.jpg","",""
"6525.399999925867","","","recognition","survey-text","415","2043581","0.0-6.0-3.58","4985720","co39304","norming","","","{""guess"":""een kat""}","","../img/tt/522tt.jpg","",""
"null","../img/gs/522gs.jpg","null","reveal","image-keyboard-response","416","2045606","0.0-6.0-4.58","4985720","co39304","norming","","","","","","",""
"null","../img/tt/522tt.jpg","null","mooney2","image-keyboard-response","417","2047624","0.0-6.0-5.58","4985720","co39304","norming","","","","","","",""
"32699.095000047237","","","post_reveal_questions","survey-likert","418","2080337","0.0-6.0-6.58","4985720","co39304","norming","","","{""aha"":4}","[0]","../img/tt/522tt.jpg","",""
"null","<div style=""font-size:60px;""> </div>","null","fixation","html-keyboard-response","419","2080634","0.0-6.0-0.59","4985720","co39304","norming","","","","","","",""
"null","../img/tt/108tt.jpg","null","mooney1","image-keyboard-response","420","2083661","0.0-6.0-1.59","4985720","co39304","norming","","","","","","",""
"5360.235000029206","","","post_mooney1_questions","survey-likert","421","2089039","0.0-6.0-2.59","4985720","co39304","norming","","","{""curiosity"":5,""confidence"":1}","[0,1]","../img/tt/108tt.jpg","",""
"5644.975000061095","","","recognition","survey-text","422","2094756","0.0-6.0-3.59","4985720","co39304","norming","","","{""guess"":""een miereneter""}","","../img/tt/108tt.jpg","",""
"null","../img/gs/108gs.jpg","null","reveal","image-keyboard-response","423","2096778","0.0-6.0-4.59","4985720","co39304","norming","","","","","","",""
"null","../img/tt/108tt.jpg","null","mooney2","image-keyboard-response","424","2098786","0.0-6.0-5.59","4985720","co39304","norming","","","","","","",""
"5988.329999847338","","","post_reveal_questions","survey-likert","425","2104788","0.0-6.0-6.59","4985720","co39304","norming","","","{""aha"":6}","[0]","../img/tt/108tt.jpg","",""
"null","<div style=""font-size:60px;""> </div>","null","fixation","html-keyboard-response","426","2105099","0.0-6.0-0.60","4985720","co39304","norming","","","","","","",""
"null","../img/tt/1196tt.jpg","null","mooney1","image-keyboard-response","427","2108121","0.0-6.0-1.60","4985720","co39304","norming","","","","","","",""
"5197.06999999471","","","post_mooney1_questions","survey-likert","428","2113335","0.0-6.0-2.60","4985720","co39304","norming","","","{""curiosity"":5,""confidence"":1}","[0,1]","../img/tt/1196tt.jpg","",""
"5272.33500010334","","","recognition","survey-text","429","2118697","0.0-6.0-3.60","4985720","co39304","norming","","","{""guess"":""een stoel""}","","../img/tt/1196tt.jpg","",""
"null","../img/gs/1196gs.jpg","null","reveal","image-keyboard-response","430","2120723","0.0-6.0-4.60","4985720","co39304","norming","","","","","","",""
"null","../img/tt/1196tt.jpg","null","mooney2","image-keyboard-response","431","2122735","0.0-6.0-5.60","4985720","co39304","norming","","","","","","",""
"6686.549999983981","","","post_reveal_questions","survey-likert","432","2129428","0.0-6.0-6.60","4985720","co39304","norming","","","{""aha"":6}","[0]","../img/tt/1196tt.jpg","",""
"null","<div style=""font-size:60px;""> </div>","null","fixation","html-keyboard-response","433","2129703","0.0-6.0-0.61","4985720","co39304","norming","","","","","","",""
"null","../img/tt/036tt.jpg","null","mooney1","image-keyboard-response","434","2132726","0.0-6.0-1.61","4985720","co39304","norming","","","","","","",""
"8911.58500011079","","","post_mooney1_questions","survey-likert","435","2141643","0.0-6.0-2.61","4985720","co39304","norming","","","{""curiosity"":5,""confidence"":2}","[0,1]","../img/tt/036tt.jpg","",""
"6763.319999910891","","","recognition","survey-text","436","2148460","0.0-6.0-3.61","4985720","co39304","norming","","","{""guess"":""een web""}","","../img/tt/036tt.jpg","",""
"null","../img/gs/036gs.jpg","null","reveal","image-keyboard-response","437","2150477","0.0-6.0-4.61","4985720","co39304","norming","","","","","","",""
"null","../img/tt/036tt.jpg","null","mooney2","image-keyboard-response","438","2152491","0.0-6.0-5.61","4985720","co39304","norming","","","","","","",""
"9001.470000017434","","","post_reveal_questions","survey-likert","439","2161506","0.0-6.0-6.61","4985720","co39304","norming","","","{""aha"":5}","[0]","../img/tt/036tt.jpg","",""
"null","<div style=""font-size:60px;""> </div>","null","fixation","html-keyboard-response","440","2161789","0.0-6.0-0.62","4985720","co39304","norming","","","","","","",""
"null","../img/tt/1186tt.jpg","null","mooney1","image-keyboard-response","441","2164812","0.0-6.0-1.62","4985720","co39304","norming","","","","","","",""
"5032.780000008643","","","post_mooney1_questions","survey-likert","442","2169863","0.0-6.0-2.62","4985720","co39304","norming","","","{""curiosity"":5,""confidence"":3}","[0,1]","../img/tt/1186tt.jpg","",""
"3294.6399999782443","","","recognition","survey-text","443","2173250","0.0-6.0-3.62","4985720","co39304","norming","","","{""guess"":""een soldaat""}","","../img/tt/1186tt.jpg","",""
"null","../img/gs/1186gs.jpg","null","reveal","image-keyboard-response","444","2175273","0.0-6.0-4.62","4985720","co39304","norming","","","","","","",""
"null","../img/tt/1186tt.jpg","null","mooney2","image-keyboard-response","445","2177289","0.0-6.0-5.62","4985720","co39304","norming","","","","","","",""
"3679.554999805987","","","post_reveal_questions","survey-likert","446","2180983","0.0-6.0-6.62","4985720","co39304","norming","","","{""aha"":5}","[0]","../img/tt/1186tt.jpg","",""
"null","<div style=""font-size:60px;""> </div>","null","fixation","html-keyboard-response","447","2181270","0.0-6.0-0.63","4985720","co39304","norming","","","","","","",""
"null","../img/tt/111tt.jpg","null","mooney1","image-keyboard-response","448","2184281","0.0-6.0-1.63","4985720","co39304","norming","","","","","","",""
"6055.189999984577","","","post_mooney1_questions","survey-likert","449","2190355","0.0-6.0-2.63","4985720","co39304","norming","","","{""curiosity"":0,""confidence"":6}","[0,1]","../img/tt/111tt.jpg","",""
"12629.02499991469","","","recognition","survey-text","450","2203048","0.0-6.0-3.63","4985720","co39304","norming","","","{""guess"":""een douchekop dat water sproeit""}","","../img/tt/111tt.jpg","",""
"null","../img/gs/111gs.jpg","null","reveal","image-keyboard-response","451","2205066","0.0-6.0-4.63","4985720","co39304","norming","","","","","","",""
"null","../img/tt/111tt.jpg","null","mooney2","image-keyboard-response","452","2207075","0.0-6.0-5.63","4985720","co39304","norming","","","","","","",""
"5811.359999934211","","","post_reveal_questions","survey-likert","453","2212900","0.0-6.0-6.63","4985720","co39304","norming","","","{""aha"":0}","[0]","../img/tt/111tt.jpg","",""
"null","<div style=""font-size:60px;""> </div>","null","fixation","html-keyboard-response","454","2213182","0.0-6.0-0.64","4985720","co39304","norming","","","","","","",""
"null","../img/tt/507tt.jpg","null","mooney1","image-keyboard-response","455","2216194","0.0-6.0-1.64","4985720","co39304","norming","","","","","","",""
"10766.739999875426","","","post_mooney1_questions","survey-likert","456","2226979","0.0-6.0-2.64","4985720","co39304","norming","","","{""curiosity"":5,""confidence"":3}","[0,1]","../img/tt/507tt.jpg","",""
"4464.584999950603","","","recognition","survey-text","457","2231527","0.0-6.0-3.64","4985720","co39304","norming","","","{""guess"":""een paard""}","","../img/tt/507tt.jpg","",""
"null","../img/gs/507gs.jpg","null","reveal","image-keyboard-response","458","2233541","0.0-6.0-4.64","4985720","co39304","norming","","","","","","",""
"null","../img/tt/507tt.jpg","null","mooney2","image-keyboard-response","459","2235561","0.0-6.0-5.64","4985720","co39304","norming","","","","","","",""
"3768.309999955818","","","post_reveal_questions","survey-likert","460","2239343","0.0-6.0-6.64","4985720","co39304","norming","","","{""aha"":5}","[0]","../img/tt/507tt.jpg","",""
"null","<div style=""font-size:60px;""> </div>","null","fixation","html-keyboard-response","461","2239610","0.0-6.0-0.65","4985720","co39304","norming","","","","","","",""
"null","../img/tt/1002tt.jpg","null","mooney1","image-keyboard-response","462","2242621","0.0-6.0-1.65","4985720","co39304","norming","","","","","","",""
"6748.350000008941","","","post_mooney1_questions","survey-likert","463","2249379","0.0-6.0-2.65","4985720","co39304","norming","","","{""curiosity"":5,""confidence"":1}","[0,1]","../img/tt/1002tt.jpg","",""
"7011.499999789521","","","recognition","survey-text","464","2256467","0.0-6.0-3.65","4985720","co39304","norming","","","{""guess"":""puma""}","","../img/tt/1002tt.jpg","",""
"null","../img/gs/1002gs.jpg","null","reveal","image-keyboard-response","465","2258479","0.0-6.0-4.65","4985720","co39304","norming","","","","","","",""
"null","../img/tt/1002tt.jpg","null","mooney2","image-keyboard-response","466","2260488","0.0-6.0-5.65","4985720","co39304","norming","","","","","","",""
"3638.340000063181","","","post_reveal_questions","survey-likert","467","2264139","0.0-6.0-6.65","4985720","co39304","norming","","","{""aha"":5}","[0]","../img/tt/1002tt.jpg","",""
"null","<div style=""font-size:60px;""> </div>","null","fixation","html-keyboard-response","468","2264406","0.0-6.0-0.66","4985720","co39304","norming","","","","","","",""
"null","../img/tt/358tt.jpg","null","mooney1","image-keyboard-response","469","2267428","0.0-6.0-1.66","4985720","co39304","norming","","","","","","",""
"8369.244999950752","","","post_mooney1_questions","survey-likert","470","2275815","0.0-6.0-2.66","4985720","co39304","norming","","","{""curiosity"":5,""confidence"":3}","[0,1]","../img/tt/358tt.jpg","",""
"5511.154999956489","","","recognition","survey-text","471","2281431","0.0-6.0-3.66","4985720","co39304","norming","","","{""guess"":""een hond""}","","../img/tt/358tt.jpg","",""
"null","../img/gs/358gs.jpg","null","reveal","image-keyboard-response","472","2283444","0.0-6.0-4.66","4985720","co39304","norming","","","","","","",""
"null","../img/tt/358tt.jpg","null","mooney2","image-keyboard-response","473","2285451","0.0-6.0-5.66","4985720","co39304","norming","","","","","","",""
"3308.489999966696","","","post_reveal_questions","survey-likert","474","2288773","0.0-6.0-6.66","4985720","co39304","norming","","","{""aha"":6}","[0]","../img/tt/358tt.jpg","",""
"null","<div style=""font-size:60px;""> </div>","null","fixation","html-keyboard-response","475","2289051","0.0-6.0-0.67","4985720","co39304","norming","","","","","","",""
"null","../img/tt/031tt.jpg","null","mooney1","image-keyboard-response","476","2292071","0.0-6.0-1.67","4985720","co39304","norming","","","","","","",""
"7693.354999879375","","","post_mooney1_questions","survey-likert","477","2299783","0.0-6.0-2.67","4985720","co39304","norming","","","{""curiosity"":5,""confidence"":1}","[0,1]","../img/tt/031tt.jpg","",""
"3141.5750000160187","","","recognition","survey-text","478","2302995","0.0-6.0-3.67","4985720","co39304","norming","","","{""guess"":""een beer""}","","../img/tt/031tt.jpg","",""
"null","../img/gs/031gs.jpg","null","reveal","image-keyboard-response","479","2305008","0.0-6.0-4.67","4985720","co39304","norming","","","","","","",""
"null","../img/tt/031tt.jpg","null","mooney2","image-keyboard-response","480","2307024","0.0-6.0-5.67","4985720","co39304","norming","","","","","","",""
"7942.934999940917","","","post_reveal_questions","survey-likert","481","2314980","0.0-6.0-6.67","4985720","co39304","norming","","","{""aha"":5}","[0]","../img/tt/031tt.jpg","",""
"null","<div style=""font-size:60px;""> </div>","null","fixation","html-keyboard-response","482","2315263","0.0-6.0-0.68","4985720","co39304","norming","","","","","","",""
"null","../img/tt/044tt.jpg","null","mooney1","image-keyboard-response","483","2318279","0.0-6.0-1.68","4985720","co39304","norming","","","","","","",""
"6414.985000155866","","","post_mooney1_questions","survey-likert","484","2324714","0.0-6.0-2.68","4985720","co39304","norming","","","{""curiosity"":5,""confidence"":1}","[0,1]","../img/tt/044tt.jpg","",""
"6585.1000000257045","","","recognition","survey-text","485","2331368","0.0-6.0-3.68","4985720","co39304","norming","","","{""guess"":""een computer op een bureau""}","","../img/tt/044tt.jpg","",""
"null","../img/gs/044gs.jpg","null","reveal","image-keyboard-response","486","2333395","0.0-6.0-4.68","4985720","co39304","norming","","","","","","",""
"null","../img/tt/044tt.jpg","null","mooney2","image-keyboard-response","487","2335411","0.0-6.0-5.68","4985720","co39304","norming","","","","","","",""
"4086.705000139773","","","post_reveal_questions","survey-likert","488","2339512","0.0-6.0-6.68","4985720","co39304","norming","","","{""aha"":6}","[0]","../img/tt/044tt.jpg","",""
"null","<div style=""font-size:60px;""> </div>","null","fixation","html-keyboard-response","489","2339810","0.0-6.0-0.69","4985720","co39304","norming","","","","","","",""
"null","../img/tt/1070tt.jpg","null","mooney1","image-keyboard-response","490","2342819","0.0-6.0-1.69","4985720","co39304","norming","","","","","","",""
"6794.0150001086295","","","post_mooney1_questions","survey-likert","491","2349633","0.0-6.0-2.69","4985720","co39304","norming","","","{""curiosity"":5,""confidence"":3}","[0,1]","../img/tt/1070tt.jpg","",""
"5255.224999971688","","","recognition","survey-text","492","2354960","0.0-6.0-3.69","4985720","co39304","norming","","","{""guess"":""een taart""}","","../img/tt/1070tt.jpg","",""
"null","../img/gs/1070gs.jpg","null","reveal","image-keyboard-response","493","2356975","0.0-6.0-4.69","4985720","co39304","norming","","","","","","",""
"null","../img/tt/1070tt.jpg","null","mooney2","image-keyboard-response","494","2358989","0.0-6.0-5.69","4985720","co39304","norming","","","","","","",""
"5752.1300001535565","","","post_reveal_questions","survey-likert","495","2364754","0.0-6.0-6.69","4985720","co39304","norming","","","{""aha"":2}","[0]","../img/tt/1070tt.jpg","",""
"null","<div style=""font-size:60px;""> </div>","null","fixation","html-keyboard-response","496","2365062","0.0-6.0-0.70","4985720","co39304","norming","","","","","","",""
"null","../img/tt/1080tt.jpg","null","mooney1","image-keyboard-response","497","2368076","0.0-6.0-1.70","4985720","co39304","norming","","","","","","",""
"5012.889999896288","","","post_mooney1_questions","survey-likert","498","2373109","0.0-6.0-2.70","4985720","co39304","norming","","","{""curiosity"":5,""confidence"":2}","[0,1]","../img/tt/1080tt.jpg","",""
"10708.219999913126","","","recognition","survey-text","499","2383886","0.0-6.0-3.70","4985720","co39304","norming","","","{""guess"":""een vrouw dat op haar zij ligt""}","","../img/tt/1080tt.jpg","",""
"null","../img/gs/1080gs.jpg","null","reveal","image-keyboard-response","500","2385904","0.0-6.0-4.70","4985720","co39304","norming","","","","","","",""
"null","../img/tt/1080tt.jpg","null","mooney2","image-keyboard-response","501","2387922","0.0-6.0-5.70","4985720","co39304","norming","","","","","","",""
"4764.350000070408","","","post_reveal_questions","survey-likert","502","2392700","0.0-6.0-6.70","4985720","co39304","norming","","","{""aha"":5}","[0]","../img/tt/1080tt.jpg","",""
"null","<div style=""font-size:60px;""> </div>","null","fixation","html-keyboard-response","503","2392986","0.0-6.0-0.71","4985720","co39304","norming","","","","","","",""
"null","../img/tt/1128tt.jpg","null","mooney1","image-keyboard-response","504","2396010","0.0-6.0-1.71","4985720","co39304","norming","","","","","","",""
"8795.360000105575","","","post_mooney1_questions","survey-likert","505","2404825","0.0-6.0-2.71","4985720","co39304","norming","","","{""curiosity"":5,""confidence"":1}","[0,1]","../img/tt/1128tt.jpg","",""
"3327.705000061542","","","recognition","survey-text","506","2408244","0.0-6.0-3.71","4985720","co39304","norming","","","{""guess"":""een vrouw""}","","../img/tt/1128tt.jpg","",""
"null","../img/gs/1128gs.jpg","null","reveal","image-keyboard-response","507","2410266","0.0-6.0-4.71","4985720","co39304","norming","","","","","","",""
"null","../img/tt/1128tt.jpg","null","mooney2","image-keyboard-response","508","2412273","0.0-6.0-5.71","4985720","co39304","norming","","","","","","",""
"2859.324999852106","","","post_reveal_questions","survey-likert","509","2415147","0.0-6.0-6.71","4985720","co39304","norming","","","{""aha"":5}","[0]","../img/tt/1128tt.jpg","",""
"null","<div style=""font-size:60px;""> </div>","null","fixation","html-keyboard-response","510","2415448","0.0-6.0-0.72","4985720","co39304","norming","","","","","","",""
"null","../img/tt/1046tt.jpg","null","mooney1","image-keyboard-response","511","2418466","0.0-6.0-1.72","4985720","co39304","norming","","","","","","",""
"5490.710000041872","","","post_mooney1_questions","survey-likert","512","2423976","0.0-6.0-2.72","4985720","co39304","norming","","","{""curiosity"":5,""confidence"":3}","[0,1]","../img/tt/1046tt.jpg","",""
"6445.125000085682","","","recognition","survey-text","513","2430524","0.0-6.0-3.72","4985720","co39304","norming","","","{""guess"":""vlees met frieten""}","","../img/tt/1046tt.jpg","",""
"null","../img/gs/1046gs.jpg","null","reveal","image-keyboard-response","514","2432542","0.0-6.0-4.72","4985720","co39304","norming","","","","","","",""
"null","../img/tt/1046tt.jpg","null","mooney2","image-keyboard-response","515","2434545","0.0-6.0-5.72","4985720","co39304","norming","","","","","","",""
"2548.94999996759","","","post_reveal_questions","survey-likert","516","2437110","0.0-6.0-6.72","4985720","co39304","norming","","","{""aha"":5}","[0]","../img/tt/1046tt.jpg","",""
"null","<div style=""font-size:60px;""> </div>","null","fixation","html-keyboard-response","517","2437412","0.0-6.0-0.73","4985720","co39304","norming","","","","","","",""
"null","../img/tt/296tt.jpg","null","mooney1","image-keyboard-response","518","2440429","0.0-6.0-1.73","4985720","co39304","norming","","","","","","",""
"5614.169999957085","","","post_mooney1_questions","survey-likert","519","2446063","0.0-6.0-2.73","4985720","co39304","norming","","","{""curiosity"":5,""confidence"":5}","[0,1]","../img/tt/296tt.jpg","",""
"7868.079999927431","","","recognition","survey-text","520","2454028","0.0-6.0-3.73","4985720","co39304","norming","","","{""guess"":""een tandartsstoel""}","","../img/tt/296tt.jpg","",""
"null","../img/gs/296gs.jpg","null","reveal","image-keyboard-response","521","2456041","0.0-6.0-4.73","4985720","co39304","norming","","","","","","",""
"null","../img/tt/296tt.jpg","null","mooney2","image-keyboard-response","522","2458057","0.0-6.0-5.73","4985720","co39304","norming","","","","","","",""
"6260.065000038594","","","post_reveal_questions","survey-likert","523","2464330","0.0-6.0-6.73","4985720","co39304","norming","","","{""aha"":4}","[0]","../img/tt/296tt.jpg","",""
"null","<div style=""font-size:60px;""> </div>","null","fixation","html-keyboard-response","524","2464641","0.0-6.0-0.74","4985720","co39304","norming","","","","","","",""
"null","../img/tt/1283tt.jpg","null","mooney1","image-keyboard-response","525","2467661","0.0-6.0-1.74","4985720","co39304","norming","","","","","","",""
"5176.454999949783","","","post_mooney1_questions","survey-likert","526","2472856","0.0-6.0-2.74","4985720","co39304","norming","","","{""curiosity"":6,""confidence"":0}","[0,1]","../img/tt/1283tt.jpg","",""
"1074.714999878779","","","recognition","survey-text","527","2474056","0.0-6.0-3.74","4985720","co39304","norming","","","{""guess"":""""}","","../img/tt/1283tt.jpg","",""
"null","../img/gs/1283gs.jpg","null","reveal","image-keyboard-response","528","2476074","0.0-6.0-4.74","4985720","co39304","norming","","","","","","",""
"null","../img/tt/1283tt.jpg","null","mooney2","image-keyboard-response","529","2478089","0.0-6.0-5.74","4985720","co39304","norming","","","","","","",""
"29559.8549998831","","","post_reveal_questions","survey-likert","530","2507664","0.0-6.0-6.74","4985720","co39304","norming","","","{""aha"":6}","[0]","../img/tt/1283tt.jpg","",""
"null","<div style=""font-size:60px;""> </div>","null","fixation","html-keyboard-response","531","2507951","0.0-6.0-0.75","4985720","co39304","norming","","","","","","",""
"null","../img/tt/1126tt.jpg","null","mooney1","image-keyboard-response","532","2510971","0.0-6.0-1.75","4985720","co39304","norming","","","","","","",""
"7235.929999966174","","","post_mooney1_questions","survey-likert","533","2518226","0.0-6.0-2.75","4985720","co39304","norming","","","{""curiosity"":5,""confidence"":1}","[0,1]","../img/tt/1126tt.jpg","",""
"7988.734999904409","","","recognition","survey-text","534","2526311","0.0-6.0-3.75","4985720","co39304","norming","","","{""guess"":""een rotsbeklimmer op een rots""}","","../img/tt/1126tt.jpg","",""
"null","../img/gs/1126gs.jpg","null","reveal","image-keyboard-response","535","2528323","0.0-6.0-4.75","4985720","co39304","norming","","","","","","",""
"null","../img/tt/1126tt.jpg","null","mooney2","image-keyboard-response","536","2530329","0.0-6.0-5.75","4985720","co39304","norming","","","","","","",""
"5265.720000024885","","","post_reveal_questions","survey-likert","537","2535610","0.0-6.0-6.75","4985720","co39304","norming","","","{""aha"":0}","[0]","../img/tt/1126tt.jpg","",""
"null","<div style=""font-size:60px;""> </div>","null","fixation","html-keyboard-response","538","2535880","0.0-6.0-0.76","4985720","co39304","norming","","","","","","",""
"null","../img/tt/080tt.jpg","null","mooney1","image-keyboard-response","539","2538896","0.0-6.0-1.76","4985720","co39304","norming","","","","","","",""
"5873.385000042617","","","post_mooney1_questions","survey-likert","540","2544788","0.0-6.0-2.76","4985720","co39304","norming","","","{""curiosity"":5,""confidence"":2}","[0,1]","../img/tt/080tt.jpg","",""
"6373.9500001538545","","","recognition","survey-text","541","2551253","0.0-6.0-3.76","4985720","co39304","norming","","","{""guess"":""een paddenstoel""}","","../img/tt/080tt.jpg","",""
"null","../img/gs/080gs.jpg","null","reveal","image-keyboard-response","542","2553280","0.0-6.0-4.76","4985720","co39304","norming","","","","","","",""
"null","../img/tt/080tt.jpg","null","mooney2","image-keyboard-response","543","2555298","0.0-6.0-5.76","4985720","co39304","norming","","","","","","",""
"14138.72000016272","","","post_reveal_questions","survey-likert","544","2569448","0.0-6.0-6.76","4985720","co39304","norming","","","{""aha"":3}","[0]","../img/tt/080tt.jpg","",""
"null","<div style=""font-size:60px;""> </div>","null","fixation","html-keyboard-response","545","2569707","0.0-6.0-0.77","4985720","co39304","norming","","","","","","",""
"null","../img/tt/1200tt.jpg","null","mooney1","image-keyboard-response","546","2572730","0.0-6.0-1.77","4985720","co39304","norming","","","","","","",""
"4550.1850000582635","","","post_mooney1_questions","survey-likert","547","2577300","0.0-6.0-2.77","4985720","co39304","norming","","","{""curiosity"":5,""confidence"":2}","[0,1]","../img/tt/1200tt.jpg","",""
