"rt","stimulus","key_press","test_part","trial_type","trial_index","time_elapsed","internal_node_id","totalTime","subject","experiment_name","button_pressed","success","responses","question_order","currentStim","old","correct"
"19700.964999967255","Welcome to the experiment. This is an online experiment so please don't close the tab/window until we say goodbye.  Press any key to begin.","32","instructions","html-keyboard-response","0","19710","0.0-0.0","2501024","co39295","norming","","","","","","",""
"5598.2350000413135","<div style='word-wrap: break-word; width: 900px'><h3>Please consider this information carefully before deciding whether to participate in this research</h3><ul style='text-align: left; font-size: .8em;'><li><b>Purpose of the research</b>: To examine how people process images.</li><li><b>What you will do in this research</b>:  Stimuli (images) will be presented on the computer and you will be asked different questions about them.</li><li><b>Time required</b>: Participation will take between 45 and 60 minutes to complete.</li><li><b>Risks</b>:  There are no anticipated risks associated with participating in this study. The effects of participating should be comparable to those you would experience from viewing a computer monitor for 30 minutes and using a mouse or keyboard.</li><li><b>Benefits</b>:  This study provides no benefits to you individually except for the credit. The study provides important information about the nature of perception and learning.</li><li><b>Confidentiality</b>:  Your participation in this study will remain confidential. No personally identifiable information will be associated with your data. Your de-identified data may be shared with other researchers and used in future projects.</li><li><b>Participation and withdrawal</b>:  Your participation in this study is completely voluntary and you may refuse to participate or you may choose to withdraw at any time without penalty.</li><li><b>How to contact the researchers</b>: If you have questions or concerns about your participation or payment, or want to request a summary of research findings, please contact Sander Van de Cruys (KU Leuven), at sander.vandecruys@kuleuven.be.</li></ul><p>The nature and purpose of this research have been sufficiently explained and I agree to participate in this study.  I understand that I am free to withdraw at any time without incurring any penalty.</p><p>Please consent by clicking the button below to continue. Otherwise, please exit the study at this time.</p></div>","","instructions","html-button-response","1","25312","0.0-1.0","2501024","co39295","norming","0","","","","","",""
"","","","instructions","fullscreen","2","30716","0.0-2.0","2501024","co39295","norming","","true","","","","",""
"21392.735000001267","","","sona","survey-html-form","3","52113","0.0-3.0","2501024","co39295","norming","","","[{""name"":""sonaid"",""value"":""39295""},{""name"":""debrief"",""value"":""no""},{""name"":""datajoin"",""value"":""yes""}]","","","",""
"66399.03500000946","<div style='word-wrap: break-word; width: 900px'><h3>Instructions</h3><p>This experiment will have 3 parts. In the first part you will see a series of distorted images like the one below on the left. As you can see in the righthand image, the distorted images are derived from actual photographs. In what follows, you will <strong>briefly</strong> be presented with <strong>only</strong> the distorted image.</p> <div style='float: left; margin-right: 20px;'><img src='../img/018tt.jpg' height='250' width='250'></img></div><div style='float: right; margin-left: 20px;'><img src='../img/018gs.jpg' height='250' width='250'></img></div><p>Subsequently you will be asked a few questions about the image: One question on how <strong>curious</strong> you are about the solution and one on how <strong>confident</strong> you are that you know the solution.</p>Next, we ask you to make a guess on what is in the image. Note that it is OK to name just the <strong>basic level category</strong>. For example when you see a parrot in the image, 'parrot' will obviously be a correct answer but also correct is 'bird'. However, 'animal' will <strong>not</strong> be counted as a correct response. For the example above, 'rose' would be correct or 'flower', but not 'plant'. When soccer players are depicted, 'soccer', 'football', 'soccer players' will be correct, but not 'humans', 'outdoors', or 'sports'. You do not need to describe the image in full, just name the main object in it <strong>in one or two words</strong>. All images depict objects from one of the following broad level categories: animals, inanimate objects, plants, sports, vehicles, and food. Recognizing means knowing <strong>more</strong> than these broad labels for a given image. But we always encourage you to <strong>make a guess</strong> if you can. Note that you are allowed to use <strong>Dutch and English</strong> in your answers, whatever comes easiest for you.</p><p>Press any key to continue.</p></div>","32","instructions","html-keyboard-response","4","118515","0.0-4.0","2501024","co39295","norming","","","","","","",""
"21371.780000044964","<div style='word-wrap: break-word; width: 900px'><h3>Instructions</h3> <p>Next, the solution image will be revealed to you and you'll be asked to indicate how strong your <strong>aha-experience</strong> was after seeing the solution. This describes the positive feeling of the 'click' you sometimes experience, when the pieces of the 'puzzle' fall together and you suddenly have 'insight' in the image.</p><img src='aha.jpg' height='188' width='250'></img><p>Note that there are no right or wrong answers. We are interested in what <strong>you</strong> see in the image and how <strong>you</strong> feel about it.</p><p>Press any key to start the experiment.</p></div>","32","instructions","html-keyboard-response","5","139890","0.0-5.0","2501024","co39295","norming","","","","","","",""
"null","<div style=""font-size:60px;""> </div>","null","fixation","html-keyboard-response","6","140093","0.0-6.0-0.0","2501024","co39295","norming","","","","","","",""
"null","../img/tt/468tt.jpg","null","mooney1","image-keyboard-response","7","143098","0.0-6.0-1.0","2501024","co39295","norming","","","","","","",""
"11904.840000031982","","","post_mooney1_questions","survey-likert","8","155007","0.0-6.0-2.0","2501024","co39295","norming","","","{""curiosity"":5,""confidence"":1}","[0,1]","../img/tt/468tt.jpg","",""
"5950.564999948256","","","recognition","survey-text","9","160961","0.0-6.0-3.0","2501024","co39295","norming","","","{""guess"":""cowoy""}","","../img/tt/468tt.jpg","",""
"null","../img/gs/468gs.jpg","null","reveal","image-keyboard-response","10","162965","0.0-6.0-4.0","2501024","co39295","norming","","","","","","",""
"null","../img/tt/468tt.jpg","null","mooney2","image-keyboard-response","11","164968","0.0-6.0-5.0","2501024","co39295","norming","","","","","","",""
"4126.6100000357255","","","post_reveal_questions","survey-likert","12","169098","0.0-6.0-6.0","2501024","co39295","norming","","","{""aha"":5}","[0]","../img/tt/468tt.jpg","",""
"null","<div style=""font-size:60px;""> </div>","null","fixation","html-keyboard-response","13","169301","0.0-6.0-0.1","2501024","co39295","norming","","","","","","",""
"null","../img/tt/063tt.jpg","null","mooney1","image-keyboard-response","14","172304","0.0-6.0-1.1","2501024","co39295","norming","","","","","","",""
"4130.174999998417","","","post_mooney1_questions","survey-likert","15","176437","0.0-6.0-2.1","2501024","co39295","norming","","","{""curiosity"":4,""confidence"":3}","[0,1]","../img/tt/063tt.jpg","",""
"5995.159999991301","","","recognition","survey-text","16","182436","0.0-6.0-3.1","2501024","co39295","norming","","","{""guess"":""typmachine""}","","../img/tt/063tt.jpg","",""
"null","../img/gs/063gs.jpg","null","reveal","image-keyboard-response","17","184438","0.0-6.0-4.1","2501024","co39295","norming","","","","","","",""
"null","../img/tt/063tt.jpg","null","mooney2","image-keyboard-response","18","186441","0.0-6.0-5.1","2501024","co39295","norming","","","","","","",""
"3033.430000010412","","","post_reveal_questions","survey-likert","19","189477","0.0-6.0-6.1","2501024","co39295","norming","","","{""aha"":4}","[0]","../img/tt/063tt.jpg","",""
"null","<div style=""font-size:60px;""> </div>","null","fixation","html-keyboard-response","20","189678","0.0-6.0-0.2","2501024","co39295","norming","","","","","","",""
"null","../img/tt/1004tt.jpg","null","mooney1","image-keyboard-response","21","192681","0.0-6.0-1.2","2501024","co39295","norming","","","","","","",""
"3301.9750000094064","","","post_mooney1_questions","survey-likert","22","195986","0.0-6.0-2.2","2501024","co39295","norming","","","{""curiosity"":4,""confidence"":3}","[0,1]","../img/tt/1004tt.jpg","",""
"4339.619999984279","","","recognition","survey-text","23","200329","0.0-6.0-3.2","2501024","co39295","norming","","","{""guess"":""koe""}","","../img/tt/1004tt.jpg","",""
"null","../img/gs/1004gs.jpg","null","reveal","image-keyboard-response","24","202332","0.0-6.0-4.2","2501024","co39295","norming","","","","","","",""
"null","../img/tt/1004tt.jpg","null","mooney2","image-keyboard-response","25","204334","0.0-6.0-5.2","2501024","co39295","norming","","","","","","",""
"2039.1950000193901","","","post_reveal_questions","survey-likert","26","206375","0.0-6.0-6.2","2501024","co39295","norming","","","{""aha"":4}","[0]","../img/tt/1004tt.jpg","",""
"null","<div style=""font-size:60px;""> </div>","null","fixation","html-keyboard-response","27","206578","0.0-6.0-0.3","2501024","co39295","norming","","","","","","",""
"null","../img/tt/1107tt.jpg","null","mooney1","image-keyboard-response","28","209581","0.0-6.0-1.3","2501024","co39295","norming","","","","","","",""
"6571.9650000100955","","","post_mooney1_questions","survey-likert","29","216156","0.0-6.0-2.3","2501024","co39295","norming","","","{""curiosity"":6,""confidence"":0}","[0,1]","../img/tt/1107tt.jpg","",""
"4120.614999963436","","","recognition","survey-text","30","220280","0.0-6.0-3.3","2501024","co39295","norming","","","{""guess"":""kat""}","","../img/tt/1107tt.jpg","",""
"null","../img/gs/1107gs.jpg","null","reveal","image-keyboard-response","31","222282","0.0-6.0-4.3","2501024","co39295","norming","","","","","","",""
"null","../img/tt/1107tt.jpg","null","mooney2","image-keyboard-response","32","224284","0.0-6.0-5.3","2501024","co39295","norming","","","","","","",""
"3063.3950000046752","","","post_reveal_questions","survey-likert","33","227350","0.0-6.0-6.3","2501024","co39295","norming","","","{""aha"":6}","[0]","../img/tt/1107tt.jpg","",""
"null","<div style=""font-size:60px;""> </div>","null","fixation","html-keyboard-response","34","227553","0.0-6.0-0.4","2501024","co39295","norming","","","","","","",""
"null","../img/tt/1188tt.jpg","null","mooney1","image-keyboard-response","35","230556","0.0-6.0-1.4","2501024","co39295","norming","","","","","","",""
"6097.224999975879","","","post_mooney1_questions","survey-likert","36","236656","0.0-6.0-2.4","2501024","co39295","norming","","","{""curiosity"":5,""confidence"":1}","[0,1]","../img/tt/1188tt.jpg","",""
"3738.3350000018254","","","recognition","survey-text","37","240397","0.0-6.0-3.4","2501024","co39295","norming","","","{""guess"":""man""}","","../img/tt/1188tt.jpg","",""
"null","../img/gs/1188gs.jpg","null","reveal","image-keyboard-response","38","242399","0.0-6.0-4.4","2501024","co39295","norming","","","","","","",""
"null","../img/tt/1188tt.jpg","null","mooney2","image-keyboard-response","39","244400","0.0-6.0-5.4","2501024","co39295","norming","","","","","","",""
"2155.060000019148","","","post_reveal_questions","survey-likert","40","246558","0.0-6.0-6.4","2501024","co39295","norming","","","{""aha"":4}","[0]","../img/tt/1188tt.jpg","",""
"null","<div style=""font-size:60px;""> </div>","null","fixation","html-keyboard-response","41","246760","0.0-6.0-0.5","2501024","co39295","norming","","","","","","",""
"null","../img/tt/1362tt.jpg","null","mooney1","image-keyboard-response","42","249764","0.0-6.0-1.5","2501024","co39295","norming","","","","","","",""
"4996.195000014268","","","post_mooney1_questions","survey-likert","43","254763","0.0-6.0-2.5","2501024","co39295","norming","","","{""curiosity"":5,""confidence"":1}","[0,1]","../img/tt/1362tt.jpg","",""
"2779.495000024326","","","recognition","survey-text","44","257545","0.0-6.0-3.5","2501024","co39295","norming","","","{""guess"":""bureau""}","","../img/tt/1362tt.jpg","",""
"null","../img/gs/1362gs.jpg","null","reveal","image-keyboard-response","45","259547","0.0-6.0-4.5","2501024","co39295","norming","","","","","","",""
"null","../img/tt/1362tt.jpg","null","mooney2","image-keyboard-response","46","261550","0.0-6.0-5.5","2501024","co39295","norming","","","","","","",""
"1680.3749999962747","","","post_reveal_questions","survey-likert","47","263233","0.0-6.0-6.5","2501024","co39295","norming","","","{""aha"":5}","[0]","../img/tt/1362tt.jpg","",""
"null","<div style=""font-size:60px;""> </div>","null","fixation","html-keyboard-response","48","263435","0.0-6.0-0.6","2501024","co39295","norming","","","","","","",""
"null","../img/tt/1186tt.jpg","null","mooney1","image-keyboard-response","49","266438","0.0-6.0-1.6","2501024","co39295","norming","","","","","","",""
"4931.745000008959","","","post_mooney1_questions","survey-likert","50","271373","0.0-6.0-2.6","2501024","co39295","norming","","","{""curiosity"":6,""confidence"":0}","[0,1]","../img/tt/1186tt.jpg","",""
"4097.115000011399","","","recognition","survey-text","51","275473","0.0-6.0-3.6","2501024","co39295","norming","","","{""guess"":""bureau""}","","../img/tt/1186tt.jpg","",""
"null","../img/gs/1186gs.jpg","null","reveal","image-keyboard-response","52","277475","0.0-6.0-4.6","2501024","co39295","norming","","","","","","",""
"null","../img/tt/1186tt.jpg","null","mooney2","image-keyboard-response","53","279478","0.0-6.0-5.6","2501024","co39295","norming","","","","","","",""
"2531.070000026375","","","post_reveal_questions","survey-likert","54","282014","0.0-6.0-6.6","2501024","co39295","norming","","","{""aha"":6}","[0]","../img/tt/1186tt.jpg","",""
"null","<div style=""font-size:60px;""> </div>","null","fixation","html-keyboard-response","55","282217","0.0-6.0-0.7","2501024","co39295","norming","","","","","","",""
"null","../img/tt/1232tt.jpg","null","mooney1","image-keyboard-response","56","285221","0.0-6.0-1.7","2501024","co39295","norming","","","","","","",""
"3743.389999959618","","","post_mooney1_questions","survey-likert","57","288967","0.0-6.0-2.7","2501024","co39295","norming","","","{""curiosity"":5,""confidence"":1}","[0,1]","../img/tt/1232tt.jpg","",""
"2986.589999985881","","","recognition","survey-text","58","291956","0.0-6.0-3.7","2501024","co39295","norming","","","{""guess"":""ruimte""}","","../img/tt/1232tt.jpg","",""
"null","../img/gs/1232gs.jpg","null","reveal","image-keyboard-response","59","293958","0.0-6.0-4.7","2501024","co39295","norming","","","","","","",""
"null","../img/tt/1232tt.jpg","null","mooney2","image-keyboard-response","60","295960","0.0-6.0-5.7","2501024","co39295","norming","","","","","","",""
"2930.2349999779835","","","post_reveal_questions","survey-likert","61","298893","0.0-6.0-6.7","2501024","co39295","norming","","","{""aha"":5}","[0]","../img/tt/1232tt.jpg","",""
"null","<div style=""font-size:60px;""> </div>","null","fixation","html-keyboard-response","62","299095","0.0-6.0-0.8","2501024","co39295","norming","","","","","","",""
"null","../img/tt/603tt.jpg","null","mooney1","image-keyboard-response","63","302099","0.0-6.0-1.8","2501024","co39295","norming","","","","","","",""
"4396.3849999709055","","","post_mooney1_questions","survey-likert","64","306498","0.0-6.0-2.8","2501024","co39295","norming","","","{""curiosity"":5,""confidence"":0}","[0,1]","../img/tt/603tt.jpg","",""
"1766.925000003539","","","recognition","survey-text","65","308268","0.0-6.0-3.8","2501024","co39295","norming","","","{""guess"":""kat""}","","../img/tt/603tt.jpg","",""
"null","../img/gs/603gs.jpg","null","reveal","image-keyboard-response","66","310270","0.0-6.0-4.8","2501024","co39295","norming","","","","","","",""
"null","../img/tt/603tt.jpg","null","mooney2","image-keyboard-response","67","312272","0.0-6.0-5.8","2501024","co39295","norming","","","","","","",""
"3745.6200000015087","","","post_reveal_questions","survey-likert","68","316020","0.0-6.0-6.8","2501024","co39295","norming","","","{""aha"":1}","[0]","../img/tt/603tt.jpg","",""
"null","<div style=""font-size:60px;""> </div>","null","fixation","html-keyboard-response","69","316225","0.0-6.0-0.9","2501024","co39295","norming","","","","","","",""
"null","../img/tt/1072tt.jpg","null","mooney1","image-keyboard-response","70","319227","0.0-6.0-1.9","2501024","co39295","norming","","","","","","",""
"3693.604999978561","","","post_mooney1_questions","survey-likert","71","322924","0.0-6.0-2.9","2501024","co39295","norming","","","{""curiosity"":4,""confidence"":1}","[0,1]","../img/tt/1072tt.jpg","",""
"1539.4950000336394","","","recognition","survey-text","72","324466","0.0-6.0-3.9","2501024","co39295","norming","","","{""guess"":""keuken""}","","../img/tt/1072tt.jpg","",""
"null","../img/gs/1072gs.jpg","null","reveal","image-keyboard-response","73","326468","0.0-6.0-4.9","2501024","co39295","norming","","","","","","",""
"null","../img/tt/1072tt.jpg","null","mooney2","image-keyboard-response","74","328471","0.0-6.0-5.9","2501024","co39295","norming","","","","","","",""
"2889.9300000048243","","","post_reveal_questions","survey-likert","75","331363","0.0-6.0-6.9","2501024","co39295","norming","","","{""aha"":5}","[0]","../img/tt/1072tt.jpg","",""
"null","<div style=""font-size:60px;""> </div>","null","fixation","html-keyboard-response","76","331565","0.0-6.0-0.10","2501024","co39295","norming","","","","","","",""
"null","../img/tt/318tt.jpg","null","mooney1","image-keyboard-response","77","334568","0.0-6.0-1.10","2501024","co39295","norming","","","","","","",""
"3534.1500000213273","","","post_mooney1_questions","survey-likert","78","338106","0.0-6.0-2.10","2501024","co39295","norming","","","{""curiosity"":5,""confidence"":0}","[0,1]","../img/tt/318tt.jpg","",""
"1829.2600000277162","","","recognition","survey-text","79","339938","0.0-6.0-3.10","2501024","co39295","norming","","","{""guess"":""vrouw""}","","../img/tt/318tt.jpg","",""
"null","../img/gs/318gs.jpg","null","reveal","image-keyboard-response","80","341940","0.0-6.0-4.10","2501024","co39295","norming","","","","","","",""
"null","../img/tt/318tt.jpg","null","mooney2","image-keyboard-response","81","343943","0.0-6.0-5.10","2501024","co39295","norming","","","","","","",""
"2281.0399999725632","","","post_reveal_questions","survey-likert","82","346227","0.0-6.0-6.10","2501024","co39295","norming","","","{""aha"":3}","[0]","../img/tt/318tt.jpg","",""
"null","<div style=""font-size:60px;""> </div>","null","fixation","html-keyboard-response","83","346430","0.0-6.0-0.11","2501024","co39295","norming","","","","","","",""
"null","../img/tt/1243tt.jpg","null","mooney1","image-keyboard-response","84","349434","0.0-6.0-1.11","2501024","co39295","norming","","","","","","",""
"3785.7700000167824","","","post_mooney1_questions","survey-likert","85","353223","0.0-6.0-2.11","2501024","co39295","norming","","","{""curiosity"":5,""confidence"":1}","[0,1]","../img/tt/1243tt.jpg","",""
"3749.6200000168756","","","recognition","survey-text","86","356975","0.0-6.0-3.11","2501024","co39295","norming","","","{""guess"":""beeld""}","","../img/tt/1243tt.jpg","",""
"null","../img/gs/1243gs.jpg","null","reveal","image-keyboard-response","87","358977","0.0-6.0-4.11","2501024","co39295","norming","","","","","","",""
"null","../img/tt/1243tt.jpg","null","mooney2","image-keyboard-response","88","360981","0.0-6.0-5.11","2501024","co39295","norming","","","","","","",""
"2959.7049999865703","","","post_reveal_questions","survey-likert","89","363943","0.0-6.0-6.11","2501024","co39295","norming","","","{""aha"":5}","[0]","../img/tt/1243tt.jpg","",""
"null","<div style=""font-size:60px;""> </div>","null","fixation","html-keyboard-response","90","364145","0.0-6.0-0.12","2501024","co39295","norming","","","","","","",""
"null","../img/tt/435tt.jpg","null","mooney1","image-keyboard-response","91","367148","0.0-6.0-1.12","2501024","co39295","norming","","","","","","",""
"5758.930000010878","","","post_mooney1_questions","survey-likert","92","372910","0.0-6.0-2.12","2501024","co39295","norming","","","{""curiosity"":5,""confidence"":0}","[0,1]","../img/tt/435tt.jpg","",""
"8858.905000030063","","","recognition","survey-text","93","381771","0.0-6.0-3.12","2501024","co39295","norming","","","{""guess"":""""}","","../img/tt/435tt.jpg","",""
"null","../img/gs/435gs.jpg","null","reveal","image-keyboard-response","94","383773","0.0-6.0-4.12","2501024","co39295","norming","","","","","","",""
"null","../img/tt/435tt.jpg","null","mooney2","image-keyboard-response","95","385776","0.0-6.0-5.12","2501024","co39295","norming","","","","","","",""
"2746.7949999845587","","","post_reveal_questions","survey-likert","96","388525","0.0-6.0-6.12","2501024","co39295","norming","","","{""aha"":5}","[0]","../img/tt/435tt.jpg","",""
"null","<div style=""font-size:60px;""> </div>","null","fixation","html-keyboard-response","97","388726","0.0-6.0-0.13","2501024","co39295","norming","","","","","","",""
"null","../img/tt/1272tt.jpg","null","mooney1","image-keyboard-response","98","391730","0.0-6.0-1.13","2501024","co39295","norming","","","","","","",""
"4411.424999998417","","","post_mooney1_questions","survey-likert","99","396144","0.0-6.0-2.13","2501024","co39295","norming","","","{""curiosity"":5,""confidence"":0}","[0,1]","../img/tt/1272tt.jpg","",""
"803.6350000184029","","","recognition","survey-text","100","396951","0.0-6.0-3.13","2501024","co39295","norming","","","{""guess"":""""}","","../img/tt/1272tt.jpg","",""
"null","../img/gs/1272gs.jpg","null","reveal","image-keyboard-response","101","398953","0.0-6.0-4.13","2501024","co39295","norming","","","","","","",""
"null","../img/tt/1272tt.jpg","null","mooney2","image-keyboard-response","102","400955","0.0-6.0-5.13","2501024","co39295","norming","","","","","","",""
"2498.5299999825656","","","post_reveal_questions","survey-likert","103","403456","0.0-6.0-6.13","2501024","co39295","norming","","","{""aha"":4}","[0]","../img/tt/1272tt.jpg","",""
"null","<div style=""font-size:60px;""> </div>","null","fixation","html-keyboard-response","104","403658","0.0-6.0-0.14","2501024","co39295","norming","","","","","","",""
"null","../img/tt/438tt.jpg","null","mooney1","image-keyboard-response","105","406662","0.0-6.0-1.14","2501024","co39295","norming","","","","","","",""
"5179.264999984298","","","post_mooney1_questions","survey-likert","106","411844","0.0-6.0-2.14","2501024","co39295","norming","","","{""curiosity"":5,""confidence"":1}","[0,1]","../img/tt/438tt.jpg","",""
"1924.8849999858066","","","recognition","survey-text","107","413771","0.0-6.0-3.14","2501024","co39295","norming","","","{""guess"":""vogel""}","","../img/tt/438tt.jpg","",""
"null","../img/gs/438gs.jpg","null","reveal","image-keyboard-response","108","415773","0.0-6.0-4.14","2501024","co39295","norming","","","","","","",""
"null","../img/tt/438tt.jpg","null","mooney2","image-keyboard-response","109","417776","0.0-6.0-5.14","2501024","co39295","norming","","","","","","",""
"3866.5649999747984","","","post_reveal_questions","survey-likert","110","421646","0.0-6.0-6.14","2501024","co39295","norming","","","{""aha"":5}","[0]","../img/tt/438tt.jpg","",""
"null","<div style=""font-size:60px;""> </div>","null","fixation","html-keyboard-response","111","421848","0.0-6.0-0.15","2501024","co39295","norming","","","","","","",""
"null","../img/tt/358tt.jpg","null","mooney1","image-keyboard-response","112","424852","0.0-6.0-1.15","2501024","co39295","norming","","","","","","",""
"3455.5899999686517","","","post_mooney1_questions","survey-likert","113","428310","0.0-6.0-2.15","2501024","co39295","norming","","","{""curiosity"":5,""confidence"":1}","[0,1]","../img/tt/358tt.jpg","",""
"1121.5399999637157","","","recognition","survey-text","114","429435","0.0-6.0-3.15","2501024","co39295","norming","","","{""guess"":""kip""}","","../img/tt/358tt.jpg","",""
"null","../img/gs/358gs.jpg","null","reveal","image-keyboard-response","115","431437","0.0-6.0-4.15","2501024","co39295","norming","","","","","","",""
"null","../img/tt/358tt.jpg","null","mooney2","image-keyboard-response","116","433440","0.0-6.0-5.15","2501024","co39295","norming","","","","","","",""
"4547.454999992624","","","post_reveal_questions","survey-likert","117","437990","0.0-6.0-6.15","2501024","co39295","norming","","","{""aha"":3}","[0]","../img/tt/358tt.jpg","",""
"null","<div style=""font-size:60px;""> </div>","null","fixation","html-keyboard-response","118","438192","0.0-6.0-0.16","2501024","co39295","norming","","","","","","",""
"null","../img/tt/598tt.jpg","null","mooney1","image-keyboard-response","119","441197","0.0-6.0-1.16","2501024","co39295","norming","","","","","","",""
"3859.5750000094995","","","post_mooney1_questions","survey-likert","120","445059","0.0-6.0-2.16","2501024","co39295","norming","","","{""curiosity"":5,""confidence"":0}","[0,1]","../img/tt/598tt.jpg","",""
"1075.8499999647029","","","recognition","survey-text","121","446138","0.0-6.0-3.16","2501024","co39295","norming","","","{""guess"":""""}","","../img/tt/598tt.jpg","",""
"null","../img/gs/598gs.jpg","null","reveal","image-keyboard-response","122","448140","0.0-6.0-4.16","2501024","co39295","norming","","","","","","",""
"null","../img/tt/598tt.jpg","null","mooney2","image-keyboard-response","123","450142","0.0-6.0-5.16","2501024","co39295","norming","","","","","","",""
"4187.804999994114","","","post_reveal_questions","survey-likert","124","454332","0.0-6.0-6.16","2501024","co39295","norming","","","{""aha"":4}","[0]","../img/tt/598tt.jpg","",""
"null","<div style=""font-size:60px;""> </div>","null","fixation","html-keyboard-response","125","454534","0.0-6.0-0.17","2501024","co39295","norming","","","","","","",""
"null","../img/tt/163tt.jpg","null","mooney1","image-keyboard-response","126","457539","0.0-6.0-1.17","2501024","co39295","norming","","","","","","",""
"3257.22999998834","","","post_mooney1_questions","survey-likert","127","460799","0.0-6.0-2.17","2501024","co39295","norming","","","{""curiosity"":6,""confidence"":0}","[0,1]","../img/tt/163tt.jpg","",""
"1109.9099999992177","","","recognition","survey-text","128","461911","0.0-6.0-3.17","2501024","co39295","norming","","","{""guess"":""""}","","../img/tt/163tt.jpg","",""
"null","../img/gs/163gs.jpg","null","reveal","image-keyboard-response","129","463913","0.0-6.0-4.17","2501024","co39295","norming","","","","","","",""
"null","../img/tt/163tt.jpg","null","mooney2","image-keyboard-response","130","465915","0.0-6.0-5.17","2501024","co39295","norming","","","","","","",""
"2498.3249999932013","","","post_reveal_questions","survey-likert","131","468416","0.0-6.0-6.17","2501024","co39295","norming","","","{""aha"":4}","[0]","../img/tt/163tt.jpg","",""
"null","<div style=""font-size:60px;""> </div>","null","fixation","html-keyboard-response","132","468619","0.0-6.0-0.18","2501024","co39295","norming","","","","","","",""
"null","../img/tt/319tt.jpg","null","mooney1","image-keyboard-response","133","471622","0.0-6.0-1.18","2501024","co39295","norming","","","","","","",""
"3796.139999991283","","","post_mooney1_questions","survey-likert","134","475422","0.0-6.0-2.18","2501024","co39295","norming","","","{""curiosity"":5,""confidence"":1}","[0,1]","../img/tt/319tt.jpg","",""
"2417.075000004843","","","recognition","survey-text","135","477842","0.0-6.0-3.18","2501024","co39295","norming","","","{""guess"":""vlinder""}","","../img/tt/319tt.jpg","",""
"null","../img/gs/319gs.jpg","null","reveal","image-keyboard-response","136","479844","0.0-6.0-4.18","2501024","co39295","norming","","","","","","",""
"null","../img/tt/319tt.jpg","null","mooney2","image-keyboard-response","137","481846","0.0-6.0-5.18","2501024","co39295","norming","","","","","","",""
"3403.3199999830686","","","post_reveal_questions","survey-likert","138","485252","0.0-6.0-6.18","2501024","co39295","norming","","","{""aha"":4}","[0]","../img/tt/319tt.jpg","",""
"null","<div style=""font-size:60px;""> </div>","null","fixation","html-keyboard-response","139","485454","0.0-6.0-0.19","2501024","co39295","norming","","","","","","",""
"null","../img/tt/013tt.jpg","null","mooney1","image-keyboard-response","140","488459","0.0-6.0-1.19","2501024","co39295","norming","","","","","","",""
"5831.140000023879","","","post_mooney1_questions","survey-likert","141","494292","0.0-6.0-2.19","2501024","co39295","norming","","","{""curiosity"":5,""confidence"":0}","[0,1]","../img/tt/013tt.jpg","",""
"574.715000053402","","","recognition","survey-text","142","494869","0.0-6.0-3.19","2501024","co39295","norming","","","{""guess"":""""}","","../img/tt/013tt.jpg","",""
"null","../img/gs/013gs.jpg","null","reveal","image-keyboard-response","143","496871","0.0-6.0-4.19","2501024","co39295","norming","","","","","","",""
"null","../img/tt/013tt.jpg","null","mooney2","image-keyboard-response","144","498874","0.0-6.0-5.19","2501024","co39295","norming","","","","","","",""
"3410.810000030324","","","post_reveal_questions","survey-likert","145","502288","0.0-6.0-6.19","2501024","co39295","norming","","","{""aha"":5}","[0]","../img/tt/013tt.jpg","",""
"null","<div style=""font-size:60px;""> </div>","null","fixation","html-keyboard-response","146","502490","0.0-6.0-0.20","2501024","co39295","norming","","","","","","",""
"null","../img/tt/1290tt.jpg","null","mooney1","image-keyboard-response","147","505493","0.0-6.0-1.20","2501024","co39295","norming","","","","","","",""
"3805.2800000295974","","","post_mooney1_questions","survey-likert","148","509302","0.0-6.0-2.20","2501024","co39295","norming","","","{""curiosity"":5,""confidence"":1}","[0,1]","../img/tt/1290tt.jpg","",""
"2724.8300000210293","","","recognition","survey-text","149","512030","0.0-6.0-3.20","2501024","co39295","norming","","","{""guess"":""luchtballon""}","","../img/tt/1290tt.jpg","",""
"null","../img/gs/1290gs.jpg","null","reveal","image-keyboard-response","150","514033","0.0-6.0-4.20","2501024","co39295","norming","","","","","","",""
"null","../img/tt/1290tt.jpg","null","mooney2","image-keyboard-response","151","516036","0.0-6.0-5.20","2501024","co39295","norming","","","","","","",""
"3696.9500000122935","","","post_reveal_questions","survey-likert","152","519736","0.0-6.0-6.20","2501024","co39295","norming","","","{""aha"":2}","[0]","../img/tt/1290tt.jpg","",""
"null","<div style=""font-size:60px;""> </div>","null","fixation","html-keyboard-response","153","519938","0.0-6.0-0.21","2501024","co39295","norming","","","","","","",""
"null","../img/tt/019tt.jpg","null","mooney1","image-keyboard-response","154","522942","0.0-6.0-1.21","2501024","co39295","norming","","","","","","",""
"3766.7749999673106","","","post_mooney1_questions","survey-likert","155","526712","0.0-6.0-2.21","2501024","co39295","norming","","","{""curiosity"":5,""confidence"":1}","[0,1]","../img/tt/019tt.jpg","",""
"3680.099999997765","","","recognition","survey-text","156","530395","0.0-6.0-3.21","2501024","co39295","norming","","","{""guess"":""Zwitsers zakmes""}","","../img/tt/019tt.jpg","",""
"null","../img/gs/019gs.jpg","null","reveal","image-keyboard-response","157","532397","0.0-6.0-4.21","2501024","co39295","norming","","","","","","",""
"null","../img/tt/019tt.jpg","null","mooney2","image-keyboard-response","158","534403","0.0-6.0-5.21","2501024","co39295","norming","","","","","","",""
"3166.2600000272505","","","post_reveal_questions","survey-likert","159","537572","0.0-6.0-6.21","2501024","co39295","norming","","","{""aha"":3}","[0]","../img/tt/019tt.jpg","",""
"null","<div style=""font-size:60px;""> </div>","null","fixation","html-keyboard-response","160","537774","0.0-6.0-0.22","2501024","co39295","norming","","","","","","",""
"null","../img/tt/079tt.jpg","null","mooney1","image-keyboard-response","161","540779","0.0-6.0-1.22","2501024","co39295","norming","","","","","","",""
"4892.479999980424","","","post_mooney1_questions","survey-likert","162","545674","0.0-6.0-2.22","2501024","co39295","norming","","","{""curiosity"":3,""confidence"":5}","[0,1]","../img/tt/079tt.jpg","",""
"4784.014999982901","","","recognition","survey-text","163","550461","0.0-6.0-3.22","2501024","co39295","norming","","","{""guess"":""beer""}","","../img/tt/079tt.jpg","",""
"null","../img/gs/079gs.jpg","null","reveal","image-keyboard-response","164","552463","0.0-6.0-4.22","2501024","co39295","norming","","","","","","",""
"null","../img/tt/079tt.jpg","null","mooney2","image-keyboard-response","165","554465","0.0-6.0-5.22","2501024","co39295","norming","","","","","","",""
"2970.114999974612","","","post_reveal_questions","survey-likert","166","557438","0.0-6.0-6.22","2501024","co39295","norming","","","{""aha"":1}","[0]","../img/tt/079tt.jpg","",""
"null","<div style=""font-size:60px;""> </div>","null","fixation","html-keyboard-response","167","557640","0.0-6.0-0.23","2501024","co39295","norming","","","","","","",""
"null","../img/tt/1069tt.jpg","null","mooney1","image-keyboard-response","168","560644","0.0-6.0-1.23","2501024","co39295","norming","","","","","","",""
"3732.5150000397116","","","post_mooney1_questions","survey-likert","169","564379","0.0-6.0-2.23","2501024","co39295","norming","","","{""curiosity"":5,""confidence"":0}","[0,1]","../img/tt/1069tt.jpg","",""
"229.98499998357147","","","recognition","survey-text","170","564611","0.0-6.0-3.23","2501024","co39295","norming","","","{""guess"":""""}","","../img/tt/1069tt.jpg","",""
"null","../img/gs/1069gs.jpg","null","reveal","image-keyboard-response","171","566613","0.0-6.0-4.23","2501024","co39295","norming","","","","","","",""
"null","../img/tt/1069tt.jpg","null","mooney2","image-keyboard-response","172","568616","0.0-6.0-5.23","2501024","co39295","norming","","","","","","",""
"2548.6350000137463","","","post_reveal_questions","survey-likert","173","571168","0.0-6.0-6.23","2501024","co39295","norming","","","{""aha"":4}","[0]","../img/tt/1069tt.jpg","",""
"null","<div style=""font-size:60px;""> </div>","null","fixation","html-keyboard-response","174","571370","0.0-6.0-0.24","2501024","co39295","norming","","","","","","",""
"null","../img/tt/044tt.jpg","null","mooney1","image-keyboard-response","175","574373","0.0-6.0-1.24","2501024","co39295","norming","","","","","","",""
"3953.800000017509","","","post_mooney1_questions","survey-likert","176","578328","0.0-6.0-2.24","2501024","co39295","norming","","","{""curiosity"":4,""confidence"":2}","[0,1]","../img/tt/044tt.jpg","",""
"2489.0399999567308","","","recognition","survey-text","177","580820","0.0-6.0-3.24","2501024","co39295","norming","","","{""guess"":""laptop""}","","../img/tt/044tt.jpg","",""
"null","../img/gs/044gs.jpg","null","reveal","image-keyboard-response","178","582823","0.0-6.0-4.24","2501024","co39295","norming","","","","","","",""
"null","../img/tt/044tt.jpg","null","mooney2","image-keyboard-response","179","584825","0.0-6.0-5.24","2501024","co39295","norming","","","","","","",""
"4149.589999986347","","","post_reveal_questions","survey-likert","180","588978","0.0-6.0-6.24","2501024","co39295","norming","","","{""aha"":4}","[0]","../img/tt/044tt.jpg","",""
"null","<div style=""font-size:60px;""> </div>","null","fixation","html-keyboard-response","181","589179","0.0-6.0-0.25","2501024","co39295","norming","","","","","","",""
"null","../img/tt/1084tt.jpg","null","mooney1","image-keyboard-response","182","592183","0.0-6.0-1.25","2501024","co39295","norming","","","","","","",""
"5691.865000000689","","","post_mooney1_questions","survey-likert","183","597877","0.0-6.0-2.25","2501024","co39295","norming","","","{""curiosity"":2,""confidence"":5}","[0,1]","../img/tt/1084tt.jpg","",""
"2698.4749999828637","","","recognition","survey-text","184","600578","0.0-6.0-3.25","2501024","co39295","norming","","","{""guess"":""vlaai""}","","../img/tt/1084tt.jpg","",""
"null","../img/gs/1084gs.jpg","null","reveal","image-keyboard-response","185","602580","0.0-6.0-4.25","2501024","co39295","norming","","","","","","",""
"null","../img/tt/1084tt.jpg","null","mooney2","image-keyboard-response","186","604584","0.0-6.0-5.25","2501024","co39295","norming","","","","","","",""
"3369.5000000298023","","","post_reveal_questions","survey-likert","187","607955","0.0-6.0-6.25","2501024","co39295","norming","","","{""aha"":1}","[0]","../img/tt/1084tt.jpg","",""
"null","<div style=""font-size:60px;""> </div>","null","fixation","html-keyboard-response","188","608157","0.0-6.0-0.26","2501024","co39295","norming","","","","","","",""
"null","../img/tt/094tt.jpg","null","mooney1","image-keyboard-response","189","611160","0.0-6.0-1.26","2501024","co39295","norming","","","","","","",""
"3278.7150000222027","","","post_mooney1_questions","survey-likert","190","614442","0.0-6.0-2.26","2501024","co39295","norming","","","{""curiosity"":5,""confidence"":2}","[0,1]","../img/tt/094tt.jpg","",""
"928.0449999496341","","","recognition","survey-text","191","615373","0.0-6.0-3.26","2501024","co39295","norming","","","{""guess"":""koe""}","","../img/tt/094tt.jpg","",""
"null","../img/gs/094gs.jpg","null","reveal","image-keyboard-response","192","617375","0.0-6.0-4.26","2501024","co39295","norming","","","","","","",""
"null","../img/tt/094tt.jpg","null","mooney2","image-keyboard-response","193","619377","0.0-6.0-5.26","2501024","co39295","norming","","","","","","",""
"3040.389999980107","","","post_reveal_questions","survey-likert","194","622420","0.0-6.0-6.26","2501024","co39295","norming","","","{""aha"":3}","[0]","../img/tt/094tt.jpg","",""
"null","<div style=""font-size:60px;""> </div>","null","fixation","html-keyboard-response","195","622622","0.0-6.0-0.27","2501024","co39295","norming","","","","","","",""
"null","../img/tt/1061tt.jpg","null","mooney1","image-keyboard-response","196","625626","0.0-6.0-1.27","2501024","co39295","norming","","","","","","",""
"5050.7050000014715","","","post_mooney1_questions","survey-likert","197","630679","0.0-6.0-2.27","2501024","co39295","norming","","","{""curiosity"":4,""confidence"":1}","[0,1]","../img/tt/1061tt.jpg","",""
"4025.514999986626","","","recognition","survey-text","198","634708","0.0-6.0-3.27","2501024","co39295","norming","","","{""guess"":""weiland""}","","../img/tt/1061tt.jpg","",""
"null","../img/gs/1061gs.jpg","null","reveal","image-keyboard-response","199","636710","0.0-6.0-4.27","2501024","co39295","norming","","","","","","",""
"null","../img/tt/1061tt.jpg","null","mooney2","image-keyboard-response","200","638712","0.0-6.0-5.27","2501024","co39295","norming","","","","","","",""
"4215.629999991506","","","post_reveal_questions","survey-likert","201","642930","0.0-6.0-6.27","2501024","co39295","norming","","","{""aha"":4}","[0]","../img/tt/1061tt.jpg","",""
"null","<div style=""font-size:60px;""> </div>","null","fixation","html-keyboard-response","202","643132","0.0-6.0-0.28","2501024","co39295","norming","","","","","","",""
"null","../img/tt/1159tt.jpg","null","mooney1","image-keyboard-response","203","646135","0.0-6.0-1.28","2501024","co39295","norming","","","","","","",""
"5193.414999986999","","","post_mooney1_questions","survey-likert","204","651332","0.0-6.0-2.28","2501024","co39295","norming","","","{""curiosity"":4,""confidence"":1}","[0,1]","../img/tt/1159tt.jpg","",""
"2941.500000015367","","","recognition","survey-text","205","654277","0.0-6.0-3.28","2501024","co39295","norming","","","{""guess"":""weiland""}","","../img/tt/1159tt.jpg","",""
"null","../img/gs/1159gs.jpg","null","reveal","image-keyboard-response","206","656279","0.0-6.0-4.28","2501024","co39295","norming","","","","","","",""
"null","../img/tt/1159tt.jpg","null","mooney2","image-keyboard-response","207","658281","0.0-6.0-5.28","2501024","co39295","norming","","","","","","",""
"3070.560000021942","","","post_reveal_questions","survey-likert","208","661354","0.0-6.0-6.28","2501024","co39295","norming","","","{""aha"":4}","[0]","../img/tt/1159tt.jpg","",""
"null","<div style=""font-size:60px;""> </div>","null","fixation","html-keyboard-response","209","661557","0.0-6.0-0.29","2501024","co39295","norming","","","","","","",""
"null","../img/tt/1027tt.jpg","null","mooney1","image-keyboard-response","210","664560","0.0-6.0-1.29","2501024","co39295","norming","","","","","","",""
"3878.8150000036694","","","post_mooney1_questions","survey-likert","211","668440","0.0-6.0-2.29","2501024","co39295","norming","","","{""curiosity"":3,""confidence"":5}","[0,1]","../img/tt/1027tt.jpg","",""
"1167.1799999894574","","","recognition","survey-text","212","669611","0.0-6.0-3.29","2501024","co39295","norming","","","{""guess"":""koe""}","","../img/tt/1027tt.jpg","",""
"null","../img/gs/1027gs.jpg","null","reveal","image-keyboard-response","213","671614","0.0-6.0-4.29","2501024","co39295","norming","","","","","","",""
"null","../img/tt/1027tt.jpg","null","mooney2","image-keyboard-response","214","673617","0.0-6.0-5.29","2501024","co39295","norming","","","","","","",""
"3874.6599999722093","","","post_reveal_questions","survey-likert","215","677494","0.0-6.0-6.29","2501024","co39295","norming","","","{""aha"":1}","[0]","../img/tt/1027tt.jpg","",""
"null","<div style=""font-size:60px;""> </div>","null","fixation","html-keyboard-response","216","677696","0.0-6.0-0.30","2501024","co39295","norming","","","","","","",""
"null","../img/tt/300tt.jpg","null","mooney1","image-keyboard-response","217","680700","0.0-6.0-1.30","2501024","co39295","norming","","","","","","",""
"4420.819999999367","","","post_mooney1_questions","survey-likert","218","685124","0.0-6.0-2.30","2501024","co39295","norming","","","{""curiosity"":4,""confidence"":2}","[0,1]","../img/tt/300tt.jpg","",""
"1363.3750000153668","","","recognition","survey-text","219","686490","0.0-6.0-3.30","2501024","co39295","norming","","","{""guess"":""aap""}","","../img/tt/300tt.jpg","",""
"null","../img/gs/300gs.jpg","null","reveal","image-keyboard-response","220","688493","0.0-6.0-4.30","2501024","co39295","norming","","","","","","",""
"null","../img/tt/300tt.jpg","null","mooney2","image-keyboard-response","221","690496","0.0-6.0-5.30","2501024","co39295","norming","","","","","","",""
"4593.820000009146","","","post_reveal_questions","survey-likert","222","695092","0.0-6.0-6.30","2501024","co39295","norming","","","{""aha"":5}","[0]","../img/tt/300tt.jpg","",""
"null","<div style=""font-size:60px;""> </div>","null","fixation","html-keyboard-response","223","695295","0.0-6.0-0.31","2501024","co39295","norming","","","","","","",""
"null","../img/tt/1043tt.jpg","null","mooney1","image-keyboard-response","224","698298","0.0-6.0-1.31","2501024","co39295","norming","","","","","","",""
"2914.150000025984","","","post_mooney1_questions","survey-likert","225","701216","0.0-6.0-2.31","2501024","co39295","norming","","","{""curiosity"":4,""confidence"":1}","[0,1]","../img/tt/1043tt.jpg","",""
"3500.260000000708","","","recognition","survey-text","226","704719","0.0-6.0-3.31","2501024","co39295","norming","","","{""guess"":""hotdog""}","","../img/tt/1043tt.jpg","",""
"null","../img/gs/1043gs.jpg","null","reveal","image-keyboard-response","227","706721","0.0-6.0-4.31","2501024","co39295","norming","","","","","","",""
"null","../img/tt/1043tt.jpg","null","mooney2","image-keyboard-response","228","708723","0.0-6.0-5.31","2501024","co39295","norming","","","","","","",""
"3246.1999999941327","","","post_reveal_questions","survey-likert","229","711972","0.0-6.0-6.31","2501024","co39295","norming","","","{""aha"":2}","[0]","../img/tt/1043tt.jpg","",""
"null","<div style=""font-size:60px;""> </div>","null","fixation","html-keyboard-response","230","712173","0.0-6.0-0.32","2501024","co39295","norming","","","","","","",""
"null","../img/tt/111tt.jpg","null","mooney1","image-keyboard-response","231","715177","0.0-6.0-1.32","2501024","co39295","norming","","","","","","",""
"3720.180000003893","","","post_mooney1_questions","survey-likert","232","718900","0.0-6.0-2.32","2501024","co39295","norming","","","{""curiosity"":2,""confidence"":6}","[0,1]","../img/tt/111tt.jpg","",""
"1651.320000004489","","","recognition","survey-text","233","720554","0.0-6.0-3.32","2501024","co39295","norming","","","{""guess"":""douche""}","","../img/tt/111tt.jpg","",""
"null","../img/gs/111gs.jpg","null","reveal","image-keyboard-response","234","722556","0.0-6.0-4.32","2501024","co39295","norming","","","","","","",""
"null","../img/tt/111tt.jpg","null","mooney2","image-keyboard-response","235","724560","0.0-6.0-5.32","2501024","co39295","norming","","","","","","",""
"2416.2299999734387","","","post_reveal_questions","survey-likert","236","726979","0.0-6.0-6.32","2501024","co39295","norming","","","{""aha"":1}","[0]","../img/tt/111tt.jpg","",""
"null","<div style=""font-size:60px;""> </div>","null","fixation","html-keyboard-response","237","727181","0.0-6.0-0.33","2501024","co39295","norming","","","","","","",""
"null","../img/tt/1181tt.jpg","null","mooney1","image-keyboard-response","238","730185","0.0-6.0-1.33","2501024","co39295","norming","","","","","","",""
"5490.400000009686","","","post_mooney1_questions","survey-likert","239","735679","0.0-6.0-2.33","2501024","co39295","norming","","","{""curiosity"":4,""confidence"":3}","[0,1]","../img/tt/1181tt.jpg","",""
"2588.480000034906","","","recognition","survey-text","240","738270","0.0-6.0-3.33","2501024","co39295","norming","","","{""guess"":""man pet""}","","../img/tt/1181tt.jpg","",""
"null","../img/gs/1181gs.jpg","null","reveal","image-keyboard-response","241","740272","0.0-6.0-4.33","2501024","co39295","norming","","","","","","",""
"null","../img/tt/1181tt.jpg","null","mooney2","image-keyboard-response","242","742276","0.0-6.0-5.33","2501024","co39295","norming","","","","","","",""
"3025.4100000020117","","","post_reveal_questions","survey-likert","243","745304","0.0-6.0-6.33","2501024","co39295","norming","","","{""aha"":2}","[0]","../img/tt/1181tt.jpg","",""
"null","<div style=""font-size:60px;""> </div>","null","fixation","html-keyboard-response","244","745505","0.0-6.0-0.34","2501024","co39295","norming","","","","","","",""
"null","../img/tt/1101tt.jpg","null","mooney1","image-keyboard-response","245","748510","0.0-6.0-1.34","2501024","co39295","norming","","","","","","",""
"3949.5150000439025","","","post_mooney1_questions","survey-likert","246","752463","0.0-6.0-2.34","2501024","co39295","norming","","","{""curiosity"":3,""confidence"":1}","[0,1]","../img/tt/1101tt.jpg","",""
"2521.3450000155717","","","recognition","survey-text","247","754987","0.0-6.0-3.34","2501024","co39295","norming","","","{""guess"":""man""}","","../img/tt/1101tt.jpg","",""
"null","../img/gs/1101gs.jpg","null","reveal","image-keyboard-response","248","756989","0.0-6.0-4.34","2501024","co39295","norming","","","","","","",""
"null","../img/tt/1101tt.jpg","null","mooney2","image-keyboard-response","249","758991","0.0-6.0-5.34","2501024","co39295","norming","","","","","","",""
"2617.759999993723","","","post_reveal_questions","survey-likert","250","761611","0.0-6.0-6.34","2501024","co39295","norming","","","{""aha"":4}","[0]","../img/tt/1101tt.jpg","",""
"null","<div style=""font-size:60px;""> </div>","null","fixation","html-keyboard-response","251","761814","0.0-6.0-0.35","2501024","co39295","norming","","","","","","",""
"null","../img/tt/1146tt.jpg","null","mooney1","image-keyboard-response","252","764818","0.0-6.0-1.35","2501024","co39295","norming","","","","","","",""
"4877.474999986589","","","post_mooney1_questions","survey-likert","253","769699","0.0-6.0-2.35","2501024","co39295","norming","","","{""curiosity"":3,""confidence"":4}","[0,1]","../img/tt/1146tt.jpg","",""
"4018.9299999619834","","","recognition","survey-text","254","773722","0.0-6.0-3.35","2501024","co39295","norming","","","{""guess"":""boogschutter""}","","../img/tt/1146tt.jpg","",""
"null","../img/gs/1146gs.jpg","null","reveal","image-keyboard-response","255","775725","0.0-6.0-4.35","2501024","co39295","norming","","","","","","",""
"null","../img/tt/1146tt.jpg","null","mooney2","image-keyboard-response","256","777727","0.0-6.0-5.35","2501024","co39295","norming","","","","","","",""
"3007.834999996703","","","post_reveal_questions","survey-likert","257","780737","0.0-6.0-6.35","2501024","co39295","norming","","","{""aha"":0}","[0]","../img/tt/1146tt.jpg","",""
"null","<div style=""font-size:60px;""> </div>","null","fixation","html-keyboard-response","258","780939","0.0-6.0-0.36","2501024","co39295","norming","","","","","","",""
"null","../img/tt/1309tt.jpg","null","mooney1","image-keyboard-response","259","783942","0.0-6.0-1.36","2501024","co39295","norming","","","","","","",""
"3870.3000000095926","","","post_mooney1_questions","survey-likert","260","787816","0.0-6.0-2.36","2501024","co39295","norming","","","{""curiosity"":4,""confidence"":3}","[0,1]","../img/tt/1309tt.jpg","",""
"3179.9250000040047","","","recognition","survey-text","261","790998","0.0-6.0-3.36","2501024","co39295","norming","","","{""guess"":""skilift""}","","../img/tt/1309tt.jpg","",""
"null","../img/gs/1309gs.jpg","null","reveal","image-keyboard-response","262","793000","0.0-6.0-4.36","2501024","co39295","norming","","","","","","",""
"null","../img/tt/1309tt.jpg","null","mooney2","image-keyboard-response","263","795003","0.0-6.0-5.36","2501024","co39295","norming","","","","","","",""
"5617.440000001807","","","post_reveal_questions","survey-likert","264","800624","0.0-6.0-6.36","2501024","co39295","norming","","","{""aha"":3}","[0]","../img/tt/1309tt.jpg","",""
"null","<div style=""font-size:60px;""> </div>","null","fixation","html-keyboard-response","265","800826","0.0-6.0-0.37","2501024","co39295","norming","","","","","","",""
"null","../img/tt/194tt.jpg","null","mooney1","image-keyboard-response","266","803830","0.0-6.0-1.37","2501024","co39295","norming","","","","","","",""
"4012.1399999479763","","","post_mooney1_questions","survey-likert","267","807846","0.0-6.0-2.37","2501024","co39295","norming","","","{""curiosity"":4,""confidence"":3}","[0,1]","../img/tt/194tt.jpg","",""
"2384.200000029523","","","recognition","survey-text","268","810233","0.0-6.0-3.37","2501024","co39295","norming","","","{""guess"":""vrouw bang""}","","../img/tt/194tt.jpg","",""
"null","../img/gs/194gs.jpg","null","reveal","image-keyboard-response","269","812235","0.0-6.0-4.37","2501024","co39295","norming","","","","","","",""
"null","../img/tt/194tt.jpg","null","mooney2","image-keyboard-response","270","814238","0.0-6.0-5.37","2501024","co39295","norming","","","","","","",""
"3676.995000045281","","","post_reveal_questions","survey-likert","271","817918","0.0-6.0-6.37","2501024","co39295","norming","","","{""aha"":3}","[0]","../img/tt/194tt.jpg","",""
"null","<div style=""font-size:60px;""> </div>","null","fixation","html-keyboard-response","272","818121","0.0-6.0-0.38","2501024","co39295","norming","","","","","","",""
"null","../img/tt/1363tt.jpg","null","mooney1","image-keyboard-response","273","821126","0.0-6.0-1.38","2501024","co39295","norming","","","","","","",""
"4935.43499999214","","","post_mooney1_questions","survey-likert","274","826065","0.0-6.0-2.38","2501024","co39295","norming","","","{""curiosity"":4,""confidence"":1}","[0,1]","../img/tt/1363tt.jpg","",""
"2951.1550000170246","","","recognition","survey-text","275","829019","0.0-6.0-3.38","2501024","co39295","norming","","","{""guess"":""sauspotje""}","","../img/tt/1363tt.jpg","",""
"null","../img/gs/1363gs.jpg","null","reveal","image-keyboard-response","276","831021","0.0-6.0-4.38","2501024","co39295","norming","","","","","","",""
"null","../img/tt/1363tt.jpg","null","mooney2","image-keyboard-response","277","833023","0.0-6.0-5.38","2501024","co39295","norming","","","","","","",""
"3682.6599999913014","","","post_reveal_questions","survey-likert","278","836709","0.0-6.0-6.38","2501024","co39295","norming","","","{""aha"":1}","[0]","../img/tt/1363tt.jpg","",""
"null","<div style=""font-size:60px;""> </div>","null","fixation","html-keyboard-response","279","836910","0.0-6.0-0.39","2501024","co39295","norming","","","","","","",""
"null","../img/tt/007tt.jpg","null","mooney1","image-keyboard-response","280","839914","0.0-6.0-1.39","2501024","co39295","norming","","","","","","",""
"6420.25999998441","","","post_mooney1_questions","survey-likert","281","846338","0.0-6.0-2.39","2501024","co39295","norming","","","{""curiosity"":4,""confidence"":2}","[0,1]","../img/tt/007tt.jpg","",""
"1467.594999994617","","","recognition","survey-text","282","847809","0.0-6.0-3.39","2501024","co39295","norming","","","{""guess"":""heks""}","","../img/tt/007tt.jpg","",""
"null","../img/gs/007gs.jpg","null","reveal","image-keyboard-response","283","849811","0.0-6.0-4.39","2501024","co39295","norming","","","","","","",""
"null","../img/tt/007tt.jpg","null","mooney2","image-keyboard-response","284","851814","0.0-6.0-5.39","2501024","co39295","norming","","","","","","",""
"5336.865000019316","","","post_reveal_questions","survey-likert","285","857153","0.0-6.0-6.39","2501024","co39295","norming","","","{""aha"":5}","[0]","../img/tt/007tt.jpg","",""
"null","<div style=""font-size:60px;""> </div>","null","fixation","html-keyboard-response","286","857354","0.0-6.0-0.40","2501024","co39295","norming","","","","","","",""
"null","../img/tt/270tt.jpg","null","mooney1","image-keyboard-response","287","860358","0.0-6.0-1.40","2501024","co39295","norming","","","","","","",""
"4984.310000028927","","","post_mooney1_questions","survey-likert","288","865346","0.0-6.0-2.40","2501024","co39295","norming","","","{""curiosity"":5,""confidence"":0}","[0,1]","../img/tt/270tt.jpg","",""
"92.1049999888055","","","recognition","survey-text","289","865440","0.0-6.0-3.40","2501024","co39295","norming","","","{""guess"":""""}","","../img/tt/270tt.jpg","",""
"null","../img/gs/270gs.jpg","null","reveal","image-keyboard-response","290","867443","0.0-6.0-4.40","2501024","co39295","norming","","","","","","",""
"null","../img/tt/270tt.jpg","null","mooney2","image-keyboard-response","291","869445","0.0-6.0-5.40","2501024","co39295","norming","","","","","","",""
"4033.7949999957345","","","post_reveal_questions","survey-likert","292","873482","0.0-6.0-6.40","2501024","co39295","norming","","","{""aha"":5}","[0]","../img/tt/270tt.jpg","",""
"null","<div style=""font-size:60px;""> </div>","null","fixation","html-keyboard-response","293","873684","0.0-6.0-0.41","2501024","co39295","norming","","","","","","",""
"null","../img/tt/096tt.jpg","null","mooney1","image-keyboard-response","294","876688","0.0-6.0-1.41","2501024","co39295","norming","","","","","","",""
"3406.3849999802187","","","post_mooney1_questions","survey-likert","295","880098","0.0-6.0-2.41","2501024","co39295","norming","","","{""curiosity"":4,""confidence"":1}","[0,1]","../img/tt/096tt.jpg","",""
"2659.734999993816","","","recognition","survey-text","296","882760","0.0-6.0-3.41","2501024","co39295","norming","","","{""guess"":""naaimachine""}","","../img/tt/096tt.jpg","",""
"null","../img/gs/096gs.jpg","null","reveal","image-keyboard-response","297","884764","0.0-6.0-4.41","2501024","co39295","norming","","","","","","",""
"null","../img/tt/096tt.jpg","null","mooney2","image-keyboard-response","298","886767","0.0-6.0-5.41","2501024","co39295","norming","","","","","","",""
"2784.0399999986403","","","post_reveal_questions","survey-likert","299","889554","0.0-6.0-6.41","2501024","co39295","norming","","","{""aha"":5}","[0]","../img/tt/096tt.jpg","",""
"null","<div style=""font-size:60px;""> </div>","null","fixation","html-keyboard-response","300","889756","0.0-6.0-0.42","2501024","co39295","norming","","","","","","",""
"null","../img/tt/1049tt.jpg","null","mooney1","image-keyboard-response","301","892760","0.0-6.0-1.42","2501024","co39295","norming","","","","","","",""
"3891.780000005383","","","post_mooney1_questions","survey-likert","302","896655","0.0-6.0-2.42","2501024","co39295","norming","","","{""curiosity"":6,""confidence"":0}","[0,1]","../img/tt/1049tt.jpg","",""
"1178.249999997206","","","recognition","survey-text","303","897836","0.0-6.0-3.42","2501024","co39295","norming","","","{""guess"":""""}","","../img/tt/1049tt.jpg","",""
"null","../img/gs/1049gs.jpg","null","reveal","image-keyboard-response","304","899838","0.0-6.0-4.42","2501024","co39295","norming","","","","","","",""
"null","../img/tt/1049tt.jpg","null","mooney2","image-keyboard-response","305","901841","0.0-6.0-5.42","2501024","co39295","norming","","","","","","",""
"3152.844999975059","","","post_reveal_questions","survey-likert","306","904996","0.0-6.0-6.42","2501024","co39295","norming","","","{""aha"":5}","[0]","../img/tt/1049tt.jpg","",""
"null","<div style=""font-size:60px;""> </div>","null","fixation","html-keyboard-response","307","905198","0.0-6.0-0.43","2501024","co39295","norming","","","","","","",""
"null","../img/tt/1235tt.jpg","null","mooney1","image-keyboard-response","308","908206","0.0-6.0-1.43","2501024","co39295","norming","","","","","","",""
"4696.315000008326","","","post_mooney1_questions","survey-likert","309","912906","0.0-6.0-2.43","2501024","co39295","norming","","","{""curiosity"":5,""confidence"":1}","[0,1]","../img/tt/1235tt.jpg","",""
"2463.9900000183843","","","recognition","survey-text","310","915373","0.0-6.0-3.43","2501024","co39295","norming","","","{""guess"":""strorok""}","","../img/tt/1235tt.jpg","",""
"null","../img/gs/1235gs.jpg","null","reveal","image-keyboard-response","311","917374","0.0-6.0-4.43","2501024","co39295","norming","","","","","","",""
"null","../img/tt/1235tt.jpg","null","mooney2","image-keyboard-response","312","919375","0.0-6.0-5.43","2501024","co39295","norming","","","","","","",""
"2551.615000003949","","","post_reveal_questions","survey-likert","313","921930","0.0-6.0-6.43","2501024","co39295","norming","","","{""aha"":5}","[0]","../img/tt/1235tt.jpg","",""
"null","<div style=""font-size:60px;""> </div>","null","fixation","html-keyboard-response","314","922132","0.0-6.0-0.44","2501024","co39295","norming","","","","","","",""
"null","../img/tt/296tt.jpg","null","mooney1","image-keyboard-response","315","925135","0.0-6.0-1.44","2501024","co39295","norming","","","","","","",""
"3780.8250000234693","","","post_mooney1_questions","survey-likert","316","928920","0.0-6.0-2.44","2501024","co39295","norming","","","{""curiosity"":5,""confidence"":2}","[0,1]","../img/tt/296tt.jpg","",""
"1737.8500000340864","","","recognition","survey-text","317","930660","0.0-6.0-3.44","2501024","co39295","norming","","","{""guess"":""naaimachine""}","","../img/tt/296tt.jpg","",""
"null","../img/gs/296gs.jpg","null","reveal","image-keyboard-response","318","932662","0.0-6.0-4.44","2501024","co39295","norming","","","","","","",""
"null","../img/tt/296tt.jpg","null","mooney2","image-keyboard-response","319","934665","0.0-6.0-5.44","2501024","co39295","norming","","","","","","",""
"3356.2350000138395","","","post_reveal_questions","survey-likert","320","938024","0.0-6.0-6.44","2501024","co39295","norming","","","{""aha"":4}","[0]","../img/tt/296tt.jpg","",""
"null","<div style=""font-size:60px;""> </div>","null","fixation","html-keyboard-response","321","938226","0.0-6.0-0.45","2501024","co39295","norming","","","","","","",""
"null","../img/tt/010tt.jpg","null","mooney1","image-keyboard-response","322","941229","0.0-6.0-1.45","2501024","co39295","norming","","","","","","",""
"6058.105000003707","","","post_mooney1_questions","survey-likert","323","947291","0.0-6.0-2.45","2501024","co39295","norming","","","{""curiosity"":4,""confidence"":1}","[0,1]","../img/tt/010tt.jpg","",""
"1056.9300000206567","","","recognition","survey-text","324","948352","0.0-6.0-3.45","2501024","co39295","norming","","","{""guess"":""kikker""}","","../img/tt/010tt.jpg","",""
"null","../img/gs/010gs.jpg","null","reveal","image-keyboard-response","325","950354","0.0-6.0-4.45","2501024","co39295","norming","","","","","","",""
"null","../img/tt/010tt.jpg","null","mooney2","image-keyboard-response","326","952357","0.0-6.0-5.45","2501024","co39295","norming","","","","","","",""
"3116.9799999915995","","","post_reveal_questions","survey-likert","327","955476","0.0-6.0-6.45","2501024","co39295","norming","","","{""aha"":5}","[0]","../img/tt/010tt.jpg","",""
"null","<div style=""font-size:60px;""> </div>","null","fixation","html-keyboard-response","328","955678","0.0-6.0-0.46","2501024","co39295","norming","","","","","","",""
"null","../img/tt/279tt.jpg","null","mooney1","image-keyboard-response","329","958682","0.0-6.0-1.46","2501024","co39295","norming","","","","","","",""
"4248.02500003716","","","post_mooney1_questions","survey-likert","330","962937","0.0-6.0-2.46","2501024","co39295","norming","","","{""curiosity"":4,""confidence"":2}","[0,1]","../img/tt/279tt.jpg","",""
"1055.9700000449084","","","recognition","survey-text","331","963996","0.0-6.0-3.46","2501024","co39295","norming","","","{""guess"":""koala""}","","../img/tt/279tt.jpg","",""
"null","../img/gs/279gs.jpg","null","reveal","image-keyboard-response","332","965998","0.0-6.0-4.46","2501024","co39295","norming","","","","","","",""
"null","../img/tt/279tt.jpg","null","mooney2","image-keyboard-response","333","968001","0.0-6.0-5.46","2501024","co39295","norming","","","","","","",""
"7828.659999999218","","","post_reveal_questions","survey-likert","334","975833","0.0-6.0-6.46","2501024","co39295","norming","","","{""aha"":3}","[0]","../img/tt/279tt.jpg","",""
"null","<div style=""font-size:60px;""> </div>","null","fixation","html-keyboard-response","335","976035","0.0-6.0-0.47","2501024","co39295","norming","","","","","","",""
"null","../img/tt/1048tt.jpg","null","mooney1","image-keyboard-response","336","979040","0.0-6.0-1.47","2501024","co39295","norming","","","","","","",""
"4270.13999997871","","","post_mooney1_questions","survey-likert","337","983313","0.0-6.0-2.47","2501024","co39295","norming","","","{""curiosity"":5,""confidence"":2}","[0,1]","../img/tt/1048tt.jpg","",""
"1389.2800000030547","","","recognition","survey-text","338","984705","0.0-6.0-3.47","2501024","co39295","norming","","","{""guess"":""boom""}","","../img/tt/1048tt.jpg","",""
"null","../img/gs/1048gs.jpg","null","reveal","image-keyboard-response","339","986707","0.0-6.0-4.47","2501024","co39295","norming","","","","","","",""
"null","../img/tt/1048tt.jpg","null","mooney2","image-keyboard-response","340","988711","0.0-6.0-5.47","2501024","co39295","norming","","","","","","",""
"2841.645000036806","","","post_reveal_questions","survey-likert","341","991556","0.0-6.0-6.47","2501024","co39295","norming","","","{""aha"":5}","[0]","../img/tt/1048tt.jpg","",""
"null","<div style=""font-size:60px;""> </div>","null","fixation","html-keyboard-response","342","991759","0.0-6.0-0.48","2501024","co39295","norming","","","","","","",""
"null","../img/tt/1173tt.jpg","null","mooney1","image-keyboard-response","343","994763","0.0-6.0-1.48","2501024","co39295","norming","","","","","","",""
"3963.8049999484792","","","post_mooney1_questions","survey-likert","344","998730","0.0-6.0-2.48","2501024","co39295","norming","","","{""curiosity"":5,""confidence"":3}","[0,1]","../img/tt/1173tt.jpg","",""
"3786.629999987781","","","recognition","survey-text","345","1002520","0.0-6.0-3.48","2501024","co39295","norming","","","{""guess"":""twee voetballers""}","","../img/tt/1173tt.jpg","",""
"null","../img/gs/1173gs.jpg","null","reveal","image-keyboard-response","346","1004522","0.0-6.0-4.48","2501024","co39295","norming","","","","","","",""
"null","../img/tt/1173tt.jpg","null","mooney2","image-keyboard-response","347","1006525","0.0-6.0-5.48","2501024","co39295","norming","","","","","","",""
"3449.2000000318512","","","post_reveal_questions","survey-likert","348","1009977","0.0-6.0-6.48","2501024","co39295","norming","","","{""aha"":4}","[0]","../img/tt/1173tt.jpg","",""
"null","<div style=""font-size:60px;""> </div>","null","fixation","html-keyboard-response","349","1010180","0.0-6.0-0.49","2501024","co39295","norming","","","","","","",""
"null","../img/tt/1175tt.jpg","null","mooney1","image-keyboard-response","350","1013183","0.0-6.0-1.49","2501024","co39295","norming","","","","","","",""
"3103.9250000030734","","","post_mooney1_questions","survey-likert","351","1016291","0.0-6.0-2.49","2501024","co39295","norming","","","{""curiosity"":5,""confidence"":0}","[0,1]","../img/tt/1175tt.jpg","",""
"728.2199999899603","","","recognition","survey-text","352","1017022","0.0-6.0-3.49","2501024","co39295","norming","","","{""guess"":""""}","","../img/tt/1175tt.jpg","",""
"null","../img/gs/1175gs.jpg","null","reveal","image-keyboard-response","353","1019024","0.0-6.0-4.49","2501024","co39295","norming","","","","","","",""
"null","../img/tt/1175tt.jpg","null","mooney2","image-keyboard-response","354","1021027","0.0-6.0-5.49","2501024","co39295","norming","","","","","","",""
"2652.349999989383","","","post_reveal_questions","survey-likert","355","1023682","0.0-6.0-6.49","2501024","co39295","norming","","","{""aha"":5}","[0]","../img/tt/1175tt.jpg","",""
"null","<div style=""font-size:60px;""> </div>","null","fixation","html-keyboard-response","356","1023885","0.0-6.0-0.50","2501024","co39295","norming","","","","","","",""
"null","../img/tt/1012tt.jpg","null","mooney1","image-keyboard-response","357","1026889","0.0-6.0-1.50","2501024","co39295","norming","","","","","","",""
"4492.0900000142865","","","post_mooney1_questions","survey-likert","358","1031385","0.0-6.0-2.50","2501024","co39295","norming","","","{""curiosity"":3,""confidence"":3}","[0,1]","../img/tt/1012tt.jpg","",""
"1076.1249999632128","","","recognition","survey-text","359","1032464","0.0-6.0-3.50","2501024","co39295","norming","","","{""guess"":""paard""}","","../img/tt/1012tt.jpg","",""
"null","../img/gs/1012gs.jpg","null","reveal","image-keyboard-response","360","1034466","0.0-6.0-4.50","2501024","co39295","norming","","","","","","",""
"null","../img/tt/1012tt.jpg","null","mooney2","image-keyboard-response","361","1036468","0.0-6.0-5.50","2501024","co39295","norming","","","","","","",""
"4786.879999970552","","","post_reveal_questions","survey-likert","362","1041258","0.0-6.0-6.50","2501024","co39295","norming","","","{""aha"":1}","[0]","../img/tt/1012tt.jpg","",""
"null","<div style=""font-size:60px;""> </div>","null","fixation","html-keyboard-response","363","1041460","0.0-6.0-0.51","2501024","co39295","norming","","","","","","",""
"null","../img/tt/1262tt.jpg","null","mooney1","image-keyboard-response","364","1044464","0.0-6.0-1.51","2501024","co39295","norming","","","","","","",""
"3584.275000030175","","","post_mooney1_questions","survey-likert","365","1048052","0.0-6.0-2.51","2501024","co39295","norming","","","{""curiosity"":4,""confidence"":2}","[0,1]","../img/tt/1262tt.jpg","",""
"1102.7500000200234","","","recognition","survey-text","366","1049158","0.0-6.0-3.51","2501024","co39295","norming","","","{""guess"":""muis""}","","../img/tt/1262tt.jpg","",""
"null","../img/gs/1262gs.jpg","null","reveal","image-keyboard-response","367","1051160","0.0-6.0-4.51","2501024","co39295","norming","","","","","","",""
"null","../img/tt/1262tt.jpg","null","mooney2","image-keyboard-response","368","1053162","0.0-6.0-5.51","2501024","co39295","norming","","","","","","",""
"3476.7400000127964","","","post_reveal_questions","survey-likert","369","1056642","0.0-6.0-6.51","2501024","co39295","norming","","","{""aha"":3}","[0]","../img/tt/1262tt.jpg","",""
"null","<div style=""font-size:60px;""> </div>","null","fixation","html-keyboard-response","370","1056844","0.0-6.0-0.52","2501024","co39295","norming","","","","","","",""
"null","../img/tt/098tt.jpg","null","mooney1","image-keyboard-response","371","1059848","0.0-6.0-1.52","2501024","co39295","norming","","","","","","",""
"3192.0249999966472","","","post_mooney1_questions","survey-likert","372","1063043","0.0-6.0-2.52","2501024","co39295","norming","","","{""curiosity"":5,""confidence"":0}","[0,1]","../img/tt/098tt.jpg","",""
"293.3750000083819","","","recognition","survey-text","373","1063340","0.0-6.0-3.52","2501024","co39295","norming","","","{""guess"":""""}","","../img/tt/098tt.jpg","",""
"null","../img/gs/098gs.jpg","null","reveal","image-keyboard-response","374","1065342","0.0-6.0-4.52","2501024","co39295","norming","","","","","","",""
"null","../img/tt/098tt.jpg","null","mooney2","image-keyboard-response","375","1067344","0.0-6.0-5.52","2501024","co39295","norming","","","","","","",""
"2758.04500002414","","","post_reveal_questions","survey-likert","376","1070104","0.0-6.0-6.52","2501024","co39295","norming","","","{""aha"":5}","[0]","../img/tt/098tt.jpg","",""
"null","<div style=""font-size:60px;""> </div>","null","fixation","html-keyboard-response","377","1070306","0.0-6.0-0.53","2501024","co39295","norming","","","","","","",""
"null","../img/tt/036tt.jpg","null","mooney1","image-keyboard-response","378","1073310","0.0-6.0-1.53","2501024","co39295","norming","","","","","","",""
"3516.6400000452995","","","post_mooney1_questions","survey-likert","379","1076830","0.0-6.0-2.53","2501024","co39295","norming","","","{""curiosity"":5,""confidence"":1}","[0,1]","../img/tt/036tt.jpg","",""
"1649.6400000178255","","","recognition","survey-text","380","1078482","0.0-6.0-3.53","2501024","co39295","norming","","","{""guess"":""wortels""}","","../img/tt/036tt.jpg","",""
"null","../img/gs/036gs.jpg","null","reveal","image-keyboard-response","381","1080484","0.0-6.0-4.53","2501024","co39295","norming","","","","","","",""
"null","../img/tt/036tt.jpg","null","mooney2","image-keyboard-response","382","1082487","0.0-6.0-5.53","2501024","co39295","norming","","","","","","",""
"3318.794999970123","","","post_reveal_questions","survey-likert","383","1085809","0.0-6.0-6.53","2501024","co39295","norming","","","{""aha"":6}","[0]","../img/tt/036tt.jpg","",""
"null","<div style=""font-size:60px;""> </div>","null","fixation","html-keyboard-response","384","1086011","0.0-6.0-0.54","2501024","co39295","norming","","","","","","",""
"null","../img/tt/1260tt.jpg","null","mooney1","image-keyboard-response","385","1089014","0.0-6.0-1.54","2501024","co39295","norming","","","","","","",""
"5613.53999999119","","","post_mooney1_questions","survey-likert","386","1094632","0.0-6.0-2.54","2501024","co39295","norming","","","{""curiosity"":5,""confidence"":2}","[0,1]","../img/tt/1260tt.jpg","",""
"1981.229999975767","","","recognition","survey-text","387","1096616","0.0-6.0-3.54","2501024","co39295","norming","","","{""guess"":""muis""}","","../img/tt/1260tt.jpg","",""
"null","../img/gs/1260gs.jpg","null","reveal","image-keyboard-response","388","1098619","0.0-6.0-4.54","2501024","co39295","norming","","","","","","",""
"null","../img/tt/1260tt.jpg","null","mooney2","image-keyboard-response","389","1100621","0.0-6.0-5.54","2501024","co39295","norming","","","","","","",""
"4194.950000033714","","","post_reveal_questions","survey-likert","390","1104819","0.0-6.0-6.54","2501024","co39295","norming","","","{""aha"":1}","[0]","../img/tt/1260tt.jpg","",""
"null","<div style=""font-size:60px;""> </div>","null","fixation","html-keyboard-response","391","1105021","0.0-6.0-0.55","2501024","co39295","norming","","","","","","",""
"null","../img/tt/273tt.jpg","null","mooney1","image-keyboard-response","392","1108025","0.0-6.0-1.55","2501024","co39295","norming","","","","","","",""
"2705.5700000491925","","","post_mooney1_questions","survey-likert","393","1110734","0.0-6.0-2.55","2501024","co39295","norming","","","{""curiosity"":6,""confidence"":0}","[0,1]","../img/tt/273tt.jpg","",""
"1127.1899999701418","","","recognition","survey-text","394","1111864","0.0-6.0-3.55","2501024","co39295","norming","","","{""guess"":""""}","","../img/tt/273tt.jpg","",""
"null","../img/gs/273gs.jpg","null","reveal","image-keyboard-response","395","1113868","0.0-6.0-4.55","2501024","co39295","norming","","","","","","",""
"null","../img/tt/273tt.jpg","null","mooney2","image-keyboard-response","396","1115871","0.0-6.0-5.55","2501024","co39295","norming","","","","","","",""
"2528.584999963641","","","post_reveal_questions","survey-likert","397","1118402","0.0-6.0-6.55","2501024","co39295","norming","","","{""aha"":6}","[0]","../img/tt/273tt.jpg","",""
"null","<div style=""font-size:60px;""> </div>","null","fixation","html-keyboard-response","398","1118604","0.0-6.0-0.56","2501024","co39295","norming","","","","","","",""
"null","../img/tt/076tt.jpg","null","mooney1","image-keyboard-response","399","1121608","0.0-6.0-1.56","2501024","co39295","norming","","","","","","",""
"3446.9699999899603","","","post_mooney1_questions","survey-likert","400","1125059","0.0-6.0-2.56","2501024","co39295","norming","","","{""curiosity"":4,""confidence"":3}","[0,1]","../img/tt/076tt.jpg","",""
"3443.2899999665096","","","recognition","survey-text","401","1128505","0.0-6.0-3.56","2501024","co39295","norming","","","{""guess"":""rollerskates""}","","../img/tt/076tt.jpg","",""
"null","../img/gs/076gs.jpg","null","reveal","image-keyboard-response","402","1130507","0.0-6.0-4.56","2501024","co39295","norming","","","","","","",""
"null","../img/tt/076tt.jpg","null","mooney2","image-keyboard-response","403","1132509","0.0-6.0-5.56","2501024","co39295","norming","","","","","","",""
"4140.500000037719","","","post_reveal_questions","survey-likert","404","1136653","0.0-6.0-6.56","2501024","co39295","norming","","","{""aha"":1}","[0]","../img/tt/076tt.jpg","",""
"null","<div style=""font-size:60px;""> </div>","null","fixation","html-keyboard-response","405","1136856","0.0-6.0-0.57","2501024","co39295","norming","","","","","","",""
"null","../img/tt/1200tt.jpg","null","mooney1","image-keyboard-response","406","1139858","0.0-6.0-1.57","2501024","co39295","norming","","","","","","",""
"5290.2650000178255","","","post_mooney1_questions","survey-likert","407","1145152","0.0-6.0-2.57","2501024","co39295","norming","","","{""curiosity"":4,""confidence"":4}","[0,1]","../img/tt/1200tt.jpg","",""
"1139.7499999729916","","","recognition","survey-text","408","1146295","0.0-6.0-3.57","2501024","co39295","norming","","","{""guess"":""kano""}","","../img/tt/1200tt.jpg","",""
"null","../img/gs/1200gs.jpg","null","reveal","image-keyboard-response","409","1148297","0.0-6.0-4.57","2501024","co39295","norming","","","","","","",""
"null","../img/tt/1200tt.jpg","null","mooney2","image-keyboard-response","410","1150299","0.0-6.0-5.57","2501024","co39295","norming","","","","","","",""
"5122.434999968391","","","post_reveal_questions","survey-likert","411","1155424","0.0-6.0-6.57","2501024","co39295","norming","","","{""aha"":1}","[0]","../img/tt/1200tt.jpg","",""
"null","<div style=""font-size:60px;""> </div>","null","fixation","html-keyboard-response","412","1155627","0.0-6.0-0.58","2501024","co39295","norming","","","","","","",""
"null","../img/tt/1066tt.jpg","null","mooney1","image-keyboard-response","413","1158631","0.0-6.0-1.58","2501024","co39295","norming","","","","","","",""
"4881.739999982528","","","post_mooney1_questions","survey-likert","414","1163516","0.0-6.0-2.58","2501024","co39295","norming","","","{""curiosity"":3,""confidence"":3}","[0,1]","../img/tt/1066tt.jpg","",""
"2218.585000024177","","","recognition","survey-text","415","1165738","0.0-6.0-3.58","2501024","co39295","norming","","","{""guess"":""bus""}","","../img/tt/1066tt.jpg","",""
"null","../img/gs/1066gs.jpg","null","reveal","image-keyboard-response","416","1167742","0.0-6.0-4.58","2501024","co39295","norming","","","","","","",""
"null","../img/tt/1066tt.jpg","null","mooney2","image-keyboard-response","417","1169746","0.0-6.0-5.58","2501024","co39295","norming","","","","","","",""
"1953.1600000336766","","","post_reveal_questions","survey-likert","418","1171702","0.0-6.0-6.58","2501024","co39295","norming","","","{""aha"":2}","[0]","../img/tt/1066tt.jpg","",""
"null","<div style=""font-size:60px;""> </div>","null","fixation","html-keyboard-response","419","1171903","0.0-6.0-0.59","2501024","co39295","norming","","","","","","",""
"null","../img/tt/1148tt.jpg","null","mooney1","image-keyboard-response","420","1174907","0.0-6.0-1.59","2501024","co39295","norming","","","","","","",""
"4338.774999952875","","","post_mooney1_questions","survey-likert","421","1179250","0.0-6.0-2.59","2501024","co39295","norming","","","{""curiosity"":4,""confidence"":2}","[0,1]","../img/tt/1148tt.jpg","",""
"4548.130000010133","","","recognition","survey-text","422","1183801","0.0-6.0-3.59","2501024","co39295","norming","","","{""guess"":""bureaustoelen""}","","../img/tt/1148tt.jpg","",""
"null","../img/gs/1148gs.jpg","null","reveal","image-keyboard-response","423","1185803","0.0-6.0-4.59","2501024","co39295","norming","","","","","","",""
"null","../img/tt/1148tt.jpg","null","mooney2","image-keyboard-response","424","1187805","0.0-6.0-5.59","2501024","co39295","norming","","","","","","",""
"3682.459999981802","","","post_reveal_questions","survey-likert","425","1191491","0.0-6.0-6.59","2501024","co39295","norming","","","{""aha"":5}","[0]","../img/tt/1148tt.jpg","",""
"null","<div style=""font-size:60px;""> </div>","null","fixation","html-keyboard-response","426","1191692","0.0-6.0-0.60","2501024","co39295","norming","","","","","","",""
"null","../img/tt/1255tt.jpg","null","mooney1","image-keyboard-response","427","1194696","0.0-6.0-1.60","2501024","co39295","norming","","","","","","",""
"4707.110000017565","","","post_mooney1_questions","survey-likert","428","1199406","0.0-6.0-2.60","2501024","co39295","norming","","","{""curiosity"":4,""confidence"":2}","[0,1]","../img/tt/1255tt.jpg","",""
"1373.8499999744818","","","recognition","survey-text","429","1200783","0.0-6.0-3.60","2501024","co39295","norming","","","{""guess"":""konijn""}","","../img/tt/1255tt.jpg","",""
"null","../img/gs/1255gs.jpg","null","reveal","image-keyboard-response","430","1202786","0.0-6.0-4.60","2501024","co39295","norming","","","","","","",""
"null","../img/tt/1255tt.jpg","null","mooney2","image-keyboard-response","431","1204788","0.0-6.0-5.60","2501024","co39295","norming","","","","","","",""
"2510.655000049155","","","post_reveal_questions","survey-likert","432","1207300","0.0-6.0-6.60","2501024","co39295","norming","","","{""aha"":1}","[0]","../img/tt/1255tt.jpg","",""
"null","<div style=""font-size:60px;""> </div>","null","fixation","html-keyboard-response","433","1207503","0.0-6.0-0.61","2501024","co39295","norming","","","","","","",""
"null","../img/tt/1040tt.jpg","null","mooney1","image-keyboard-response","434","1210505","0.0-6.0-1.61","2501024","co39295","norming","","","","","","",""
"4635.569999984","","","post_mooney1_questions","survey-likert","435","1215143","0.0-6.0-2.61","2501024","co39295","norming","","","{""curiosity"":6,""confidence"":0}","[0,1]","../img/tt/1040tt.jpg","",""
"133.00500001059845","","","recognition","survey-text","436","1215279","0.0-6.0-3.61","2501024","co39295","norming","","","{""guess"":""""}","","../img/tt/1040tt.jpg","",""
"null","../img/gs/1040gs.jpg","null","reveal","image-keyboard-response","437","1217282","0.0-6.0-4.61","2501024","co39295","norming","","","","","","",""
"null","../img/tt/1040tt.jpg","null","mooney2","image-keyboard-response","438","1219284","0.0-6.0-5.61","2501024","co39295","norming","","","","","","",""
"2692.1049999655224","","","post_reveal_questions","survey-likert","439","1221979","0.0-6.0-6.61","2501024","co39295","norming","","","{""aha"":5}","[0]","../img/tt/1040tt.jpg","",""
"null","<div style=""font-size:60px;""> </div>","null","fixation","html-keyboard-response","440","1222181","0.0-6.0-0.62","2501024","co39295","norming","","","","","","",""
"null","../img/tt/078tt.jpg","null","mooney1","image-keyboard-response","441","1225184","0.0-6.0-1.62","2501024","co39295","norming","","","","","","",""
"3639.62500001071","","","post_mooney1_questions","survey-likert","442","1228828","0.0-6.0-2.62","2501024","co39295","norming","","","{""curiosity"":3,""confidence"":3}","[0,1]","../img/tt/078tt.jpg","",""
"1119.3900000071153","","","recognition","survey-text","443","1229950","0.0-6.0-3.62","2501024","co39295","norming","","","{""guess"":""druiven""}","","../img/tt/078tt.jpg","",""
"null","../img/gs/078gs.jpg","null","reveal","image-keyboard-response","444","1231953","0.0-6.0-4.62","2501024","co39295","norming","","","","","","",""
"null","../img/tt/078tt.jpg","null","mooney2","image-keyboard-response","445","1233956","0.0-6.0-5.62","2501024","co39295","norming","","","","","","",""
"3353.6949999979697","","","post_reveal_questions","survey-likert","446","1237313","0.0-6.0-6.62","2501024","co39295","norming","","","{""aha"":1}","[0]","../img/tt/078tt.jpg","",""
"null","<div style=""font-size:60px;""> </div>","null","fixation","html-keyboard-response","447","1237514","0.0-6.0-0.63","2501024","co39295","norming","","","","","","",""
"null","../img/tt/1033tt.jpg","null","mooney1","image-keyboard-response","448","1240519","0.0-6.0-1.63","2501024","co39295","norming","","","","","","",""
"5034.044999978505","","","post_mooney1_questions","survey-likert","449","1245556","0.0-6.0-2.63","2501024","co39295","norming","","","{""curiosity"":4,""confidence"":2}","[0,1]","../img/tt/1033tt.jpg","",""
"1244.829999981448","","","recognition","survey-text","450","1246804","0.0-6.0-3.63","2501024","co39295","norming","","","{""guess"":""indiaan""}","","../img/tt/1033tt.jpg","",""
"null","../img/gs/1033gs.jpg","null","reveal","image-keyboard-response","451","1248807","0.0-6.0-4.63","2501024","co39295","norming","","","","","","",""
"null","../img/tt/1033tt.jpg","null","mooney2","image-keyboard-response","452","1250810","0.0-6.0-5.63","2501024","co39295","norming","","","","","","",""
"2226.710000017192","","","post_reveal_questions","survey-likert","453","1253040","0.0-6.0-6.63","2501024","co39295","norming","","","{""aha"":5}","[0]","../img/tt/1033tt.jpg","",""
"null","<div style=""font-size:60px;""> </div>","null","fixation","html-keyboard-response","454","1253242","0.0-6.0-0.64","2501024","co39295","norming","","","","","","",""
"null","../img/tt/1097tt.jpg","null","mooney1","image-keyboard-response","455","1256246","0.0-6.0-1.64","2501024","co39295","norming","","","","","","",""
"4596.360000025015","","","post_mooney1_questions","survey-likert","456","1260845","0.0-6.0-2.64","2501024","co39295","norming","","","{""curiosity"":4,""confidence"":3}","[0,1]","../img/tt/1097tt.jpg","",""
"779.0099999983795","","","recognition","survey-text","457","1261627","0.0-6.0-3.64","2501024","co39295","norming","","","{""guess"":""boer""}","","../img/tt/1097tt.jpg","",""
"null","../img/gs/1097gs.jpg","null","reveal","image-keyboard-response","458","1263630","0.0-6.0-4.64","2501024","co39295","norming","","","","","","",""
"null","../img/tt/1097tt.jpg","null","mooney2","image-keyboard-response","459","1265633","0.0-6.0-5.64","2501024","co39295","norming","","","","","","",""
"3175.66499998793","","","post_reveal_questions","survey-likert","460","1268812","0.0-6.0-6.64","2501024","co39295","norming","","","{""aha"":5}","[0]","../img/tt/1097tt.jpg","",""
"null","<div style=""font-size:60px;""> </div>","null","fixation","html-keyboard-response","461","1269014","0.0-6.0-0.65","2501024","co39295","norming","","","","","","",""
"null","../img/tt/1196tt.jpg","null","mooney1","image-keyboard-response","462","1272018","0.0-6.0-1.65","2501024","co39295","norming","","","","","","",""
"4031.4650000073016","","","post_mooney1_questions","survey-likert","463","1276053","0.0-6.0-2.65","2501024","co39295","norming","","","{""curiosity"":5,""confidence"":0}","[0,1]","../img/tt/1196tt.jpg","",""
"1481.5449999878183","","","recognition","survey-text","464","1277538","0.0-6.0-3.65","2501024","co39295","norming","","","{""guess"":""""}","","../img/tt/1196tt.jpg","",""
"null","../img/gs/1196gs.jpg","null","reveal","image-keyboard-response","465","1279540","0.0-6.0-4.65","2501024","co39295","norming","","","","","","",""
"null","../img/tt/1196tt.jpg","null","mooney2","image-keyboard-response","466","1281543","0.0-6.0-5.65","2501024","co39295","norming","","","","","","",""
"3969.760000007227","","","post_reveal_questions","survey-likert","467","1285516","0.0-6.0-6.65","2501024","co39295","norming","","","{""aha"":6}","[0]","../img/tt/1196tt.jpg","",""
"null","<div style=""font-size:60px;""> </div>","null","fixation","html-keyboard-response","468","1285717","0.0-6.0-0.66","2501024","co39295","norming","","","","","","",""
"null","../img/tt/497tt.jpg","null","mooney1","image-keyboard-response","469","1288721","0.0-6.0-1.66","2501024","co39295","norming","","","","","","",""
"4315.730000031181","","","post_mooney1_questions","survey-likert","470","1293041","0.0-6.0-2.66","2501024","co39295","norming","","","{""curiosity"":4,""confidence"":3}","[0,1]","../img/tt/497tt.jpg","",""
"1781.539999996312","","","recognition","survey-text","471","1294826","0.0-6.0-3.66","2501024","co39295","norming","","","{""guess"":""gasvuur""}","","../img/tt/497tt.jpg","",""
"null","../img/gs/497gs.jpg","null","reveal","image-keyboard-response","472","1296829","0.0-6.0-4.66","2501024","co39295","norming","","","","","","",""
"null","../img/tt/497tt.jpg","null","mooney2","image-keyboard-response","473","1298833","0.0-6.0-5.66","2501024","co39295","norming","","","","","","",""
"3306.3100000144914","","","post_reveal_questions","survey-likert","474","1302142","0.0-6.0-6.66","2501024","co39295","norming","","","{""aha"":0}","[0]","../img/tt/497tt.jpg","",""
"null","<div style=""font-size:60px;""> </div>","null","fixation","html-keyboard-response","475","1302345","0.0-6.0-0.67","2501024","co39295","norming","","","","","","",""
"null","../img/tt/1241tt.jpg","null","mooney1","image-keyboard-response","476","1305349","0.0-6.0-1.67","2501024","co39295","norming","","","","","","",""
"4455.090000003111","","","post_mooney1_questions","survey-likert","477","1309808","0.0-6.0-2.67","2501024","co39295","norming","","","{""curiosity"":4,""confidence"":2}","[0,1]","../img/tt/1241tt.jpg","",""
"1463.545000005979","","","recognition","survey-text","478","1311274","0.0-6.0-3.67","2501024","co39295","norming","","","{""guess"":""stier""}","","../img/tt/1241tt.jpg","",""
"null","../img/gs/1241gs.jpg","null","reveal","image-keyboard-response","479","1313275","0.0-6.0-4.67","2501024","co39295","norming","","","","","","",""
"null","../img/tt/1241tt.jpg","null","mooney2","image-keyboard-response","480","1315277","0.0-6.0-5.67","2501024","co39295","norming","","","","","","",""
"3187.8799999831244","","","post_reveal_questions","survey-likert","481","1318468","0.0-6.0-6.67","2501024","co39295","norming","","","{""aha"":5}","[0]","../img/tt/1241tt.jpg","",""
"null","<div style=""font-size:60px;""> </div>","null","fixation","html-keyboard-response","482","1318672","0.0-6.0-0.68","2501024","co39295","norming","","","","","","",""
"null","../img/tt/184tt.jpg","null","mooney1","image-keyboard-response","483","1321676","0.0-6.0-1.68","2501024","co39295","norming","","","","","","",""
"6599.259999988135","","","post_mooney1_questions","survey-likert","484","1328280","0.0-6.0-2.68","2501024","co39295","norming","","","{""curiosity"":5,""confidence"":0}","[0,1]","../img/tt/184tt.jpg","",""
"96.89500002423301","","","recognition","survey-text","485","1328380","0.0-6.0-3.68","2501024","co39295","norming","","","{""guess"":""""}","","../img/tt/184tt.jpg","",""
"null","../img/gs/184gs.jpg","null","reveal","image-keyboard-response","486","1330383","0.0-6.0-4.68","2501024","co39295","norming","","","","","","",""
"null","../img/tt/184tt.jpg","null","mooney2","image-keyboard-response","487","1332385","0.0-6.0-5.68","2501024","co39295","norming","","","","","","",""
"3085.2949999971315","","","post_reveal_questions","survey-likert","488","1335474","0.0-6.0-6.68","2501024","co39295","norming","","","{""aha"":4}","[0]","../img/tt/184tt.jpg","",""
"null","<div style=""font-size:60px;""> </div>","null","fixation","html-keyboard-response","489","1335675","0.0-6.0-0.69","2501024","co39295","norming","","","","","","",""
"null","../img/tt/1126tt.jpg","null","mooney1","image-keyboard-response","490","1338679","0.0-6.0-1.69","2501024","co39295","norming","","","","","","",""
"5914.000000047963","","","post_mooney1_questions","survey-likert","491","1344597","0.0-6.0-2.69","2501024","co39295","norming","","","{""curiosity"":4,""confidence"":3}","[0,1]","../img/tt/1126tt.jpg","",""
"2644.2299999762326","","","recognition","survey-text","492","1347244","0.0-6.0-3.69","2501024","co39295","norming","","","{""guess"":""boomschors""}","","../img/tt/1126tt.jpg","",""
"null","../img/gs/1126gs.jpg","null","reveal","image-keyboard-response","493","1349246","0.0-6.0-4.69","2501024","co39295","norming","","","","","","",""
"null","../img/tt/1126tt.jpg","null","mooney2","image-keyboard-response","494","1351249","0.0-6.0-5.69","2501024","co39295","norming","","","","","","",""
"2826.7249999917112","","","post_reveal_questions","survey-likert","495","1354079","0.0-6.0-6.69","2501024","co39295","norming","","","{""aha"":5}","[0]","../img/tt/1126tt.jpg","",""
"null","<div style=""font-size:60px;""> </div>","null","fixation","html-keyboard-response","496","1354282","0.0-6.0-0.70","2501024","co39295","norming","","","","","","",""
"null","../img/tt/442tt.jpg","null","mooney1","image-keyboard-response","497","1357286","0.0-6.0-1.70","2501024","co39295","norming","","","","","","",""
"6566.090000036638","","","post_mooney1_questions","survey-likert","498","1363856","0.0-6.0-2.70","2501024","co39295","norming","","","{""curiosity"":6,""confidence"":1}","[0,1]","../img/tt/442tt.jpg","",""
"1397.4049999960698","","","recognition","survey-text","499","1365257","0.0-6.0-3.70","2501024","co39295","norming","","","{""guess"":""ananas""}","","../img/tt/442tt.jpg","",""
"null","../img/gs/442gs.jpg","null","reveal","image-keyboard-response","500","1367260","0.0-6.0-4.70","2501024","co39295","norming","","","","","","",""
"null","../img/tt/442tt.jpg","null","mooney2","image-keyboard-response","501","1369263","0.0-6.0-5.70","2501024","co39295","norming","","","","","","",""
"11098.534999997355","","","post_reveal_questions","survey-likert","502","1380364","0.0-6.0-6.70","2501024","co39295","norming","","","{""aha"":5}","[0]","../img/tt/442tt.jpg","",""
"null","<div style=""font-size:60px;""> </div>","null","fixation","html-keyboard-response","503","1380566","0.0-6.0-0.71","2501024","co39295","norming","","","","","","",""
"null","../img/tt/052tt.jpg","null","mooney1","image-keyboard-response","504","1383570","0.0-6.0-1.71","2501024","co39295","norming","","","","","","",""
"20491.589999990538","","","post_mooney1_questions","survey-likert","505","1404067","0.0-6.0-2.71","2501024","co39295","norming","","","{""curiosity"":5,""confidence"":1}","[0,1]","../img/tt/052tt.jpg","",""
"2310.3750000009313","","","recognition","survey-text","506","1406381","0.0-6.0-3.71","2501024","co39295","norming","","","{""guess"":""trommel""}","","../img/tt/052tt.jpg","",""
"null","../img/gs/052gs.jpg","null","reveal","image-keyboard-response","507","1408383","0.0-6.0-4.71","2501024","co39295","norming","","","","","","",""
"null","../img/tt/052tt.jpg","null","mooney2","image-keyboard-response","508","1410386","0.0-6.0-5.71","2501024","co39295","norming","","","","","","",""
"3442.3700000043027","","","post_reveal_questions","survey-likert","509","1413831","0.0-6.0-6.71","2501024","co39295","norming","","","{""aha"":5}","[0]","../img/tt/052tt.jpg","",""
"null","<div style=""font-size:60px;""> </div>","null","fixation","html-keyboard-response","510","1414034","0.0-6.0-0.72","2501024","co39295","norming","","","","","","",""
"null","../img/tt/1242tt.jpg","null","mooney1","image-keyboard-response","511","1417037","0.0-6.0-1.72","2501024","co39295","norming","","","","","","",""
"3871.9099999871105","","","post_mooney1_questions","survey-likert","512","1420913","0.0-6.0-2.72","2501024","co39295","norming","","","{""curiosity"":4,""confidence"":2}","[0,1]","../img/tt/1242tt.jpg","",""
"2551.4299999922514","","","recognition","survey-text","513","1423468","0.0-6.0-3.72","2501024","co39295","norming","","","{""guess"":""hand hond""}","","../img/tt/1242tt.jpg","",""
"null","../img/gs/1242gs.jpg","null","reveal","image-keyboard-response","514","1425469","0.0-6.0-4.72","2501024","co39295","norming","","","","","","",""
"null","../img/tt/1242tt.jpg","null","mooney2","image-keyboard-response","515","1427472","0.0-6.0-5.72","2501024","co39295","norming","","","","","","",""
"2791.1350000067614","","","post_reveal_questions","survey-likert","516","1430266","0.0-6.0-6.72","2501024","co39295","norming","","","{""aha"":4}","[0]","../img/tt/1242tt.jpg","",""
"null","<div style=""font-size:60px;""> </div>","null","fixation","html-keyboard-response","517","1430469","0.0-6.0-0.73","2501024","co39295","norming","","","","","","",""
"null","../img/tt/124tt.jpg","null","mooney1","image-keyboard-response","518","1433472","0.0-6.0-1.73","2501024","co39295","norming","","","","","","",""
"4722.490000014659","","","post_mooney1_questions","survey-likert","519","1438198","0.0-6.0-2.73","2501024","co39295","norming","","","{""curiosity"":3,""confidence"":5}","[0,1]","../img/tt/124tt.jpg","",""
"780.1800000015646","","","recognition","survey-text","520","1438982","0.0-6.0-3.73","2501024","co39295","norming","","","{""guess"":""aap""}","","../img/tt/124tt.jpg","",""
"null","../img/gs/124gs.jpg","null","reveal","image-keyboard-response","521","1440985","0.0-6.0-4.73","2501024","co39295","norming","","","","","","",""
"null","../img/tt/124tt.jpg","null","mooney2","image-keyboard-response","522","1442987","0.0-6.0-5.73","2501024","co39295","norming","","","","","","",""
"3513.654999958817","","","post_reveal_questions","survey-likert","523","1446504","0.0-6.0-6.73","2501024","co39295","norming","","","{""aha"":1}","[0]","../img/tt/124tt.jpg","",""
"null","<div style=""font-size:60px;""> </div>","null","fixation","html-keyboard-response","524","1446708","0.0-6.0-0.74","2501024","co39295","norming","","","","","","",""
"null","../img/tt/306tt.jpg","null","mooney1","image-keyboard-response","525","1449711","0.0-6.0-1.74","2501024","co39295","norming","","","","","","",""
"3635.985000000801","","","post_mooney1_questions","survey-likert","526","1453351","0.0-6.0-2.74","2501024","co39295","norming","","","{""curiosity"":6,""confidence"":0}","[0,1]","../img/tt/306tt.jpg","",""
"305.47000002115965","","","recognition","survey-text","527","1453660","0.0-6.0-3.74","2501024","co39295","norming","","","{""guess"":""""}","","../img/tt/306tt.jpg","",""
"null","../img/gs/306gs.jpg","null","reveal","image-keyboard-response","528","1455662","0.0-6.0-4.74","2501024","co39295","norming","","","","","","",""
"null","../img/tt/306tt.jpg","null","mooney2","image-keyboard-response","529","1457664","0.0-6.0-5.74","2501024","co39295","norming","","","","","","",""
"3040.8799999859184","","","post_reveal_questions","survey-likert","530","1460708","0.0-6.0-6.74","2501024","co39295","norming","","","{""aha"":6}","[0]","../img/tt/306tt.jpg","",""
"null","<div style=""font-size:60px;""> </div>","null","fixation","html-keyboard-response","531","1460911","0.0-6.0-0.75","2501024","co39295","norming","","","","","","",""
"null","../img/tt/515tt.jpg","null","mooney1","image-keyboard-response","532","1463915","0.0-6.0-1.75","2501024","co39295","norming","","","","","","",""
"4617.214999976568","","","post_mooney1_questions","survey-likert","533","1468535","0.0-6.0-2.75","2501024","co39295","norming","","","{""curiosity"":4,""confidence"":3}","[0,1]","../img/tt/515tt.jpg","",""
"3254.160000011325","","","recognition","survey-text","534","1471793","0.0-6.0-3.75","2501024","co39295","norming","","","{""guess"":""vogel""}","","../img/tt/515tt.jpg","",""
"null","../img/gs/515gs.jpg","null","reveal","image-keyboard-response","535","1473795","0.0-6.0-4.75","2501024","co39295","norming","","","","","","",""
"null","../img/tt/515tt.jpg","null","mooney2","image-keyboard-response","536","1475798","0.0-6.0-5.75","2501024","co39295","norming","","","","","","",""
"3262.8050000057556","","","post_reveal_questions","survey-likert","537","1479064","0.0-6.0-6.75","2501024","co39295","norming","","","{""aha"":1}","[0]","../img/tt/515tt.jpg","",""
"null","<div style=""font-size:60px;""> </div>","null","fixation","html-keyboard-response","538","1479265","0.0-6.0-0.76","2501024","co39295","norming","","","","","","",""
"null","../img/tt/008tt.jpg","null","mooney1","image-keyboard-response","539","1482269","0.0-6.0-1.76","2501024","co39295","norming","","","","","","",""
"3485.935000004247","","","post_mooney1_questions","survey-likert","540","1485760","0.0-6.0-2.76","2501024","co39295","norming","","","{""curiosity"":4,""confidence"":2}","[0,1]","../img/tt/008tt.jpg","",""
"1421.619999979157","","","recognition","survey-text","541","1487184","0.0-6.0-3.76","2501024","co39295","norming","","","{""guess"":""geweer""}","","../img/tt/008tt.jpg","",""
"null","../img/gs/008gs.jpg","null","reveal","image-keyboard-response","542","1489187","0.0-6.0-4.76","2501024","co39295","norming","","","","","","",""
"null","../img/tt/008tt.jpg","null","mooney2","image-keyboard-response","543","1491189","0.0-6.0-5.76","2501024","co39295","norming","","","","","","",""
"3729.4699999620207","","","post_reveal_questions","survey-likert","544","1494922","0.0-6.0-6.76","2501024","co39295","norming","","","{""aha"":1}","[0]","../img/tt/008tt.jpg","",""
"null","<div style=""font-size:60px;""> </div>","null","fixation","html-keyboard-response","545","1495123","0.0-6.0-0.77","2501024","co39295","norming","","","","","","",""
"null","../img/tt/118tt.jpg","null","mooney1","image-keyboard-response","546","1498127","0.0-6.0-1.77","2501024","co39295","norming","","","","","","",""
"6510.529999970458","","","post_mooney1_questions","survey-likert","547","1504641","0.0-6.0-2.77","2501024","co39295","norming","","","{""curiosity"":5,""confidence"":0}","[0,1]","../img/tt/118tt.jpg","",""
"106.12499999115244","","","recognition","survey-text","548","1504751","0.0-6.0-3.77","2501024","co39295","norming","","","{""guess"":""""}","","../img/tt/118tt.jpg","",""
"null","../img/gs/118gs.jpg","null","reveal","image-keyboard-response","549","1506752","0.0-6.0-4.77","2501024","co39295","norming","","","","","","",""
"null","../img/tt/118tt.jpg","null","mooney2","image-keyboard-response","550","1508754","0.0-6.0-5.77","2501024","co39295","norming","","","","","","",""
"3291.8850000132807","","","post_reveal_questions","survey-likert","551","1512049","0.0-6.0-6.77","2501024","co39295","norming","","","{""aha"":5}","[0]","../img/tt/118tt.jpg","",""
"null","<div style=""font-size:60px;""> </div>","null","fixation","html-keyboard-response","552","1512252","0.0-6.0-0.78","2501024","co39295","norming","","","","","","",""
