"rt","stimulus","key_press","test_part","trial_type","trial_index","time_elapsed","internal_node_id","totalTime","subject","experiment_name","button_pressed","success","responses","question_order","currentStim","old","correct"
"47694","Welcome to the experiment. This is an online experiment so please don't close the tab/window until we say goodbye.  Press any key to begin.","70","instructions","html-keyboard-response","0","47733","0.0-0.0","3385841","co39136","norming","","","","","","",""
"5756","<div style='word-wrap: break-word; width: 900px'><h3>Please consider this information carefully before deciding whether to participate in this research</h3><ul style='text-align: left; font-size: .8em;'><li><b>Purpose of the research</b>: To examine how people process images.</li><li><b>What you will do in this research</b>:  Stimuli (images) will be presented on the computer and you will be asked different questions about them.</li><li><b>Time required</b>: Participation will take between 45 and 60 minutes to complete.</li><li><b>Risks</b>:  There are no anticipated risks associated with participating in this study. The effects of participating should be comparable to those you would experience from viewing a computer monitor for 30 minutes and using a mouse or keyboard.</li><li><b>Benefits</b>:  This study provides no benefits to you individually except for the credit. The study provides important information about the nature of perception and learning.</li><li><b>Confidentiality</b>:  Your participation in this study will remain confidential. No personally identifiable information will be associated with your data. Your de-identified data may be shared with other researchers and used in future projects.</li><li><b>Participation and withdrawal</b>:  Your participation in this study is completely voluntary and you may refuse to participate or you may choose to withdraw at any time without penalty.</li><li><b>How to contact the researchers</b>: If you have questions or concerns about your participation or payment, or want to request a summary of research findings, please contact Sander Van de Cruys (KU Leuven), at sander.vandecruys@kuleuven.be.</li></ul><p>The nature and purpose of this research have been sufficiently explained and I agree to participate in this study.  I understand that I am free to withdraw at any time without incurring any penalty.</p><p>Please consent by clicking the button below to continue. Otherwise, please exit the study at this time.</p></div>","","instructions","html-button-response","1","53491","0.0-1.0","3385841","co39136","norming","0","","","","","",""
"","","","instructions","fullscreen","2","55955","0.0-2.0","3385841","co39136","norming","","true","","","","",""
"51855.99999999999","","","sona","survey-html-form","3","107813","0.0-3.0","3385841","co39136","norming","","","[{""name"":""sonaid"",""value"":""39136""},{""name"":""debrief"",""value"":""no""},{""name"":""datajoin"",""value"":""yes""}]","","","",""
"11601","<div style='word-wrap: break-word; width: 900px'><h3>Instructions</h3><p>This experiment will have 3 parts. In the first part you will see a series of distorted images like the one below on the left. As you can see in the righthand image, the distorted images are derived from actual photographs. In what follows, you will <strong>briefly</strong> be presented with <strong>only</strong> the distorted image.</p> <div style='float: left; margin-right: 20px;'><img src='../img/018tt.jpg' height='250' width='250'></img></div><div style='float: right; margin-left: 20px;'><img src='../img/018gs.jpg' height='250' width='250'></img></div><p>Subsequently you will be asked a few questions about the image: One question on how <strong>curious</strong> you are about the solution and one on how <strong>confident</strong> you are that you know the solution.</p>Next, we ask you to make a guess on what is in the image. Note that it is OK to name just the <strong>basic level category</strong>. For example when you see a parrot in the image, 'parrot' will obviously be a correct answer but also correct is 'bird'. However, 'animal' will <strong>not</strong> be counted as a correct response. For the example above, 'rose' would be correct or 'flower', but not 'plant'. When soccer players are depicted, 'soccer', 'football', 'soccer players' will be correct, but not 'humans', 'outdoors', or 'sports'. You do not need to describe the image in full, just name the main object in it <strong>in one or two words</strong>. All images depict objects from one of the following broad level categories: animals, inanimate objects, plants, sports, vehicles, and food. Recognizing means knowing <strong>more</strong> than these broad labels for a given image. But we always encourage you to <strong>make a guess</strong> if you can. Note that you are allowed to use <strong>Dutch and English</strong> in your answers, whatever comes easiest for you.</p><p>Press any key to continue.</p></div>","71","instructions","html-keyboard-response","4","119416","0.0-4.0","3385841","co39136","norming","","","","","","",""
"22754","<div style='word-wrap: break-word; width: 900px'><h3>Instructions</h3> <p>Next, the solution image will be revealed to you and you'll be asked to indicate how strong your <strong>aha-experience</strong> was after seeing the solution. This describes the positive feeling of the 'click' you sometimes experience, when the pieces of the 'puzzle' fall together and you suddenly have 'insight' in the image.</p><img src='aha.jpg' height='188' width='250'></img><p>Note that there are no right or wrong answers. We are interested in what <strong>you</strong> see in the image and how <strong>you</strong> feel about it.</p><p>Press any key to start the experiment.</p></div>","72","instructions","html-keyboard-response","5","142171","0.0-5.0","3385841","co39136","norming","","","","","","",""
"null","<div style=""font-size:60px;""> </div>","null","fixation","html-keyboard-response","6","142374","0.0-6.0-0.0","3385841","co39136","norming","","","","","","",""
"null","../img/tt/438tt.jpg","null","mooney1","image-keyboard-response","7","145377","0.0-6.0-1.0","3385841","co39136","norming","","","","","","",""
"17595","","","post_mooney1_questions","survey-likert","8","162976","0.0-6.0-2.0","3385841","co39136","norming","","","{""curiosity"":4,""confidence"":1}","[0,1]","../img/tt/438tt.jpg","",""
"16954","","","recognition","survey-text","9","179940","0.0-6.0-3.0","3385841","co39136","norming","","","{""guess"":""longen""}","","../img/tt/438tt.jpg","",""
"null","../img/gs/438gs.jpg","null","reveal","image-keyboard-response","10","181943","0.0-6.0-4.0","3385841","co39136","norming","","","","","","",""
"null","../img/tt/438tt.jpg","null","mooney2","image-keyboard-response","11","183947","0.0-6.0-5.0","3385841","co39136","norming","","","","","","",""
"5602","","","post_reveal_questions","survey-likert","12","189551","0.0-6.0-6.0","3385841","co39136","norming","","","{""aha"":5}","[0]","../img/tt/438tt.jpg","",""
"null","<div style=""font-size:60px;""> </div>","null","fixation","html-keyboard-response","13","189756","0.0-6.0-0.1","3385841","co39136","norming","","","","","","",""
"null","../img/tt/599tt.jpg","null","mooney1","image-keyboard-response","14","192759","0.0-6.0-1.1","3385841","co39136","norming","","","","","","",""
"7690","","","post_mooney1_questions","survey-likert","15","200453","0.0-6.0-2.1","3385841","co39136","norming","","","{""curiosity"":4,""confidence"":3}","[0,1]","../img/tt/599tt.jpg","",""
"3218","","","recognition","survey-text","16","203679","0.0-6.0-3.1","3385841","co39136","norming","","","{""guess"":""uil""}","","../img/tt/599tt.jpg","",""
"null","../img/gs/599gs.jpg","null","reveal","image-keyboard-response","17","205682","0.0-6.0-4.1","3385841","co39136","norming","","","","","","",""
"null","../img/tt/599tt.jpg","null","mooney2","image-keyboard-response","18","207685","0.0-6.0-5.1","3385841","co39136","norming","","","","","","",""
"5833","","","post_reveal_questions","survey-likert","19","213521","0.0-6.0-6.1","3385841","co39136","norming","","","{""aha"":4}","[0]","../img/tt/599tt.jpg","",""
"null","<div style=""font-size:60px;""> </div>","null","fixation","html-keyboard-response","20","213725","0.0-6.0-0.2","3385841","co39136","norming","","","","","","",""
"null","../img/tt/1043tt.jpg","null","mooney1","image-keyboard-response","21","216728","0.0-6.0-1.2","3385841","co39136","norming","","","","","","",""
"5294.000000000029","","","post_mooney1_questions","survey-likert","22","222024","0.0-6.0-2.2","3385841","co39136","norming","","","{""curiosity"":5,""confidence"":0}","[0,1]","../img/tt/1043tt.jpg","",""
"1107","","","recognition","survey-text","23","223142","0.0-6.0-3.2","3385841","co39136","norming","","","{""guess"":""""}","","../img/tt/1043tt.jpg","",""
"null","../img/gs/1043gs.jpg","null","reveal","image-keyboard-response","24","225145","0.0-6.0-4.2","3385841","co39136","norming","","","","","","",""
"null","../img/tt/1043tt.jpg","null","mooney2","image-keyboard-response","25","227148","0.0-6.0-5.2","3385841","co39136","norming","","","","","","",""
"7279","","","post_reveal_questions","survey-likert","26","234429","0.0-6.0-6.2","3385841","co39136","norming","","","{""aha"":3}","[0]","../img/tt/1043tt.jpg","",""
"null","<div style=""font-size:60px;""> </div>","null","fixation","html-keyboard-response","27","234633","0.0-6.0-0.3","3385841","co39136","norming","","","","","","",""
"null","../img/tt/584tt.jpg","null","mooney1","image-keyboard-response","28","237636","0.0-6.0-1.3","3385841","co39136","norming","","","","","","",""
"5666","","","post_mooney1_questions","survey-likert","29","243304","0.0-6.0-2.3","3385841","co39136","norming","","","{""curiosity"":5,""confidence"":3}","[0,1]","../img/tt/584tt.jpg","",""
"7773","","","recognition","survey-text","30","251089","0.0-6.0-3.3","3385841","co39136","norming","","","{""guess"":""gereedschap""}","","../img/tt/584tt.jpg","",""
"null","../img/gs/584gs.jpg","null","reveal","image-keyboard-response","31","253092","0.0-6.0-4.3","3385841","co39136","norming","","","","","","",""
"null","../img/tt/584tt.jpg","null","mooney2","image-keyboard-response","32","255094","0.0-6.0-5.3","3385841","co39136","norming","","","","","","",""
"2045","","","post_reveal_questions","survey-likert","33","257140","0.0-6.0-6.3","3385841","co39136","norming","","","{""aha"":3}","[0]","../img/tt/584tt.jpg","",""
"null","<div style=""font-size:60px;""> </div>","null","fixation","html-keyboard-response","34","257343","0.0-6.0-0.4","3385841","co39136","norming","","","","","","",""
"null","../img/tt/1242tt.jpg","null","mooney1","image-keyboard-response","35","260346","0.0-6.0-1.4","3385841","co39136","norming","","","","","","",""
"7231.000000000058","","","post_mooney1_questions","survey-likert","36","267579","0.0-6.0-2.4","3385841","co39136","norming","","","{""curiosity"":5,""confidence"":0}","[0,1]","../img/tt/1242tt.jpg","",""
"1756.9999999999418","","","recognition","survey-text","37","269348","0.0-6.0-3.4","3385841","co39136","norming","","","{""guess"":""""}","","../img/tt/1242tt.jpg","",""
"null","../img/gs/1242gs.jpg","null","reveal","image-keyboard-response","38","271351","0.0-6.0-4.4","3385841","co39136","norming","","","","","","",""
"null","../img/tt/1242tt.jpg","null","mooney2","image-keyboard-response","39","273354","0.0-6.0-5.4","3385841","co39136","norming","","","","","","",""
"3475","","","post_reveal_questions","survey-likert","40","276831","0.0-6.0-6.4","3385841","co39136","norming","","","{""aha"":5}","[0]","../img/tt/1242tt.jpg","",""
"null","<div style=""font-size:60px;""> </div>","null","fixation","html-keyboard-response","41","277034","0.0-6.0-0.5","3385841","co39136","norming","","","","","","",""
"null","../img/tt/111tt.jpg","null","mooney1","image-keyboard-response","42","280037","0.0-6.0-1.5","3385841","co39136","norming","","","","","","",""
"4814","","","post_mooney1_questions","survey-likert","43","284854","0.0-6.0-2.5","3385841","co39136","norming","","","{""curiosity"":5,""confidence"":1}","[0,1]","../img/tt/111tt.jpg","",""
"5501","","","recognition","survey-text","44","290366","0.0-6.0-3.5","3385841","co39136","norming","","","{""guess"":""komeet""}","","../img/tt/111tt.jpg","",""
"null","../img/gs/111gs.jpg","null","reveal","image-keyboard-response","45","292370","0.0-6.0-4.5","3385841","co39136","norming","","","","","","",""
"null","../img/tt/111tt.jpg","null","mooney2","image-keyboard-response","46","294373","0.0-6.0-5.5","3385841","co39136","norming","","","","","","",""
"2799","","","post_reveal_questions","survey-likert","47","297174","0.0-6.0-6.5","3385841","co39136","norming","","","{""aha"":5}","[0]","../img/tt/111tt.jpg","",""
"null","<div style=""font-size:60px;""> </div>","null","fixation","html-keyboard-response","48","297377","0.0-6.0-0.6","3385841","co39136","norming","","","","","","",""
"null","../img/tt/076tt.jpg","null","mooney1","image-keyboard-response","49","300381","0.0-6.0-1.6","3385841","co39136","norming","","","","","","",""
"5546","","","post_mooney1_questions","survey-likert","50","305928","0.0-6.0-2.6","3385841","co39136","norming","","","{""curiosity"":5,""confidence"":3}","[0,1]","../img/tt/076tt.jpg","",""
"8259","","","recognition","survey-text","51","314197","0.0-6.0-3.6","3385841","co39136","norming","","","{""guess"":""rollerskats ""}","","../img/tt/076tt.jpg","",""
"null","../img/gs/076gs.jpg","null","reveal","image-keyboard-response","52","316200","0.0-6.0-4.6","3385841","co39136","norming","","","","","","",""
"null","../img/tt/076tt.jpg","null","mooney2","image-keyboard-response","53","318204","0.0-6.0-5.6","3385841","co39136","norming","","","","","","",""
"2953","","","post_reveal_questions","survey-likert","54","321158","0.0-6.0-6.6","3385841","co39136","norming","","","{""aha"":5}","[0]","../img/tt/076tt.jpg","",""
"null","<div style=""font-size:60px;""> </div>","null","fixation","html-keyboard-response","55","321362","0.0-6.0-0.7","3385841","co39136","norming","","","","","","",""
"null","../img/tt/1353tt.jpg","null","mooney1","image-keyboard-response","56","324365","0.0-6.0-1.7","3385841","co39136","norming","","","","","","",""
"4888","","","post_mooney1_questions","survey-likert","57","329256","0.0-6.0-2.7","3385841","co39136","norming","","","{""curiosity"":5,""confidence"":0}","[0,1]","../img/tt/1353tt.jpg","",""
"4812","","","recognition","survey-text","58","334081","0.0-6.0-3.7","3385841","co39136","norming","","","{""guess"":""""}","","../img/tt/1353tt.jpg","",""
"null","../img/gs/1353gs.jpg","null","reveal","image-keyboard-response","59","336084","0.0-6.0-4.7","3385841","co39136","norming","","","","","","",""
"null","../img/tt/1353tt.jpg","null","mooney2","image-keyboard-response","60","338087","0.0-6.0-5.7","3385841","co39136","norming","","","","","","",""
"3182","","","post_reveal_questions","survey-likert","61","341270","0.0-6.0-6.7","3385841","co39136","norming","","","{""aha"":5}","[0]","../img/tt/1353tt.jpg","",""
"null","<div style=""font-size:60px;""> </div>","null","fixation","html-keyboard-response","62","341473","0.0-6.0-0.8","3385841","co39136","norming","","","","","","",""
"null","../img/tt/1269tt.jpg","null","mooney1","image-keyboard-response","63","344476","0.0-6.0-1.8","3385841","co39136","norming","","","","","","",""
"4273","","","post_mooney1_questions","survey-likert","64","348751","0.0-6.0-2.8","3385841","co39136","norming","","","{""curiosity"":4,""confidence"":3}","[0,1]","../img/tt/1269tt.jpg","",""
"2679.000000000058","","","recognition","survey-text","65","351440","0.0-6.0-3.8","3385841","co39136","norming","","","{""guess"":""kat""}","","../img/tt/1269tt.jpg","",""
"null","../img/gs/1269gs.jpg","null","reveal","image-keyboard-response","66","353443","0.0-6.0-4.8","3385841","co39136","norming","","","","","","",""
"null","../img/tt/1269tt.jpg","null","mooney2","image-keyboard-response","67","355446","0.0-6.0-5.8","3385841","co39136","norming","","","","","","",""
"3995","","","post_reveal_questions","survey-likert","68","359443","0.0-6.0-6.8","3385841","co39136","norming","","","{""aha"":5}","[0]","../img/tt/1269tt.jpg","",""
"null","<div style=""font-size:60px;""> </div>","null","fixation","html-keyboard-response","69","359646","0.0-6.0-0.9","3385841","co39136","norming","","","","","","",""
"null","../img/tt/1066tt.jpg","null","mooney1","image-keyboard-response","70","362650","0.0-6.0-1.9","3385841","co39136","norming","","","","","","",""
"5029","","","post_mooney1_questions","survey-likert","71","367681","0.0-6.0-2.9","3385841","co39136","norming","","","{""curiosity"":3,""confidence"":3}","[0,1]","../img/tt/1066tt.jpg","",""
"2788","","","recognition","survey-text","72","370481","0.0-6.0-3.9","3385841","co39136","norming","","","{""guess"":""bus""}","","../img/tt/1066tt.jpg","",""
"null","../img/gs/1066gs.jpg","null","reveal","image-keyboard-response","73","372484","0.0-6.0-4.9","3385841","co39136","norming","","","","","","",""
"null","../img/tt/1066tt.jpg","null","mooney2","image-keyboard-response","74","374487","0.0-6.0-5.9","3385841","co39136","norming","","","","","","",""
"3693","","","post_reveal_questions","survey-likert","75","378182","0.0-6.0-6.9","3385841","co39136","norming","","","{""aha"":3}","[0]","../img/tt/1066tt.jpg","",""
"null","<div style=""font-size:60px;""> </div>","null","fixation","html-keyboard-response","76","378386","0.0-6.0-0.10","3385841","co39136","norming","","","","","","",""
"null","../img/tt/1122tt.jpg","null","mooney1","image-keyboard-response","77","381389","0.0-6.0-1.10","3385841","co39136","norming","","","","","","",""
"4857","","","post_mooney1_questions","survey-likert","78","386247","0.0-6.0-2.10","3385841","co39136","norming","","","{""curiosity"":5,""confidence"":1}","[0,1]","../img/tt/1122tt.jpg","",""
"3832","","","recognition","survey-text","79","390087","0.0-6.0-3.10","3385841","co39136","norming","","","{""guess"":""auto's""}","","../img/tt/1122tt.jpg","",""
"null","../img/gs/1122gs.jpg","null","reveal","image-keyboard-response","80","392090","0.0-6.0-4.10","3385841","co39136","norming","","","","","","",""
"null","../img/tt/1122tt.jpg","null","mooney2","image-keyboard-response","81","394093","0.0-6.0-5.10","3385841","co39136","norming","","","","","","",""
"3167","","","post_reveal_questions","survey-likert","82","397261","0.0-6.0-6.10","3385841","co39136","norming","","","{""aha"":5}","[0]","../img/tt/1122tt.jpg","",""
"null","<div style=""font-size:60px;""> </div>","null","fixation","html-keyboard-response","83","397465","0.0-6.0-0.11","3385841","co39136","norming","","","","","","",""
"null","../img/tt/1055tt.jpg","null","mooney1","image-keyboard-response","84","400468","0.0-6.0-1.11","3385841","co39136","norming","","","","","","",""
"4908","","","post_mooney1_questions","survey-likert","85","405377","0.0-6.0-2.11","3385841","co39136","norming","","","{""curiosity"":3,""confidence"":1}","[0,1]","../img/tt/1055tt.jpg","",""
"15917","","","recognition","survey-text","86","421305","0.0-6.0-3.11","3385841","co39136","norming","","","{""guess"":""satelliet""}","","../img/tt/1055tt.jpg","",""
"null","../img/gs/1055gs.jpg","null","reveal","image-keyboard-response","87","423309","0.0-6.0-4.11","3385841","co39136","norming","","","","","","",""
"null","../img/tt/1055tt.jpg","null","mooney2","image-keyboard-response","88","425312","0.0-6.0-5.11","3385841","co39136","norming","","","","","","",""
"2630.999999999942","","","post_reveal_questions","survey-likert","89","427943","0.0-6.0-6.11","3385841","co39136","norming","","","{""aha"":5}","[0]","../img/tt/1055tt.jpg","",""
"null","<div style=""font-size:60px;""> </div>","null","fixation","html-keyboard-response","90","428147","0.0-6.0-0.12","3385841","co39136","norming","","","","","","",""
"null","../img/tt/1101tt.jpg","null","mooney1","image-keyboard-response","91","431150","0.0-6.0-1.12","3385841","co39136","norming","","","","","","",""
"5574.999999999942","","","post_mooney1_questions","survey-likert","92","436727","0.0-6.0-2.12","3385841","co39136","norming","","","{""curiosity"":3,""confidence"":5}","[0,1]","../img/tt/1101tt.jpg","",""
"4090","","","recognition","survey-text","93","440826","0.0-6.0-3.12","3385841","co39136","norming","","","{""guess"":""voetballer""}","","../img/tt/1101tt.jpg","",""
"null","../img/gs/1101gs.jpg","null","reveal","image-keyboard-response","94","442829","0.0-6.0-4.12","3385841","co39136","norming","","","","","","",""
"null","../img/tt/1101tt.jpg","null","mooney2","image-keyboard-response","95","444832","0.0-6.0-5.12","3385841","co39136","norming","","","","","","",""
"3664.000000000058","","","post_reveal_questions","survey-likert","96","448498","0.0-6.0-6.12","3385841","co39136","norming","","","{""aha"":4}","[0]","../img/tt/1101tt.jpg","",""
"null","<div style=""font-size:60px;""> </div>","null","fixation","html-keyboard-response","97","448701","0.0-6.0-0.13","3385841","co39136","norming","","","","","","",""
"null","../img/tt/189tt.jpg","null","mooney1","image-keyboard-response","98","451704","0.0-6.0-1.13","3385841","co39136","norming","","","","","","",""
"4285","","","post_mooney1_questions","survey-likert","99","455991","0.0-6.0-2.13","3385841","co39136","norming","","","{""curiosity"":5,""confidence"":0}","[0,1]","../img/tt/189tt.jpg","",""
"910","","","recognition","survey-text","100","456911","0.0-6.0-3.13","3385841","co39136","norming","","","{""guess"":""""}","","../img/tt/189tt.jpg","",""
"null","../img/gs/189gs.jpg","null","reveal","image-keyboard-response","101","458914","0.0-6.0-4.13","3385841","co39136","norming","","","","","","",""
"null","../img/tt/189tt.jpg","null","mooney2","image-keyboard-response","102","460917","0.0-6.0-5.13","3385841","co39136","norming","","","","","","",""
"3097","","","post_reveal_questions","survey-likert","103","464016","0.0-6.0-6.13","3385841","co39136","norming","","","{""aha"":6}","[0]","../img/tt/189tt.jpg","",""
"null","<div style=""font-size:60px;""> </div>","null","fixation","html-keyboard-response","104","464219","0.0-6.0-0.14","3385841","co39136","norming","","","","","","",""
"null","../img/tt/1309tt.jpg","null","mooney1","image-keyboard-response","105","467222","0.0-6.0-1.14","3385841","co39136","norming","","","","","","",""
"6312","","","post_mooney1_questions","survey-likert","106","473536","0.0-6.0-2.14","3385841","co39136","norming","","","{""curiosity"":5,""confidence"":0}","[0,1]","../img/tt/1309tt.jpg","",""
"911","","","recognition","survey-text","107","474456","0.0-6.0-3.14","3385841","co39136","norming","","","{""guess"":""""}","","../img/tt/1309tt.jpg","",""
"null","../img/gs/1309gs.jpg","null","reveal","image-keyboard-response","108","476460","0.0-6.0-4.14","3385841","co39136","norming","","","","","","",""
"null","../img/tt/1309tt.jpg","null","mooney2","image-keyboard-response","109","478463","0.0-6.0-5.14","3385841","co39136","norming","","","","","","",""
"2758.000000000058","","","post_reveal_questions","survey-likert","110","481223","0.0-6.0-6.14","3385841","co39136","norming","","","{""aha"":5}","[0]","../img/tt/1309tt.jpg","",""
"null","<div style=""font-size:60px;""> </div>","null","fixation","html-keyboard-response","111","481426","0.0-6.0-0.15","3385841","co39136","norming","","","","","","",""
"null","../img/tt/135tt.jpg","null","mooney1","image-keyboard-response","112","484429","0.0-6.0-1.15","3385841","co39136","norming","","","","","","",""
"7187.999999999942","","","post_mooney1_questions","survey-likert","113","491620","0.0-6.0-2.15","3385841","co39136","norming","","","{""curiosity"":5,""confidence"":1}","[0,1]","../img/tt/135tt.jpg","",""
"4841","","","recognition","survey-text","114","496470","0.0-6.0-3.15","3385841","co39136","norming","","","{""guess"":""""}","","../img/tt/135tt.jpg","",""
"null","../img/gs/135gs.jpg","null","reveal","image-keyboard-response","115","498473","0.0-6.0-4.15","3385841","co39136","norming","","","","","","",""
"null","../img/tt/135tt.jpg","null","mooney2","image-keyboard-response","116","500476","0.0-6.0-5.15","3385841","co39136","norming","","","","","","",""
"2664","","","post_reveal_questions","survey-likert","117","503143","0.0-6.0-6.15","3385841","co39136","norming","","","{""aha"":1}","[0]","../img/tt/135tt.jpg","",""
"null","<div style=""font-size:60px;""> </div>","null","fixation","html-keyboard-response","118","503346","0.0-6.0-0.16","3385841","co39136","norming","","","","","","",""
"null","../img/tt/163tt.jpg","null","mooney1","image-keyboard-response","119","506349","0.0-6.0-1.16","3385841","co39136","norming","","","","","","",""
"5832","","","post_mooney1_questions","survey-likert","120","512182","0.0-6.0-2.16","3385841","co39136","norming","","","{""curiosity"":4,""confidence"":1}","[0,1]","../img/tt/163tt.jpg","",""
"3240.000000000058","","","recognition","survey-text","121","515430","0.0-6.0-3.16","3385841","co39136","norming","","","{""guess"":""een bed""}","","../img/tt/163tt.jpg","",""
"null","../img/gs/163gs.jpg","null","reveal","image-keyboard-response","122","517433","0.0-6.0-4.16","3385841","co39136","norming","","","","","","",""
"null","../img/tt/163tt.jpg","null","mooney2","image-keyboard-response","123","519436","0.0-6.0-5.16","3385841","co39136","norming","","","","","","",""
"3071","","","post_reveal_questions","survey-likert","124","522509","0.0-6.0-6.16","3385841","co39136","norming","","","{""aha"":6}","[0]","../img/tt/163tt.jpg","",""
"null","<div style=""font-size:60px;""> </div>","null","fixation","html-keyboard-response","125","522712","0.0-6.0-0.17","3385841","co39136","norming","","","","","","",""
"null","../img/tt/1262tt.jpg","null","mooney1","image-keyboard-response","126","525715","0.0-6.0-1.17","3385841","co39136","norming","","","","","","",""
"4977","","","post_mooney1_questions","survey-likert","127","530694","0.0-6.0-2.17","3385841","co39136","norming","","","{""curiosity"":6,""confidence"":0}","[0,1]","../img/tt/1262tt.jpg","",""
"894","","","recognition","survey-text","128","531598","0.0-6.0-3.17","3385841","co39136","norming","","","{""guess"":""""}","","../img/tt/1262tt.jpg","",""
"null","../img/gs/1262gs.jpg","null","reveal","image-keyboard-response","129","533601","0.0-6.0-4.17","3385841","co39136","norming","","","","","","",""
"null","../img/tt/1262tt.jpg","null","mooney2","image-keyboard-response","130","535604","0.0-6.0-5.17","3385841","co39136","norming","","","","","","",""
"4115","","","post_reveal_questions","survey-likert","131","539721","0.0-6.0-6.17","3385841","co39136","norming","","","{""aha"":5}","[0]","../img/tt/1262tt.jpg","",""
"null","<div style=""font-size:60px;""> </div>","null","fixation","html-keyboard-response","132","539924","0.0-6.0-0.18","3385841","co39136","norming","","","","","","",""
"null","../img/tt/517tt.jpg","null","mooney1","image-keyboard-response","133","542927","0.0-6.0-1.18","3385841","co39136","norming","","","","","","",""
"5155.999999999884","","","post_mooney1_questions","survey-likert","134","548086","0.0-6.0-2.18","3385841","co39136","norming","","","{""curiosity"":5,""confidence"":1}","[0,1]","../img/tt/517tt.jpg","",""
"3554","","","recognition","survey-text","135","551648","0.0-6.0-3.18","3385841","co39136","norming","","","{""guess"":""een beer""}","","../img/tt/517tt.jpg","",""
"null","../img/gs/517gs.jpg","null","reveal","image-keyboard-response","136","553652","0.0-6.0-4.18","3385841","co39136","norming","","","","","","",""
"null","../img/tt/517tt.jpg","null","mooney2","image-keyboard-response","137","555654","0.0-6.0-5.18","3385841","co39136","norming","","","","","","",""
"3118","","","post_reveal_questions","survey-likert","138","558773","0.0-6.0-6.18","3385841","co39136","norming","","","{""aha"":5}","[0]","../img/tt/517tt.jpg","",""
"null","<div style=""font-size:60px;""> </div>","null","fixation","html-keyboard-response","139","558976","0.0-6.0-0.19","3385841","co39136","norming","","","","","","",""
"null","../img/tt/1142tt.jpg","null","mooney1","image-keyboard-response","140","561979","0.0-6.0-1.19","3385841","co39136","norming","","","","","","",""
"10979","","","post_mooney1_questions","survey-likert","141","572960","0.0-6.0-2.19","3385841","co39136","norming","","","{""curiosity"":5,""confidence"":1}","[0,1]","../img/tt/1142tt.jpg","",""
"12405.000000000116","","","recognition","survey-text","142","585375","0.0-6.0-3.19","3385841","co39136","norming","","","{""guess"":""honkballer""}","","../img/tt/1142tt.jpg","",""
"null","../img/gs/1142gs.jpg","null","reveal","image-keyboard-response","143","587378","0.0-6.0-4.19","3385841","co39136","norming","","","","","","",""
"null","../img/tt/1142tt.jpg","null","mooney2","image-keyboard-response","144","589381","0.0-6.0-5.19","3385841","co39136","norming","","","","","","",""
"2759","","","post_reveal_questions","survey-likert","145","592141","0.0-6.0-6.19","3385841","co39136","norming","","","{""aha"":5}","[0]","../img/tt/1142tt.jpg","",""
"null","<div style=""font-size:60px;""> </div>","null","fixation","html-keyboard-response","146","592345","0.0-6.0-0.20","3385841","co39136","norming","","","","","","",""
"null","../img/tt/084tt.jpg","null","mooney1","image-keyboard-response","147","595348","0.0-6.0-1.20","3385841","co39136","norming","","","","","","",""
"4392","","","post_mooney1_questions","survey-likert","148","599742","0.0-6.0-2.20","3385841","co39136","norming","","","{""curiosity"":2,""confidence"":5}","[0,1]","../img/tt/084tt.jpg","",""
"2655","","","recognition","survey-text","149","602406","0.0-6.0-3.20","3385841","co39136","norming","","","{""guess"":""eend""}","","../img/tt/084tt.jpg","",""
"null","../img/gs/084gs.jpg","null","reveal","image-keyboard-response","150","604408","0.0-6.0-4.20","3385841","co39136","norming","","","","","","",""
"null","../img/tt/084tt.jpg","null","mooney2","image-keyboard-response","151","606411","0.0-6.0-5.20","3385841","co39136","norming","","","","","","",""
"4963","","","post_reveal_questions","survey-likert","152","611376","0.0-6.0-6.20","3385841","co39136","norming","","","{""aha"":4}","[0]","../img/tt/084tt.jpg","",""
"null","<div style=""font-size:60px;""> </div>","null","fixation","html-keyboard-response","153","611580","0.0-6.0-0.21","3385841","co39136","norming","","","","","","",""
"null","../img/tt/549tt.jpg","null","mooney1","image-keyboard-response","154","614583","0.0-6.0-1.21","3385841","co39136","norming","","","","","","",""
"3752","","","post_mooney1_questions","survey-likert","155","618337","0.0-6.0-2.21","3385841","co39136","norming","","","{""curiosity"":5,""confidence"":1}","[0,1]","../img/tt/549tt.jpg","",""
"4033","","","recognition","survey-text","156","622379","0.0-6.0-3.21","3385841","co39136","norming","","","{""guess"":""vliegtuig""}","","../img/tt/549tt.jpg","",""
"null","../img/gs/549gs.jpg","null","reveal","image-keyboard-response","157","624383","0.0-6.0-4.21","3385841","co39136","norming","","","","","","",""
"null","../img/tt/549tt.jpg","null","mooney2","image-keyboard-response","158","626385","0.0-6.0-5.21","3385841","co39136","norming","","","","","","",""
"2651","","","post_reveal_questions","survey-likert","159","629038","0.0-6.0-6.21","3385841","co39136","norming","","","{""aha"":6}","[0]","../img/tt/549tt.jpg","",""
"null","<div style=""font-size:60px;""> </div>","null","fixation","html-keyboard-response","160","629241","0.0-6.0-0.22","3385841","co39136","norming","","","","","","",""
"null","../img/tt/1190tt.jpg","null","mooney1","image-keyboard-response","161","632244","0.0-6.0-1.22","3385841","co39136","norming","","","","","","",""
"5164","","","post_mooney1_questions","survey-likert","162","637410","0.0-6.0-2.22","3385841","co39136","norming","","","{""curiosity"":4,""confidence"":2}","[0,1]","../img/tt/1190tt.jpg","",""
"4503","","","recognition","survey-text","163","641923","0.0-6.0-3.22","3385841","co39136","norming","","","{""guess"":""een bos""}","","../img/tt/1190tt.jpg","",""
"null","../img/gs/1190gs.jpg","null","reveal","image-keyboard-response","164","643926","0.0-6.0-4.22","3385841","co39136","norming","","","","","","",""
"null","../img/tt/1190tt.jpg","null","mooney2","image-keyboard-response","165","645929","0.0-6.0-5.22","3385841","co39136","norming","","","","","","",""
"2498","","","post_reveal_questions","survey-likert","166","648429","0.0-6.0-6.22","3385841","co39136","norming","","","{""aha"":1}","[0]","../img/tt/1190tt.jpg","",""
"null","<div style=""font-size:60px;""> </div>","null","fixation","html-keyboard-response","167","648632","0.0-6.0-0.23","3385841","co39136","norming","","","","","","",""
"null","../img/tt/1181tt.jpg","null","mooney1","image-keyboard-response","168","651635","0.0-6.0-1.23","3385841","co39136","norming","","","","","","",""
"5401","","","post_mooney1_questions","survey-likert","169","657038","0.0-6.0-2.23","3385841","co39136","norming","","","{""curiosity"":4,""confidence"":2}","[0,1]","../img/tt/1181tt.jpg","",""
"4248","","","recognition","survey-text","170","661296","0.0-6.0-3.23","3385841","co39136","norming","","","{""guess"":""twee mensen""}","","../img/tt/1181tt.jpg","",""
"null","../img/gs/1181gs.jpg","null","reveal","image-keyboard-response","171","663300","0.0-6.0-4.23","3385841","co39136","norming","","","","","","",""
"null","../img/tt/1181tt.jpg","null","mooney2","image-keyboard-response","172","665303","0.0-6.0-5.23","3385841","co39136","norming","","","","","","",""
"4039","","","post_reveal_questions","survey-likert","173","669342","0.0-6.0-6.23","3385841","co39136","norming","","","{""aha"":5}","[0]","../img/tt/1181tt.jpg","",""
"null","<div style=""font-size:60px;""> </div>","null","fixation","html-keyboard-response","174","669546","0.0-6.0-0.24","3385841","co39136","norming","","","","","","",""
"null","../img/tt/222tt.jpg","null","mooney1","image-keyboard-response","175","672549","0.0-6.0-1.24","3385841","co39136","norming","","","","","","",""
"6159.999999999884","","","post_mooney1_questions","survey-likert","176","678710","0.0-6.0-2.24","3385841","co39136","norming","","","{""curiosity"":5,""confidence"":1}","[0,1]","../img/tt/222tt.jpg","",""
"3129","","","recognition","survey-text","177","681849","0.0-6.0-3.24","3385841","co39136","norming","","","{""guess"":""een boot""}","","../img/tt/222tt.jpg","",""
"null","../img/gs/222gs.jpg","null","reveal","image-keyboard-response","178","683853","0.0-6.0-4.24","3385841","co39136","norming","","","","","","",""
"null","../img/tt/222tt.jpg","null","mooney2","image-keyboard-response","179","685856","0.0-6.0-5.24","3385841","co39136","norming","","","","","","",""
"2710","","","post_reveal_questions","survey-likert","180","688567","0.0-6.0-6.24","3385841","co39136","norming","","","{""aha"":6}","[0]","../img/tt/222tt.jpg","",""
"null","<div style=""font-size:60px;""> </div>","null","fixation","html-keyboard-response","181","688770","0.0-6.0-0.25","3385841","co39136","norming","","","","","","",""
"null","../img/tt/049tt.jpg","null","mooney1","image-keyboard-response","182","691773","0.0-6.0-1.25","3385841","co39136","norming","","","","","","",""
"3653","","","post_mooney1_questions","survey-likert","183","695428","0.0-6.0-2.25","3385841","co39136","norming","","","{""curiosity"":5,""confidence"":1}","[0,1]","../img/tt/049tt.jpg","",""
"5062","","","recognition","survey-text","184","700499","0.0-6.0-3.25","3385841","co39136","norming","","","{""guess"":""een parasol""}","","../img/tt/049tt.jpg","",""
"null","../img/gs/049gs.jpg","null","reveal","image-keyboard-response","185","702503","0.0-6.0-4.25","3385841","co39136","norming","","","","","","",""
"null","../img/tt/049tt.jpg","null","mooney2","image-keyboard-response","186","704506","0.0-6.0-5.25","3385841","co39136","norming","","","","","","",""
"2471","","","post_reveal_questions","survey-likert","187","706978","0.0-6.0-6.25","3385841","co39136","norming","","","{""aha"":0}","[0]","../img/tt/049tt.jpg","",""
"null","<div style=""font-size:60px;""> </div>","null","fixation","html-keyboard-response","188","707181","0.0-6.0-0.26","3385841","co39136","norming","","","","","","",""
"null","../img/tt/019tt.jpg","null","mooney1","image-keyboard-response","189","710184","0.0-6.0-1.26","3385841","co39136","norming","","","","","","",""
"4053","","","post_mooney1_questions","survey-likert","190","714239","0.0-6.0-2.26","3385841","co39136","norming","","","{""curiosity"":4,""confidence"":1}","[0,1]","../img/tt/019tt.jpg","",""
"3820.0000000001164","","","recognition","survey-text","191","718068","0.0-6.0-3.26","3385841","co39136","norming","","","{""guess"":""een schaar""}","","../img/tt/019tt.jpg","",""
"null","../img/gs/019gs.jpg","null","reveal","image-keyboard-response","192","720071","0.0-6.0-4.26","3385841","co39136","norming","","","","","","",""
"null","../img/tt/019tt.jpg","null","mooney2","image-keyboard-response","193","722074","0.0-6.0-5.26","3385841","co39136","norming","","","","","","",""
"2501","","","post_reveal_questions","survey-likert","194","724577","0.0-6.0-6.26","3385841","co39136","norming","","","{""aha"":5}","[0]","../img/tt/019tt.jpg","",""
"null","<div style=""font-size:60px;""> </div>","null","fixation","html-keyboard-response","195","724780","0.0-6.0-0.27","3385841","co39136","norming","","","","","","",""
"null","../img/tt/1091tt.jpg","null","mooney1","image-keyboard-response","196","727783","0.0-6.0-1.27","3385841","co39136","norming","","","","","","",""
"4385","","","post_mooney1_questions","survey-likert","197","732170","0.0-6.0-2.27","3385841","co39136","norming","","","{""curiosity"":4,""confidence"":3}","[0,1]","../img/tt/1091tt.jpg","",""
"3609.0000000001164","","","recognition","survey-text","198","735788","0.0-6.0-3.27","3385841","co39136","norming","","","{""guess"":""een paard""}","","../img/tt/1091tt.jpg","",""
"null","../img/gs/1091gs.jpg","null","reveal","image-keyboard-response","199","737792","0.0-6.0-4.27","3385841","co39136","norming","","","","","","",""
"null","../img/tt/1091tt.jpg","null","mooney2","image-keyboard-response","200","739795","0.0-6.0-5.27","3385841","co39136","norming","","","","","","",""
"3844.0000000001164","","","post_reveal_questions","survey-likert","201","743639","0.0-6.0-6.27","3385841","co39136","norming","","","{""aha"":6}","[0]","../img/tt/1091tt.jpg","",""
"null","<div style=""font-size:60px;""> </div>","null","fixation","html-keyboard-response","202","743843","0.0-6.0-0.28","3385841","co39136","norming","","","","","","",""
"null","../img/tt/1275tt.jpg","null","mooney1","image-keyboard-response","203","746846","0.0-6.0-1.28","3385841","co39136","norming","","","","","","",""
"3274","","","post_mooney1_questions","survey-likert","204","750122","0.0-6.0-2.28","3385841","co39136","norming","","","{""curiosity"":6,""confidence"":0}","[0,1]","../img/tt/1275tt.jpg","",""
"784","","","recognition","survey-text","205","750916","0.0-6.0-3.28","3385841","co39136","norming","","","{""guess"":""""}","","../img/tt/1275tt.jpg","",""
"null","../img/gs/1275gs.jpg","null","reveal","image-keyboard-response","206","752920","0.0-6.0-4.28","3385841","co39136","norming","","","","","","",""
"null","../img/tt/1275tt.jpg","null","mooney2","image-keyboard-response","207","754923","0.0-6.0-5.28","3385841","co39136","norming","","","","","","",""
"2176","","","post_reveal_questions","survey-likert","208","757100","0.0-6.0-6.28","3385841","co39136","norming","","","{""aha"":2}","[0]","../img/tt/1275tt.jpg","",""
"null","<div style=""font-size:60px;""> </div>","null","fixation","html-keyboard-response","209","757303","0.0-6.0-0.29","3385841","co39136","norming","","","","","","",""
"null","../img/tt/1006tt.jpg","null","mooney1","image-keyboard-response","210","760306","0.0-6.0-1.29","3385841","co39136","norming","","","","","","",""
"4593","","","post_mooney1_questions","survey-likert","211","764901","0.0-6.0-2.29","3385841","co39136","norming","","","{""curiosity"":4,""confidence"":1}","[0,1]","../img/tt/1006tt.jpg","",""
"6046","","","recognition","survey-text","212","770956","0.0-6.0-3.29","3385841","co39136","norming","","","{""guess"":""koeien""}","","../img/tt/1006tt.jpg","",""
"null","../img/gs/1006gs.jpg","null","reveal","image-keyboard-response","213","772958","0.0-6.0-4.29","3385841","co39136","norming","","","","","","",""
"null","../img/tt/1006tt.jpg","null","mooney2","image-keyboard-response","214","774962","0.0-6.0-5.29","3385841","co39136","norming","","","","","","",""
"3032.0000000001164","","","post_reveal_questions","survey-likert","215","777995","0.0-6.0-6.29","3385841","co39136","norming","","","{""aha"":6}","[0]","../img/tt/1006tt.jpg","",""
"null","<div style=""font-size:60px;""> </div>","null","fixation","html-keyboard-response","216","778198","0.0-6.0-0.30","3385841","co39136","norming","","","","","","",""
"null","../img/tt/1033tt.jpg","null","mooney1","image-keyboard-response","217","781200","0.0-6.0-1.30","3385841","co39136","norming","","","","","","",""
"3827","","","post_mooney1_questions","survey-likert","218","785029","0.0-6.0-2.30","3385841","co39136","norming","","","{""curiosity"":5,""confidence"":1}","[0,1]","../img/tt/1033tt.jpg","",""
"6556","","","recognition","survey-text","219","791594","0.0-6.0-3.30","3385841","co39136","norming","","","{""guess"":""honkbalspeler""}","","../img/tt/1033tt.jpg","",""
"null","../img/gs/1033gs.jpg","null","reveal","image-keyboard-response","220","793597","0.0-6.0-4.30","3385841","co39136","norming","","","","","","",""
"null","../img/tt/1033tt.jpg","null","mooney2","image-keyboard-response","221","795599","0.0-6.0-5.30","3385841","co39136","norming","","","","","","",""
"1762","","","post_reveal_questions","survey-likert","222","797363","0.0-6.0-6.30","3385841","co39136","norming","","","{""aha"":6}","[0]","../img/tt/1033tt.jpg","",""
"null","<div style=""font-size:60px;""> </div>","null","fixation","html-keyboard-response","223","797566","0.0-6.0-0.31","3385841","co39136","norming","","","","","","",""
"null","../img/tt/306tt.jpg","null","mooney1","image-keyboard-response","224","800569","0.0-6.0-1.31","3385841","co39136","norming","","","","","","",""
"3589.9999999998836","","","post_mooney1_questions","survey-likert","225","804161","0.0-6.0-2.31","3385841","co39136","norming","","","{""curiosity"":6,""confidence"":0}","[0,1]","../img/tt/306tt.jpg","",""
"1857","","","recognition","survey-text","226","806028","0.0-6.0-3.31","3385841","co39136","norming","","","{""guess"":""""}","","../img/tt/306tt.jpg","",""
"null","../img/gs/306gs.jpg","null","reveal","image-keyboard-response","227","808031","0.0-6.0-4.31","3385841","co39136","norming","","","","","","",""
"null","../img/tt/306tt.jpg","null","mooney2","image-keyboard-response","228","810034","0.0-6.0-5.31","3385841","co39136","norming","","","","","","",""
"2905.0000000001164","","","post_reveal_questions","survey-likert","229","812942","0.0-6.0-6.31","3385841","co39136","norming","","","{""aha"":2}","[0]","../img/tt/306tt.jpg","",""
"null","<div style=""font-size:60px;""> </div>","null","fixation","html-keyboard-response","230","813145","0.0-6.0-0.32","3385841","co39136","norming","","","","","","",""
"null","../img/tt/105tt.jpg","null","mooney1","image-keyboard-response","231","816148","0.0-6.0-1.32","3385841","co39136","norming","","","","","","",""
"7325","","","post_mooney1_questions","survey-likert","232","823475","0.0-6.0-2.32","3385841","co39136","norming","","","{""curiosity"":6,""confidence"":1}","[0,1]","../img/tt/105tt.jpg","",""
"4034","","","recognition","survey-text","233","827518","0.0-6.0-3.32","3385841","co39136","norming","","","{""guess"":""kleed""}","","../img/tt/105tt.jpg","",""
"null","../img/gs/105gs.jpg","null","reveal","image-keyboard-response","234","829521","0.0-6.0-4.32","3385841","co39136","norming","","","","","","",""
"null","../img/tt/105tt.jpg","null","mooney2","image-keyboard-response","235","831524","0.0-6.0-5.32","3385841","co39136","norming","","","","","","",""
"2339","","","post_reveal_questions","survey-likert","236","833865","0.0-6.0-6.32","3385841","co39136","norming","","","{""aha"":3}","[0]","../img/tt/105tt.jpg","",""
"null","<div style=""font-size:60px;""> </div>","null","fixation","html-keyboard-response","237","834069","0.0-6.0-0.33","3385841","co39136","norming","","","","","","",""
"null","../img/tt/357tt.jpg","null","mooney1","image-keyboard-response","238","837072","0.0-6.0-1.33","3385841","co39136","norming","","","","","","",""
"3870","","","post_mooney1_questions","survey-likert","239","840945","0.0-6.0-2.33","3385841","co39136","norming","","","{""curiosity"":6,""confidence"":1}","[0,1]","../img/tt/357tt.jpg","",""
"3850","","","recognition","survey-text","240","844805","0.0-6.0-3.33","3385841","co39136","norming","","","{""guess"":""vogel""}","","../img/tt/357tt.jpg","",""
"null","../img/gs/357gs.jpg","null","reveal","image-keyboard-response","241","846808","0.0-6.0-4.33","3385841","co39136","norming","","","","","","",""
"null","../img/tt/357tt.jpg","null","mooney2","image-keyboard-response","242","848811","0.0-6.0-5.33","3385841","co39136","norming","","","","","","",""
"1790","","","post_reveal_questions","survey-likert","243","850602","0.0-6.0-6.33","3385841","co39136","norming","","","{""aha"":5}","[0]","../img/tt/357tt.jpg","",""
"null","<div style=""font-size:60px;""> </div>","null","fixation","html-keyboard-response","244","850806","0.0-6.0-0.34","3385841","co39136","norming","","","","","","",""
"null","../img/tt/040tt.jpg","null","mooney1","image-keyboard-response","245","853809","0.0-6.0-1.34","3385841","co39136","norming","","","","","","",""
"4310","","","post_mooney1_questions","survey-likert","246","858121","0.0-6.0-2.34","3385841","co39136","norming","","","{""curiosity"":6,""confidence"":1}","[0,1]","../img/tt/040tt.jpg","",""
"2502","","","recognition","survey-text","247","860632","0.0-6.0-3.34","3385841","co39136","norming","","","{""guess"":""dier""}","","../img/tt/040tt.jpg","",""
"null","../img/gs/040gs.jpg","null","reveal","image-keyboard-response","248","862636","0.0-6.0-4.34","3385841","co39136","norming","","","","","","",""
"null","../img/tt/040tt.jpg","null","mooney2","image-keyboard-response","249","864638","0.0-6.0-5.34","3385841","co39136","norming","","","","","","",""
"3596","","","post_reveal_questions","survey-likert","250","868236","0.0-6.0-6.34","3385841","co39136","norming","","","{""aha"":5}","[0]","../img/tt/040tt.jpg","",""
"null","<div style=""font-size:60px;""> </div>","null","fixation","html-keyboard-response","251","868440","0.0-6.0-0.35","3385841","co39136","norming","","","","","","",""
"null","../img/tt/270tt.jpg","null","mooney1","image-keyboard-response","252","871443","0.0-6.0-1.35","3385841","co39136","norming","","","","","","",""
"3739.0000000001164","","","post_mooney1_questions","survey-likert","253","875184","0.0-6.0-2.35","3385841","co39136","norming","","","{""curiosity"":6,""confidence"":1}","[0,1]","../img/tt/270tt.jpg","",""
"4689","","","recognition","survey-text","254","879938","0.0-6.0-3.35","3385841","co39136","norming","","","{""guess"":""cowboy""}","","../img/tt/270tt.jpg","",""
"null","../img/gs/270gs.jpg","null","reveal","image-keyboard-response","255","881942","0.0-6.0-4.35","3385841","co39136","norming","","","","","","",""
"null","../img/tt/270tt.jpg","null","mooney2","image-keyboard-response","256","883945","0.0-6.0-5.35","3385841","co39136","norming","","","","","","",""
"3713","","","post_reveal_questions","survey-likert","257","887659","0.0-6.0-6.35","3385841","co39136","norming","","","{""aha"":5}","[0]","../img/tt/270tt.jpg","",""
"null","<div style=""font-size:60px;""> </div>","null","fixation","html-keyboard-response","258","887863","0.0-6.0-0.36","3385841","co39136","norming","","","","","","",""
"null","../img/tt/378tt.jpg","null","mooney1","image-keyboard-response","259","890866","0.0-6.0-1.36","3385841","co39136","norming","","","","","","",""
"5178","","","post_mooney1_questions","survey-likert","260","896046","0.0-6.0-2.36","3385841","co39136","norming","","","{""curiosity"":6,""confidence"":0}","[0,1]","../img/tt/378tt.jpg","",""
"735","","","recognition","survey-text","261","896790","0.0-6.0-3.36","3385841","co39136","norming","","","{""guess"":""""}","","../img/tt/378tt.jpg","",""
"null","../img/gs/378gs.jpg","null","reveal","image-keyboard-response","262","898794","0.0-6.0-4.36","3385841","co39136","norming","","","","","","",""
"null","../img/tt/378tt.jpg","null","mooney2","image-keyboard-response","263","900797","0.0-6.0-5.36","3385841","co39136","norming","","","","","","",""
"1947","","","post_reveal_questions","survey-likert","264","902746","0.0-6.0-6.36","3385841","co39136","norming","","","{""aha"":4}","[0]","../img/tt/378tt.jpg","",""
"null","<div style=""font-size:60px;""> </div>","null","fixation","html-keyboard-response","265","902949","0.0-6.0-0.37","3385841","co39136","norming","","","","","","",""
"null","../img/tt/1107tt.jpg","null","mooney1","image-keyboard-response","266","905953","0.0-6.0-1.37","3385841","co39136","norming","","","","","","",""
"5536","","","post_mooney1_questions","survey-likert","267","911490","0.0-6.0-2.37","3385841","co39136","norming","","","{""curiosity"":6,""confidence"":5}","[0,1]","../img/tt/1107tt.jpg","",""
"5399","","","recognition","survey-text","268","916899","0.0-6.0-3.37","3385841","co39136","norming","","","{""guess"":""kitten ""}","","../img/tt/1107tt.jpg","",""
"null","../img/gs/1107gs.jpg","null","reveal","image-keyboard-response","269","918902","0.0-6.0-4.37","3385841","co39136","norming","","","","","","",""
"null","../img/tt/1107tt.jpg","null","mooney2","image-keyboard-response","270","920905","0.0-6.0-5.37","3385841","co39136","norming","","","","","","",""
"2591","","","post_reveal_questions","survey-likert","271","923498","0.0-6.0-6.37","3385841","co39136","norming","","","{""aha"":4}","[0]","../img/tt/1107tt.jpg","",""
"null","<div style=""font-size:60px;""> </div>","null","fixation","html-keyboard-response","272","923701","0.0-6.0-0.38","3385841","co39136","norming","","","","","","",""
"null","../img/tt/1027tt.jpg","null","mooney1","image-keyboard-response","273","926705","0.0-6.0-1.38","3385841","co39136","norming","","","","","","",""
"4253","","","post_mooney1_questions","survey-likert","274","930961","0.0-6.0-2.38","3385841","co39136","norming","","","{""curiosity"":6,""confidence"":5}","[0,1]","../img/tt/1027tt.jpg","",""
"2512","","","recognition","survey-text","275","933480","0.0-6.0-3.38","3385841","co39136","norming","","","{""guess"":""koe""}","","../img/tt/1027tt.jpg","",""
"null","../img/gs/1027gs.jpg","null","reveal","image-keyboard-response","276","935484","0.0-6.0-4.38","3385841","co39136","norming","","","","","","",""
"null","../img/tt/1027tt.jpg","null","mooney2","image-keyboard-response","277","937487","0.0-6.0-5.38","3385841","co39136","norming","","","","","","",""
"2769","","","post_reveal_questions","survey-likert","278","940258","0.0-6.0-6.38","3385841","co39136","norming","","","{""aha"":3}","[0]","../img/tt/1027tt.jpg","",""
"null","<div style=""font-size:60px;""> </div>","null","fixation","html-keyboard-response","279","940460","0.0-6.0-0.39","3385841","co39136","norming","","","","","","",""
"null","../img/tt/1044tt.jpg","null","mooney1","image-keyboard-response","280","943463","0.0-6.0-1.39","3385841","co39136","norming","","","","","","",""
"4211","","","post_mooney1_questions","survey-likert","281","947677","0.0-6.0-2.39","3385841","co39136","norming","","","{""curiosity"":6,""confidence"":1}","[0,1]","../img/tt/1044tt.jpg","",""
"2845","","","recognition","survey-text","282","950532","0.0-6.0-3.39","3385841","co39136","norming","","","{""guess"":""koe""}","","../img/tt/1044tt.jpg","",""
"null","../img/gs/1044gs.jpg","null","reveal","image-keyboard-response","283","952535","0.0-6.0-4.39","3385841","co39136","norming","","","","","","",""
"null","../img/tt/1044tt.jpg","null","mooney2","image-keyboard-response","284","954538","0.0-6.0-5.39","3385841","co39136","norming","","","","","","",""
"31567","","","post_reveal_questions","survey-likert","285","986108","0.0-6.0-6.39","3385841","co39136","norming","","","{""aha"":5}","[0]","../img/tt/1044tt.jpg","",""
"null","<div style=""font-size:60px;""> </div>","null","fixation","html-keyboard-response","286","986311","0.0-6.0-0.40","3385841","co39136","norming","","","","","","",""
"null","../img/tt/1211tt.jpg","null","mooney1","image-keyboard-response","287","989315","0.0-6.0-1.40","3385841","co39136","norming","","","","","","",""
"3911","","","post_mooney1_questions","survey-likert","288","993228","0.0-6.0-2.40","3385841","co39136","norming","","","{""curiosity"":5,""confidence"":1}","[0,1]","../img/tt/1211tt.jpg","",""
"3516","","","recognition","survey-text","289","996752","0.0-6.0-3.40","3385841","co39136","norming","","","{""guess"":""een meer""}","","../img/tt/1211tt.jpg","",""
"null","../img/gs/1211gs.jpg","null","reveal","image-keyboard-response","290","998756","0.0-6.0-4.40","3385841","co39136","norming","","","","","","",""
"null","../img/tt/1211tt.jpg","null","mooney2","image-keyboard-response","291","1000759","0.0-6.0-5.40","3385841","co39136","norming","","","","","","",""
"2730","","","post_reveal_questions","survey-likert","292","1003490","0.0-6.0-6.40","3385841","co39136","norming","","","{""aha"":6}","[0]","../img/tt/1211tt.jpg","",""
"null","<div style=""font-size:60px;""> </div>","null","fixation","html-keyboard-response","293","1003694","0.0-6.0-0.41","3385841","co39136","norming","","","","","","",""
"null","../img/tt/603tt.jpg","null","mooney1","image-keyboard-response","294","1006697","0.0-6.0-1.41","3385841","co39136","norming","","","","","","",""
"4740","","","post_mooney1_questions","survey-likert","295","1011440","0.0-6.0-2.41","3385841","co39136","norming","","","{""curiosity"":6,""confidence"":0}","[0,1]","../img/tt/603tt.jpg","",""
"804","","","recognition","survey-text","296","1012253","0.0-6.0-3.41","3385841","co39136","norming","","","{""guess"":""""}","","../img/tt/603tt.jpg","",""
"null","../img/gs/603gs.jpg","null","reveal","image-keyboard-response","297","1014257","0.0-6.0-4.41","3385841","co39136","norming","","","","","","",""
"null","../img/tt/603tt.jpg","null","mooney2","image-keyboard-response","298","1016260","0.0-6.0-5.41","3385841","co39136","norming","","","","","","",""
"3817","","","post_reveal_questions","survey-likert","299","1020078","0.0-6.0-6.41","3385841","co39136","norming","","","{""aha"":5}","[0]","../img/tt/603tt.jpg","",""
"null","<div style=""font-size:60px;""> </div>","null","fixation","html-keyboard-response","300","1020282","0.0-6.0-0.42","3385841","co39136","norming","","","","","","",""
"null","../img/tt/1118tt.jpg","null","mooney1","image-keyboard-response","301","1023285","0.0-6.0-1.42","3385841","co39136","norming","","","","","","",""
"4273.999999999884","","","post_mooney1_questions","survey-likert","302","1027561","0.0-6.0-2.42","3385841","co39136","norming","","","{""curiosity"":6,""confidence"":1}","[0,1]","../img/tt/1118tt.jpg","",""
"13972.999999999884","","","recognition","survey-text","303","1041545","0.0-6.0-3.42","3385841","co39136","norming","","","{""guess"":""kameleon ""}","","../img/tt/1118tt.jpg","",""
"null","../img/gs/1118gs.jpg","null","reveal","image-keyboard-response","304","1043548","0.0-6.0-4.42","3385841","co39136","norming","","","","","","",""
"null","../img/tt/1118tt.jpg","null","mooney2","image-keyboard-response","305","1045552","0.0-6.0-5.42","3385841","co39136","norming","","","","","","",""
"2715","","","post_reveal_questions","survey-likert","306","1048268","0.0-6.0-6.42","3385841","co39136","norming","","","{""aha"":1}","[0]","../img/tt/1118tt.jpg","",""
"null","<div style=""font-size:60px;""> </div>","null","fixation","html-keyboard-response","307","1048472","0.0-6.0-0.43","3385841","co39136","norming","","","","","","",""
"null","../img/tt/534tt.jpg","null","mooney1","image-keyboard-response","308","1051475","0.0-6.0-1.43","3385841","co39136","norming","","","","","","",""
"3409","","","post_mooney1_questions","survey-likert","309","1054886","0.0-6.0-2.43","3385841","co39136","norming","","","{""curiosity"":6,""confidence"":1}","[0,1]","../img/tt/534tt.jpg","",""
"3359","","","recognition","survey-text","310","1058254","0.0-6.0-3.43","3385841","co39136","norming","","","{""guess"":""een zwijn ""}","","../img/tt/534tt.jpg","",""
"null","../img/gs/534gs.jpg","null","reveal","image-keyboard-response","311","1060258","0.0-6.0-4.43","3385841","co39136","norming","","","","","","",""
"null","../img/tt/534tt.jpg","null","mooney2","image-keyboard-response","312","1062262","0.0-6.0-5.43","3385841","co39136","norming","","","","","","",""
"2018","","","post_reveal_questions","survey-likert","313","1064280","0.0-6.0-6.43","3385841","co39136","norming","","","{""aha"":2}","[0]","../img/tt/534tt.jpg","",""
"null","<div style=""font-size:60px;""> </div>","null","fixation","html-keyboard-response","314","1064483","0.0-6.0-0.44","3385841","co39136","norming","","","","","","",""
"null","../img/tt/353tt.jpg","null","mooney1","image-keyboard-response","315","1067486","0.0-6.0-1.44","3385841","co39136","norming","","","","","","",""
"4163","","","post_mooney1_questions","survey-likert","316","1071652","0.0-6.0-2.44","3385841","co39136","norming","","","{""curiosity"":5,""confidence"":5}","[0,1]","../img/tt/353tt.jpg","",""
"7942","","","recognition","survey-text","317","1079603","0.0-6.0-3.44","3385841","co39136","norming","","","{""guess"":""pingun""}","","../img/tt/353tt.jpg","",""
"null","../img/gs/353gs.jpg","null","reveal","image-keyboard-response","318","1081607","0.0-6.0-4.44","3385841","co39136","norming","","","","","","",""
"null","../img/tt/353tt.jpg","null","mooney2","image-keyboard-response","319","1083611","0.0-6.0-5.44","3385841","co39136","norming","","","","","","",""
"3382","","","post_reveal_questions","survey-likert","320","1086994","0.0-6.0-6.44","3385841","co39136","norming","","","{""aha"":4}","[0]","../img/tt/353tt.jpg","",""
"null","<div style=""font-size:60px;""> </div>","null","fixation","html-keyboard-response","321","1087198","0.0-6.0-0.45","3385841","co39136","norming","","","","","","",""
"null","../img/tt/126tt.jpg","null","mooney1","image-keyboard-response","322","1090201","0.0-6.0-1.45","3385841","co39136","norming","","","","","","",""
"5247","","","post_mooney1_questions","survey-likert","323","1095450","0.0-6.0-2.45","3385841","co39136","norming","","","{""curiosity"":6,""confidence"":2}","[0,1]","../img/tt/126tt.jpg","",""
"2740","","","recognition","survey-text","324","1098199","0.0-6.0-3.45","3385841","co39136","norming","","","{""guess"":""een koe""}","","../img/tt/126tt.jpg","",""
"null","../img/gs/126gs.jpg","null","reveal","image-keyboard-response","325","1100203","0.0-6.0-4.45","3385841","co39136","norming","","","","","","",""
"null","../img/tt/126tt.jpg","null","mooney2","image-keyboard-response","326","1102206","0.0-6.0-5.45","3385841","co39136","norming","","","","","","",""
"9677.000000000233","","","post_reveal_questions","survey-likert","327","1111885","0.0-6.0-6.45","3385841","co39136","norming","","","{""aha"":5}","[0]","../img/tt/126tt.jpg","",""
"null","<div style=""font-size:60px;""> </div>","null","fixation","html-keyboard-response","328","1112088","0.0-6.0-0.46","3385841","co39136","norming","","","","","","",""
"null","../img/tt/1070tt.jpg","null","mooney1","image-keyboard-response","329","1115091","0.0-6.0-1.46","3385841","co39136","norming","","","","","","",""
"3709","","","post_mooney1_questions","survey-likert","330","1118802","0.0-6.0-2.46","3385841","co39136","norming","","","{""curiosity"":5,""confidence"":1}","[0,1]","../img/tt/1070tt.jpg","",""
"3832","","","recognition","survey-text","331","1122644","0.0-6.0-3.46","3385841","co39136","norming","","","{""guess"":""pelikaan""}","","../img/tt/1070tt.jpg","",""
"null","../img/gs/1070gs.jpg","null","reveal","image-keyboard-response","332","1124647","0.0-6.0-4.46","3385841","co39136","norming","","","","","","",""
"null","../img/tt/1070tt.jpg","null","mooney2","image-keyboard-response","333","1126650","0.0-6.0-5.46","3385841","co39136","norming","","","","","","",""
"4033","","","post_reveal_questions","survey-likert","334","1130685","0.0-6.0-6.46","3385841","co39136","norming","","","{""aha"":3}","[0]","../img/tt/1070tt.jpg","",""
"null","<div style=""font-size:60px;""> </div>","null","fixation","html-keyboard-response","335","1130888","0.0-6.0-0.47","3385841","co39136","norming","","","","","","",""
"null","../img/tt/1053tt.jpg","null","mooney1","image-keyboard-response","336","1133891","0.0-6.0-1.47","3385841","co39136","norming","","","","","","",""
"3311","","","post_mooney1_questions","survey-likert","337","1137204","0.0-6.0-2.47","3385841","co39136","norming","","","{""curiosity"":5,""confidence"":2}","[0,1]","../img/tt/1053tt.jpg","",""
"4348","","","recognition","survey-text","338","1141561","0.0-6.0-3.47","3385841","co39136","norming","","","{""guess"":""twee koeien""}","","../img/tt/1053tt.jpg","",""
"null","../img/gs/1053gs.jpg","null","reveal","image-keyboard-response","339","1143564","0.0-6.0-4.47","3385841","co39136","norming","","","","","","",""
"null","../img/tt/1053tt.jpg","null","mooney2","image-keyboard-response","340","1145568","0.0-6.0-5.47","3385841","co39136","norming","","","","","","",""
"3237","","","post_reveal_questions","survey-likert","341","1148806","0.0-6.0-6.47","3385841","co39136","norming","","","{""aha"":5}","[0]","../img/tt/1053tt.jpg","",""
"null","<div style=""font-size:60px;""> </div>","null","fixation","html-keyboard-response","342","1149009","0.0-6.0-0.48","3385841","co39136","norming","","","","","","",""
"null","../img/tt/064tt.jpg","null","mooney1","image-keyboard-response","343","1152013","0.0-6.0-1.48","3385841","co39136","norming","","","","","","",""
"3325","","","post_mooney1_questions","survey-likert","344","1155340","0.0-6.0-2.48","3385841","co39136","norming","","","{""curiosity"":5,""confidence"":4}","[0,1]","../img/tt/064tt.jpg","",""
"4570","","","recognition","survey-text","345","1159920","0.0-6.0-3.48","3385841","co39136","norming","","","{""guess"":""schildpad""}","","../img/tt/064tt.jpg","",""
"null","../img/gs/064gs.jpg","null","reveal","image-keyboard-response","346","1161923","0.0-6.0-4.48","3385841","co39136","norming","","","","","","",""
"null","../img/tt/064tt.jpg","null","mooney2","image-keyboard-response","347","1163926","0.0-6.0-5.48","3385841","co39136","norming","","","","","","",""
"3143","","","post_reveal_questions","survey-likert","348","1167070","0.0-6.0-6.48","3385841","co39136","norming","","","{""aha"":5}","[0]","../img/tt/064tt.jpg","",""
"null","<div style=""font-size:60px;""> </div>","null","fixation","html-keyboard-response","349","1167273","0.0-6.0-0.49","3385841","co39136","norming","","","","","","",""
"null","../img/tt/1128tt.jpg","null","mooney1","image-keyboard-response","350","1170276","0.0-6.0-1.49","3385841","co39136","norming","","","","","","",""
"3618.000000000233","","","post_mooney1_questions","survey-likert","351","1173896","0.0-6.0-2.49","3385841","co39136","norming","","","{""curiosity"":6,""confidence"":0}","[0,1]","../img/tt/1128tt.jpg","",""
"1596.9999999997672","","","recognition","survey-text","352","1175502","0.0-6.0-3.49","3385841","co39136","norming","","","{""guess"":""""}","","../img/tt/1128tt.jpg","",""
"null","../img/gs/1128gs.jpg","null","reveal","image-keyboard-response","353","1177506","0.0-6.0-4.49","3385841","co39136","norming","","","","","","",""
"null","../img/tt/1128tt.jpg","null","mooney2","image-keyboard-response","354","1179509","0.0-6.0-5.49","3385841","co39136","norming","","","","","","",""
"2704","","","post_reveal_questions","survey-likert","355","1182215","0.0-6.0-6.49","3385841","co39136","norming","","","{""aha"":1}","[0]","../img/tt/1128tt.jpg","",""
"null","<div style=""font-size:60px;""> </div>","null","fixation","html-keyboard-response","356","1182419","0.0-6.0-0.50","3385841","co39136","norming","","","","","","",""
"null","../img/tt/1004tt.jpg","null","mooney1","image-keyboard-response","357","1185422","0.0-6.0-1.50","3385841","co39136","norming","","","","","","",""
"3256.999999999767","","","post_mooney1_questions","survey-likert","358","1188681","0.0-6.0-2.50","3385841","co39136","norming","","","{""curiosity"":6,""confidence"":1}","[0,1]","../img/tt/1004tt.jpg","",""
"3570","","","recognition","survey-text","359","1192259","0.0-6.0-3.50","3385841","co39136","norming","","","{""guess"":""een hond""}","","../img/tt/1004tt.jpg","",""
"null","../img/gs/1004gs.jpg","null","reveal","image-keyboard-response","360","1194263","0.0-6.0-4.50","3385841","co39136","norming","","","","","","",""
"null","../img/tt/1004tt.jpg","null","mooney2","image-keyboard-response","361","1196266","0.0-6.0-5.50","3385841","co39136","norming","","","","","","",""
"2381","","","post_reveal_questions","survey-likert","362","1198649","0.0-6.0-6.50","3385841","co39136","norming","","","{""aha"":5}","[0]","../img/tt/1004tt.jpg","",""
"null","<div style=""font-size:60px;""> </div>","null","fixation","html-keyboard-response","363","1198853","0.0-6.0-0.51","3385841","co39136","norming","","","","","","",""
"null","../img/tt/497tt.jpg","null","mooney1","image-keyboard-response","364","1201857","0.0-6.0-1.51","3385841","co39136","norming","","","","","","",""
"105609.99999999977","","","post_mooney1_questions","survey-likert","365","1307472","0.0-6.0-2.51","3385841","co39136","norming","","","{""curiosity"":6,""confidence"":0}","[0,1]","../img/tt/497tt.jpg","",""
"695","","","recognition","survey-text","366","1308175","0.0-6.0-3.51","3385841","co39136","norming","","","{""guess"":""""}","","../img/tt/497tt.jpg","",""
"null","../img/gs/497gs.jpg","null","reveal","image-keyboard-response","367","1310179","0.0-6.0-4.51","3385841","co39136","norming","","","","","","",""
"null","../img/tt/497tt.jpg","null","mooney2","image-keyboard-response","368","1312182","0.0-6.0-5.51","3385841","co39136","norming","","","","","","",""
"2259","","","post_reveal_questions","survey-likert","369","1314443","0.0-6.0-6.51","3385841","co39136","norming","","","{""aha"":6}","[0]","../img/tt/497tt.jpg","",""
"null","<div style=""font-size:60px;""> </div>","null","fixation","html-keyboard-response","370","1314646","0.0-6.0-0.52","3385841","co39136","norming","","","","","","",""
"null","../img/tt/1186tt.jpg","null","mooney1","image-keyboard-response","371","1317649","0.0-6.0-1.52","3385841","co39136","norming","","","","","","",""
"4086","","","post_mooney1_questions","survey-likert","372","1321739","0.0-6.0-2.52","3385841","co39136","norming","","","{""curiosity"":6,""confidence"":1}","[0,1]","../img/tt/1186tt.jpg","",""
"5776","","","recognition","survey-text","373","1327523","0.0-6.0-3.52","3385841","co39136","norming","","","{""guess"":""een persoon""}","","../img/tt/1186tt.jpg","",""
"null","../img/gs/1186gs.jpg","null","reveal","image-keyboard-response","374","1329527","0.0-6.0-4.52","3385841","co39136","norming","","","","","","",""
"null","../img/tt/1186tt.jpg","null","mooney2","image-keyboard-response","375","1331530","0.0-6.0-5.52","3385841","co39136","norming","","","","","","",""
"3236","","","post_reveal_questions","survey-likert","376","1334768","0.0-6.0-6.52","3385841","co39136","norming","","","{""aha"":4}","[0]","../img/tt/1186tt.jpg","",""
"null","<div style=""font-size:60px;""> </div>","null","fixation","html-keyboard-response","377","1334971","0.0-6.0-0.53","3385841","co39136","norming","","","","","","",""
"null","../img/tt/091tt.jpg","null","mooney1","image-keyboard-response","378","1337975","0.0-6.0-1.53","3385841","co39136","norming","","","","","","",""
"3768","","","post_mooney1_questions","survey-likert","379","1341744","0.0-6.0-2.53","3385841","co39136","norming","","","{""curiosity"":6,""confidence"":0}","[0,1]","../img/tt/091tt.jpg","",""
"3710","","","recognition","survey-text","380","1345463","0.0-6.0-3.53","3385841","co39136","norming","","","{""guess"":""krokodil""}","","../img/tt/091tt.jpg","",""
"null","../img/gs/091gs.jpg","null","reveal","image-keyboard-response","381","1347466","0.0-6.0-4.53","3385841","co39136","norming","","","","","","",""
"null","../img/tt/091tt.jpg","null","mooney2","image-keyboard-response","382","1349470","0.0-6.0-5.53","3385841","co39136","norming","","","","","","",""
"8417","","","post_reveal_questions","survey-likert","383","1357889","0.0-6.0-6.53","3385841","co39136","norming","","","{""aha"":5}","[0]","../img/tt/091tt.jpg","",""
"null","<div style=""font-size:60px;""> </div>","null","fixation","html-keyboard-response","384","1358092","0.0-6.0-0.54","3385841","co39136","norming","","","","","","",""
"null","../img/tt/405tt.jpg","null","mooney1","image-keyboard-response","385","1361096","0.0-6.0-1.54","3385841","co39136","norming","","","","","","",""
"3017","","","post_mooney1_questions","survey-likert","386","1364115","0.0-6.0-2.54","3385841","co39136","norming","","","{""curiosity"":6,""confidence"":5}","[0,1]","../img/tt/405tt.jpg","",""
"3858","","","recognition","survey-text","387","1367982","0.0-6.0-3.54","3385841","co39136","norming","","","{""guess"":""koala""}","","../img/tt/405tt.jpg","",""
"null","../img/gs/405gs.jpg","null","reveal","image-keyboard-response","388","1369985","0.0-6.0-4.54","3385841","co39136","norming","","","","","","",""
"null","../img/tt/405tt.jpg","null","mooney2","image-keyboard-response","389","1371987","0.0-6.0-5.54","3385841","co39136","norming","","","","","","",""
"2062","","","post_reveal_questions","survey-likert","390","1374051","0.0-6.0-6.54","3385841","co39136","norming","","","{""aha"":6}","[0]","../img/tt/405tt.jpg","",""
"null","<div style=""font-size:60px;""> </div>","null","fixation","html-keyboard-response","391","1374254","0.0-6.0-0.55","3385841","co39136","norming","","","","","","",""
"null","../img/tt/055tt.jpg","null","mooney1","image-keyboard-response","392","1377257","0.0-6.0-1.55","3385841","co39136","norming","","","","","","",""
"2827","","","post_mooney1_questions","survey-likert","393","1380086","0.0-6.0-2.55","3385841","co39136","norming","","","{""curiosity"":6,""confidence"":1}","[0,1]","../img/tt/055tt.jpg","",""
"7626","","","recognition","survey-text","394","1387721","0.0-6.0-3.55","3385841","co39136","norming","","","{""guess"":""persoon in een hangmat""}","","../img/tt/055tt.jpg","",""
"null","../img/gs/055gs.jpg","null","reveal","image-keyboard-response","395","1389724","0.0-6.0-4.55","3385841","co39136","norming","","","","","","",""
"null","../img/tt/055tt.jpg","null","mooney2","image-keyboard-response","396","1391728","0.0-6.0-5.55","3385841","co39136","norming","","","","","","",""
"4716","","","post_reveal_questions","survey-likert","397","1396445","0.0-6.0-6.55","3385841","co39136","norming","","","{""aha"":3}","[0]","../img/tt/055tt.jpg","",""
"null","<div style=""font-size:60px;""> </div>","null","fixation","html-keyboard-response","398","1396649","0.0-6.0-0.56","3385841","co39136","norming","","","","","","",""
"null","../img/tt/1276tt.jpg","null","mooney1","image-keyboard-response","399","1399651","0.0-6.0-1.56","3385841","co39136","norming","","","","","","",""
"3532.999999999767","","","post_mooney1_questions","survey-likert","400","1403186","0.0-6.0-2.56","3385841","co39136","norming","","","{""curiosity"":6,""confidence"":1}","[0,1]","../img/tt/1276tt.jpg","",""
"2027","","","recognition","survey-text","401","1405222","0.0-6.0-3.56","3385841","co39136","norming","","","{""guess"":""""}","","../img/tt/1276tt.jpg","",""
"null","../img/gs/1276gs.jpg","null","reveal","image-keyboard-response","402","1407226","0.0-6.0-4.56","3385841","co39136","norming","","","","","","",""
"null","../img/tt/1276tt.jpg","null","mooney2","image-keyboard-response","403","1409229","0.0-6.0-5.56","3385841","co39136","norming","","","","","","",""
"2537.000000000233","","","post_reveal_questions","survey-likert","404","1411768","0.0-6.0-6.56","3385841","co39136","norming","","","{""aha"":2}","[0]","../img/tt/1276tt.jpg","",""
"null","<div style=""font-size:60px;""> </div>","null","fixation","html-keyboard-response","405","1411971","0.0-6.0-0.57","3385841","co39136","norming","","","","","","",""
"null","../img/tt/315tt.jpg","null","mooney1","image-keyboard-response","406","1414974","0.0-6.0-1.57","3385841","co39136","norming","","","","","","",""
"5691","","","post_mooney1_questions","survey-likert","407","1420668","0.0-6.0-2.57","3385841","co39136","norming","","","{""curiosity"":5,""confidence"":1}","[0,1]","../img/tt/315tt.jpg","",""
"3312.000000000233","","","recognition","survey-text","408","1423989","0.0-6.0-3.57","3385841","co39136","norming","","","{""guess"":""een vogel""}","","../img/tt/315tt.jpg","",""
"null","../img/gs/315gs.jpg","null","reveal","image-keyboard-response","409","1425993","0.0-6.0-4.57","3385841","co39136","norming","","","","","","",""
"null","../img/tt/315tt.jpg","null","mooney2","image-keyboard-response","410","1427996","0.0-6.0-5.57","3385841","co39136","norming","","","","","","",""
"2996","","","post_reveal_questions","survey-likert","411","1430993","0.0-6.0-6.57","3385841","co39136","norming","","","{""aha"":5}","[0]","../img/tt/315tt.jpg","",""
"null","<div style=""font-size:60px;""> </div>","null","fixation","html-keyboard-response","412","1431197","0.0-6.0-0.58","3385841","co39136","norming","","","","","","",""
"null","../img/tt/1046tt.jpg","null","mooney1","image-keyboard-response","413","1434200","0.0-6.0-1.58","3385841","co39136","norming","","","","","","",""
"3798.999999999767","","","post_mooney1_questions","survey-likert","414","1438001","0.0-6.0-2.58","3385841","co39136","norming","","","{""curiosity"":5,""confidence"":1}","[0,1]","../img/tt/1046tt.jpg","",""
"4156","","","recognition","survey-text","415","1442167","0.0-6.0-3.58","3385841","co39136","norming","","","{""guess"":""panda""}","","../img/tt/1046tt.jpg","",""
"null","../img/gs/1046gs.jpg","null","reveal","image-keyboard-response","416","1444170","0.0-6.0-4.58","3385841","co39136","norming","","","","","","",""
"null","../img/tt/1046tt.jpg","null","mooney2","image-keyboard-response","417","1446173","0.0-6.0-5.58","3385841","co39136","norming","","","","","","",""
"63596","","","post_reveal_questions","survey-likert","418","1509772","0.0-6.0-6.58","3385841","co39136","norming","","","{""aha"":4}","[0]","../img/tt/1046tt.jpg","",""
"null","<div style=""font-size:60px;""> </div>","null","fixation","html-keyboard-response","419","1509975","0.0-6.0-0.59","3385841","co39136","norming","","","","","","",""
"null","../img/tt/552tt.jpg","null","mooney1","image-keyboard-response","420","1512977","0.0-6.0-1.59","3385841","co39136","norming","","","","","","",""
"3577","","","post_mooney1_questions","survey-likert","421","1516556","0.0-6.0-2.59","3385841","co39136","norming","","","{""curiosity"":6,""confidence"":0}","[0,1]","../img/tt/552tt.jpg","",""
"928.0000000002328","","","recognition","survey-text","422","1517492","0.0-6.0-3.59","3385841","co39136","norming","","","{""guess"":""""}","","../img/tt/552tt.jpg","",""
"null","../img/gs/552gs.jpg","null","reveal","image-keyboard-response","423","1519496","0.0-6.0-4.59","3385841","co39136","norming","","","","","","",""
"null","../img/tt/552tt.jpg","null","mooney2","image-keyboard-response","424","1521499","0.0-6.0-5.59","3385841","co39136","norming","","","","","","",""
"8775","","","post_reveal_questions","survey-likert","425","1530276","0.0-6.0-6.59","3385841","co39136","norming","","","{""aha"":5}","[0]","../img/tt/552tt.jpg","",""
"null","<div style=""font-size:60px;""> </div>","null","fixation","html-keyboard-response","426","1530479","0.0-6.0-0.60","3385841","co39136","norming","","","","","","",""
"null","../img/tt/380tt.jpg","null","mooney1","image-keyboard-response","427","1533483","0.0-6.0-1.60","3385841","co39136","norming","","","","","","",""
"4743","","","post_mooney1_questions","survey-likert","428","1538227","0.0-6.0-2.60","3385841","co39136","norming","","","{""curiosity"":6,""confidence"":0}","[0,1]","../img/tt/380tt.jpg","",""
"3485","","","recognition","survey-text","429","1541721","0.0-6.0-3.60","3385841","co39136","norming","","","{""guess"":""hond""}","","../img/tt/380tt.jpg","",""
"null","../img/gs/380gs.jpg","null","reveal","image-keyboard-response","430","1543725","0.0-6.0-4.60","3385841","co39136","norming","","","","","","",""
"null","../img/tt/380tt.jpg","null","mooney2","image-keyboard-response","431","1545728","0.0-6.0-5.60","3385841","co39136","norming","","","","","","",""
"2479","","","post_reveal_questions","survey-likert","432","1548209","0.0-6.0-6.60","3385841","co39136","norming","","","{""aha"":4}","[0]","../img/tt/380tt.jpg","",""
"null","<div style=""font-size:60px;""> </div>","null","fixation","html-keyboard-response","433","1548412","0.0-6.0-0.61","3385841","co39136","norming","","","","","","",""
"null","../img/tt/1362tt.jpg","null","mooney1","image-keyboard-response","434","1551415","0.0-6.0-1.61","3385841","co39136","norming","","","","","","",""
"4756","","","post_mooney1_questions","survey-likert","435","1556173","0.0-6.0-2.61","3385841","co39136","norming","","","{""curiosity"":6,""confidence"":1}","[0,1]","../img/tt/1362tt.jpg","",""
"3068","","","recognition","survey-text","436","1559250","0.0-6.0-3.61","3385841","co39136","norming","","","{""guess"":""thee""}","","../img/tt/1362tt.jpg","",""
"null","../img/gs/1362gs.jpg","null","reveal","image-keyboard-response","437","1561253","0.0-6.0-4.61","3385841","co39136","norming","","","","","","",""
"null","../img/tt/1362tt.jpg","null","mooney2","image-keyboard-response","438","1563257","0.0-6.0-5.61","3385841","co39136","norming","","","","","","",""
"32809","","","post_reveal_questions","survey-likert","439","1596068","0.0-6.0-6.61","3385841","co39136","norming","","","{""aha"":5}","[0]","../img/tt/1362tt.jpg","",""
"null","<div style=""font-size:60px;""> </div>","null","fixation","html-keyboard-response","440","1596271","0.0-6.0-0.62","3385841","co39136","norming","","","","","","",""
"null","../img/tt/1251tt.jpg","null","mooney1","image-keyboard-response","441","1599275","0.0-6.0-1.62","3385841","co39136","norming","","","","","","",""
"30494","","","post_mooney1_questions","survey-likert","442","1629771","0.0-6.0-2.62","3385841","co39136","norming","","","{""curiosity"":6,""confidence"":0}","[0,1]","../img/tt/1251tt.jpg","",""
"812","","","recognition","survey-text","443","1630592","0.0-6.0-3.62","3385841","co39136","norming","","","{""guess"":""""}","","../img/tt/1251tt.jpg","",""
"null","../img/gs/1251gs.jpg","null","reveal","image-keyboard-response","444","1632595","0.0-6.0-4.62","3385841","co39136","norming","","","","","","",""
"null","../img/tt/1251tt.jpg","null","mooney2","image-keyboard-response","445","1634599","0.0-6.0-5.62","3385841","co39136","norming","","","","","","",""
"2298","","","post_reveal_questions","survey-likert","446","1636897","0.0-6.0-6.62","3385841","co39136","norming","","","{""aha"":5}","[0]","../img/tt/1251tt.jpg","",""
"null","<div style=""font-size:60px;""> </div>","null","fixation","html-keyboard-response","447","1637101","0.0-6.0-0.63","3385841","co39136","norming","","","","","","",""
"null","../img/tt/1012tt.jpg","null","mooney1","image-keyboard-response","448","1640104","0.0-6.0-1.63","3385841","co39136","norming","","","","","","",""
"5111.000000000233","","","post_mooney1_questions","survey-likert","449","1645217","0.0-6.0-2.63","3385841","co39136","norming","","","{""curiosity"":6,""confidence"":1}","[0,1]","../img/tt/1012tt.jpg","",""
"5388","","","recognition","survey-text","450","1650614","0.0-6.0-3.63","3385841","co39136","norming","","","{""guess"":""bergen""}","","../img/tt/1012tt.jpg","",""
"null","../img/gs/1012gs.jpg","null","reveal","image-keyboard-response","451","1652617","0.0-6.0-4.63","3385841","co39136","norming","","","","","","",""
"null","../img/tt/1012tt.jpg","null","mooney2","image-keyboard-response","452","1654620","0.0-6.0-5.63","3385841","co39136","norming","","","","","","",""
"2243.999999999767","","","post_reveal_questions","survey-likert","453","1656865","0.0-6.0-6.63","3385841","co39136","norming","","","{""aha"":4}","[0]","../img/tt/1012tt.jpg","",""
"null","<div style=""font-size:60px;""> </div>","null","fixation","html-keyboard-response","454","1657068","0.0-6.0-0.64","3385841","co39136","norming","","","","","","",""
"null","../img/tt/036tt.jpg","null","mooney1","image-keyboard-response","455","1660071","0.0-6.0-1.64","3385841","co39136","norming","","","","","","",""
"3535.999999999767","","","post_mooney1_questions","survey-likert","456","1663610","0.0-6.0-2.64","3385841","co39136","norming","","","{""curiosity"":6,""confidence"":1}","[0,1]","../img/tt/036tt.jpg","",""
"6604","","","recognition","survey-text","457","1670223","0.0-6.0-3.64","3385841","co39136","norming","","","{""guess"":""twee maskers""}","","../img/tt/036tt.jpg","",""
"null","../img/gs/036gs.jpg","null","reveal","image-keyboard-response","458","1672226","0.0-6.0-4.64","3385841","co39136","norming","","","","","","",""
"null","../img/tt/036tt.jpg","null","mooney2","image-keyboard-response","459","1674230","0.0-6.0-5.64","3385841","co39136","norming","","","","","","",""
"10652","","","post_reveal_questions","survey-likert","460","1684883","0.0-6.0-6.64","3385841","co39136","norming","","","{""aha"":5}","[0]","../img/tt/036tt.jpg","",""
"null","<div style=""font-size:60px;""> </div>","null","fixation","html-keyboard-response","461","1685087","0.0-6.0-0.65","3385841","co39136","norming","","","","","","",""
"null","../img/tt/1069tt.jpg","null","mooney1","image-keyboard-response","462","1688090","0.0-6.0-1.65","3385841","co39136","norming","","","","","","",""
"3034","","","post_mooney1_questions","survey-likert","463","1691126","0.0-6.0-2.65","3385841","co39136","norming","","","{""curiosity"":5,""confidence"":1}","[0,1]","../img/tt/1069tt.jpg","",""
"6754","","","recognition","survey-text","464","1697889","0.0-6.0-3.65","3385841","co39136","norming","","","{""guess"":""dinosaurussen ""}","","../img/tt/1069tt.jpg","",""
"null","../img/gs/1069gs.jpg","null","reveal","image-keyboard-response","465","1699893","0.0-6.0-4.65","3385841","co39136","norming","","","","","","",""
"null","../img/tt/1069tt.jpg","null","mooney2","image-keyboard-response","466","1701896","0.0-6.0-5.65","3385841","co39136","norming","","","","","","",""
"2258","","","post_reveal_questions","survey-likert","467","1704155","0.0-6.0-6.65","3385841","co39136","norming","","","{""aha"":2}","[0]","../img/tt/1069tt.jpg","",""
"null","<div style=""font-size:60px;""> </div>","null","fixation","html-keyboard-response","468","1704358","0.0-6.0-0.66","3385841","co39136","norming","","","","","","",""
"null","../img/tt/1154tt.jpg","null","mooney1","image-keyboard-response","469","1707361","0.0-6.0-1.66","3385841","co39136","norming","","","","","","",""
"3693","","","post_mooney1_questions","survey-likert","470","1711056","0.0-6.0-2.66","3385841","co39136","norming","","","{""curiosity"":5,""confidence"":0}","[0,1]","../img/tt/1154tt.jpg","",""
"7327.999999999767","","","recognition","survey-text","471","1718393","0.0-6.0-3.66","3385841","co39136","norming","","","{""guess"":""neushoorn en een mens""}","","../img/tt/1154tt.jpg","",""
"null","../img/gs/1154gs.jpg","null","reveal","image-keyboard-response","472","1720396","0.0-6.0-4.66","3385841","co39136","norming","","","","","","",""
"null","../img/tt/1154tt.jpg","null","mooney2","image-keyboard-response","473","1722399","0.0-6.0-5.66","3385841","co39136","norming","","","","","","",""
"2343","","","post_reveal_questions","survey-likert","474","1724744","0.0-6.0-6.66","3385841","co39136","norming","","","{""aha"":4}","[0]","../img/tt/1154tt.jpg","",""
"null","<div style=""font-size:60px;""> </div>","null","fixation","html-keyboard-response","475","1724947","0.0-6.0-0.67","3385841","co39136","norming","","","","","","",""
"null","../img/tt/1078tt.jpg","null","mooney1","image-keyboard-response","476","1727951","0.0-6.0-1.67","3385841","co39136","norming","","","","","","",""
"3187","","","post_mooney1_questions","survey-likert","477","1731139","0.0-6.0-2.67","3385841","co39136","norming","","","{""curiosity"":6,""confidence"":4}","[0,1]","../img/tt/1078tt.jpg","",""
"6238","","","recognition","survey-text","478","1737387","0.0-6.0-3.67","3385841","co39136","norming","","","{""guess"":""5 personen""}","","../img/tt/1078tt.jpg","",""
"null","../img/gs/1078gs.jpg","null","reveal","image-keyboard-response","479","1739390","0.0-6.0-4.67","3385841","co39136","norming","","","","","","",""
"null","../img/tt/1078tt.jpg","null","mooney2","image-keyboard-response","480","1741393","0.0-6.0-5.67","3385841","co39136","norming","","","","","","",""
"3113.000000000233","","","post_reveal_questions","survey-likert","481","1744507","0.0-6.0-6.67","3385841","co39136","norming","","","{""aha"":4}","[0]","../img/tt/1078tt.jpg","",""
"null","<div style=""font-size:60px;""> </div>","null","fixation","html-keyboard-response","482","1744710","0.0-6.0-0.68","3385841","co39136","norming","","","","","","",""
"null","../img/tt/1239tt.jpg","null","mooney1","image-keyboard-response","483","1747713","0.0-6.0-1.68","3385841","co39136","norming","","","","","","",""
"3652","","","post_mooney1_questions","survey-likert","484","1751370","0.0-6.0-2.68","3385841","co39136","norming","","","{""curiosity"":5,""confidence"":5}","[0,1]","../img/tt/1239tt.jpg","",""
"3621","","","recognition","survey-text","485","1755000","0.0-6.0-3.68","3385841","co39136","norming","","","{""guess"":""een hond""}","","../img/tt/1239tt.jpg","",""
"null","../img/gs/1239gs.jpg","null","reveal","image-keyboard-response","486","1757003","0.0-6.0-4.68","3385841","co39136","norming","","","","","","",""
"null","../img/tt/1239tt.jpg","null","mooney2","image-keyboard-response","487","1759007","0.0-6.0-5.68","3385841","co39136","norming","","","","","","",""
"2532.999999999767","","","post_reveal_questions","survey-likert","488","1761541","0.0-6.0-6.68","3385841","co39136","norming","","","{""aha"":5}","[0]","../img/tt/1239tt.jpg","",""
"null","<div style=""font-size:60px;""> </div>","null","fixation","html-keyboard-response","489","1761745","0.0-6.0-0.69","3385841","co39136","norming","","","","","","",""
"null","../img/tt/140tt.jpg","null","mooney1","image-keyboard-response","490","1764749","0.0-6.0-1.69","3385841","co39136","norming","","","","","","",""
"3495","","","post_mooney1_questions","survey-likert","491","1768246","0.0-6.0-2.69","3385841","co39136","norming","","","{""curiosity"":5,""confidence"":5}","[0,1]","../img/tt/140tt.jpg","",""
"6797","","","recognition","survey-text","492","1775052","0.0-6.0-3.69","3385841","co39136","norming","","","{""guess"":""een vork""}","","../img/tt/140tt.jpg","",""
"null","../img/gs/140gs.jpg","null","reveal","image-keyboard-response","493","1777056","0.0-6.0-4.69","3385841","co39136","norming","","","","","","",""
"null","../img/tt/140tt.jpg","null","mooney2","image-keyboard-response","494","1779059","0.0-6.0-5.69","3385841","co39136","norming","","","","","","",""
"2173","","","post_reveal_questions","survey-likert","495","1781233","0.0-6.0-6.69","3385841","co39136","norming","","","{""aha"":5}","[0]","../img/tt/140tt.jpg","",""
"null","<div style=""font-size:60px;""> </div>","null","fixation","html-keyboard-response","496","1781436","0.0-6.0-0.70","3385841","co39136","norming","","","","","","",""
"null","../img/tt/412tt.jpg","null","mooney1","image-keyboard-response","497","1784439","0.0-6.0-1.70","3385841","co39136","norming","","","","","","",""
"3420","","","post_mooney1_questions","survey-likert","498","1787862","0.0-6.0-2.70","3385841","co39136","norming","","","{""curiosity"":6,""confidence"":0}","[0,1]","../img/tt/412tt.jpg","",""
"3677.000000000233","","","recognition","survey-text","499","1791548","0.0-6.0-3.70","3385841","co39136","norming","","","{""guess"":""lego""}","","../img/tt/412tt.jpg","",""
"null","../img/gs/412gs.jpg","null","reveal","image-keyboard-response","500","1793551","0.0-6.0-4.70","3385841","co39136","norming","","","","","","",""
"null","../img/tt/412tt.jpg","null","mooney2","image-keyboard-response","501","1795555","0.0-6.0-5.70","3385841","co39136","norming","","","","","","",""
"2008","","","post_reveal_questions","survey-likert","502","1797564","0.0-6.0-6.70","3385841","co39136","norming","","","{""aha"":0}","[0]","../img/tt/412tt.jpg","",""
"null","<div style=""font-size:60px;""> </div>","null","fixation","html-keyboard-response","503","1797767","0.0-6.0-0.71","3385841","co39136","norming","","","","","","",""
"null","../img/tt/1224tt.jpg","null","mooney1","image-keyboard-response","504","1800771","0.0-6.0-1.71","3385841","co39136","norming","","","","","","",""
"5201","","","post_mooney1_questions","survey-likert","505","1805975","0.0-6.0-2.71","3385841","co39136","norming","","","{""curiosity"":5,""confidence"":0}","[0,1]","../img/tt/1224tt.jpg","",""
"4193","","","recognition","survey-text","506","1810178","0.0-6.0-3.71","3385841","co39136","norming","","","{""guess"":""persoon""}","","../img/tt/1224tt.jpg","",""
"null","../img/gs/1224gs.jpg","null","reveal","image-keyboard-response","507","1812181","0.0-6.0-4.71","3385841","co39136","norming","","","","","","",""
"null","../img/tt/1224tt.jpg","null","mooney2","image-keyboard-response","508","1814184","0.0-6.0-5.71","3385841","co39136","norming","","","","","","",""
"1966","","","post_reveal_questions","survey-likert","509","1816152","0.0-6.0-6.71","3385841","co39136","norming","","","{""aha"":1}","[0]","../img/tt/1224tt.jpg","",""
"null","<div style=""font-size:60px;""> </div>","null","fixation","html-keyboard-response","510","1816355","0.0-6.0-0.72","3385841","co39136","norming","","","","","","",""
"null","../img/tt/481tt.jpg","null","mooney1","image-keyboard-response","511","1819358","0.0-6.0-1.72","3385841","co39136","norming","","","","","","",""
"4296","","","post_mooney1_questions","survey-likert","512","1823656","0.0-6.0-2.72","3385841","co39136","norming","","","{""curiosity"":6,""confidence"":5}","[0,1]","../img/tt/481tt.jpg","",""
"4066","","","recognition","survey-text","513","1827727","0.0-6.0-3.72","3385841","co39136","norming","","","{""guess"":""een hond""}","","../img/tt/481tt.jpg","",""
"null","../img/gs/481gs.jpg","null","reveal","image-keyboard-response","514","1829731","0.0-6.0-4.72","3385841","co39136","norming","","","","","","",""
"null","../img/tt/481tt.jpg","null","mooney2","image-keyboard-response","515","1831734","0.0-6.0-5.72","3385841","co39136","norming","","","","","","",""
"2433","","","post_reveal_questions","survey-likert","516","1834170","0.0-6.0-6.72","3385841","co39136","norming","","","{""aha"":3}","[0]","../img/tt/481tt.jpg","",""
"null","<div style=""font-size:60px;""> </div>","null","fixation","html-keyboard-response","517","1834373","0.0-6.0-0.73","3385841","co39136","norming","","","","","","",""
"null","../img/tt/1159tt.jpg","null","mooney1","image-keyboard-response","518","1837376","0.0-6.0-1.73","3385841","co39136","norming","","","","","","",""
"3700.000000000233","","","post_mooney1_questions","survey-likert","519","1841079","0.0-6.0-2.73","3385841","co39136","norming","","","{""curiosity"":5,""confidence"":2}","[0,1]","../img/tt/1159tt.jpg","",""
"3447.999999999767","","","recognition","survey-text","520","1844535","0.0-6.0-3.73","3385841","co39136","norming","","","{""guess"":""landschap""}","","../img/tt/1159tt.jpg","",""
"null","../img/gs/1159gs.jpg","null","reveal","image-keyboard-response","521","1846539","0.0-6.0-4.73","3385841","co39136","norming","","","","","","",""
"null","../img/tt/1159tt.jpg","null","mooney2","image-keyboard-response","522","1848542","0.0-6.0-5.73","3385841","co39136","norming","","","","","","",""
"2078","","","post_reveal_questions","survey-likert","523","1850621","0.0-6.0-6.73","3385841","co39136","norming","","","{""aha"":4}","[0]","../img/tt/1159tt.jpg","",""
"null","<div style=""font-size:60px;""> </div>","null","fixation","html-keyboard-response","524","1850824","0.0-6.0-0.74","3385841","co39136","norming","","","","","","",""
"null","../img/tt/1250tt.jpg","null","mooney1","image-keyboard-response","525","1853828","0.0-6.0-1.74","3385841","co39136","norming","","","","","","",""
"3057","","","post_mooney1_questions","survey-likert","526","1856886","0.0-6.0-2.74","3385841","co39136","norming","","","{""curiosity"":5,""confidence"":1}","[0,1]","../img/tt/1250tt.jpg","",""
"5019","","","recognition","survey-text","527","1861915","0.0-6.0-3.74","3385841","co39136","norming","","","{""guess"":""pinguins""}","","../img/tt/1250tt.jpg","",""
"null","../img/gs/1250gs.jpg","null","reveal","image-keyboard-response","528","1863919","0.0-6.0-4.74","3385841","co39136","norming","","","","","","",""
"null","../img/tt/1250tt.jpg","null","mooney2","image-keyboard-response","529","1865922","0.0-6.0-5.74","3385841","co39136","norming","","","","","","",""
"1933","","","post_reveal_questions","survey-likert","530","1867857","0.0-6.0-6.74","3385841","co39136","norming","","","{""aha"":0}","[0]","../img/tt/1250tt.jpg","",""
"null","<div style=""font-size:60px;""> </div>","null","fixation","html-keyboard-response","531","1868060","0.0-6.0-0.75","3385841","co39136","norming","","","","","","",""
"null","../img/tt/436tt.jpg","null","mooney1","image-keyboard-response","532","1871063","0.0-6.0-1.75","3385841","co39136","norming","","","","","","",""
"26630.000000000233","","","post_mooney1_questions","survey-likert","533","1897697","0.0-6.0-2.75","3385841","co39136","norming","","","{""curiosity"":6,""confidence"":0}","[0,1]","../img/tt/436tt.jpg","",""
"1428.9999999997672","","","recognition","survey-text","534","1899134","0.0-6.0-3.75","3385841","co39136","norming","","","{""guess"":""""}","","../img/tt/436tt.jpg","",""
"null","../img/gs/436gs.jpg","null","reveal","image-keyboard-response","535","1901138","0.0-6.0-4.75","3385841","co39136","norming","","","","","","",""
"null","../img/tt/436tt.jpg","null","mooney2","image-keyboard-response","536","1903141","0.0-6.0-5.75","3385841","co39136","norming","","","","","","",""
"15400.000000000233","","","post_reveal_questions","survey-likert","537","1918543","0.0-6.0-6.75","3385841","co39136","norming","","","{""aha"":5}","[0]","../img/tt/436tt.jpg","",""
"null","<div style=""font-size:60px;""> </div>","null","fixation","html-keyboard-response","538","1918747","0.0-6.0-0.76","3385841","co39136","norming","","","","","","",""
"null","../img/tt/1254tt.jpg","null","mooney1","image-keyboard-response","539","1921750","0.0-6.0-1.76","3385841","co39136","norming","","","","","","",""
"5305","","","post_mooney1_questions","survey-likert","540","1927057","0.0-6.0-2.76","3385841","co39136","norming","","","{""curiosity"":5,""confidence"":6}","[0,1]","../img/tt/1254tt.jpg","",""
"3459","","","recognition","survey-text","541","1930525","0.0-6.0-3.76","3385841","co39136","norming","","","{""guess"":""luiaard""}","","../img/tt/1254tt.jpg","",""
"null","../img/gs/1254gs.jpg","null","reveal","image-keyboard-response","542","1932528","0.0-6.0-4.76","3385841","co39136","norming","","","","","","",""
"null","../img/tt/1254tt.jpg","null","mooney2","image-keyboard-response","543","1934532","0.0-6.0-5.76","3385841","co39136","norming","","","","","","",""
"2892.999999999767","","","post_reveal_questions","survey-likert","544","1937427","0.0-6.0-6.76","3385841","co39136","norming","","","{""aha"":6}","[0]","../img/tt/1254tt.jpg","",""
"null","<div style=""font-size:60px;""> </div>","null","fixation","html-keyboard-response","545","1937630","0.0-6.0-0.77","3385841","co39136","norming","","","","","","",""
"null","../img/tt/559tt.jpg","null","mooney1","image-keyboard-response","546","1940633","0.0-6.0-1.77","3385841","co39136","norming","","","","","","",""
"3413","","","post_mooney1_questions","survey-likert","547","1944047","0.0-6.0-2.77","3385841","co39136","norming","","","{""curiosity"":6,""confidence"":1}","[0,1]","../img/tt/559tt.jpg","",""
"4206","","","recognition","survey-text","548","1948259","0.0-6.0-3.77","3385841","co39136","norming","","","{""guess"":""naaimachine""}","","../img/tt/559tt.jpg","",""
"null","../img/gs/559gs.jpg","null","reveal","image-keyboard-response","549","1950263","0.0-6.0-4.77","3385841","co39136","norming","","","","","","",""
"null","../img/tt/559tt.jpg","null","mooney2","image-keyboard-response","550","1952266","0.0-6.0-5.77","3385841","co39136","norming","","","","","","",""
"3538","","","post_reveal_questions","survey-likert","551","1955806","0.0-6.0-6.77","3385841","co39136","norming","","","{""aha"":6}","[0]","../img/tt/559tt.jpg","",""
"null","<div style=""font-size:60px;""> </div>","null","fixation","html-keyboard-response","552","1956009","0.0-6.0-0.78","3385841","co39136","norming","","","","","","",""
"null","../img/tt/1002tt.jpg","null","mooney1","image-keyboard-response","553","1959013","0.0-6.0-1.78","3385841","co39136","norming","","","","","","",""
"3457.999999999767","","","post_mooney1_questions","survey-likert","554","1962473","0.0-6.0-2.78","3385841","co39136","norming","","","{""curiosity"":6,""confidence"":5}","[0,1]","../img/tt/1002tt.jpg","",""
"2653","","","recognition","survey-text","555","1965135","0.0-6.0-3.78","3385841","co39136","norming","","","{""guess"":""beer""}","","../img/tt/1002tt.jpg","",""
"null","../img/gs/1002gs.jpg","null","reveal","image-keyboard-response","556","1967138","0.0-6.0-4.78","3385841","co39136","norming","","","","","","",""
"null","../img/tt/1002tt.jpg","null","mooney2","image-keyboard-response","557","1969141","0.0-6.0-5.78","3385841","co39136","norming","","","","","","",""
"2865","","","post_reveal_questions","survey-likert","558","1972009","0.0-6.0-6.78","3385841","co39136","norming","","","{""aha"":6}","[0]","../img/tt/1002tt.jpg","",""
"null","<div style=""font-size:60px;""> </div>","null","fixation","html-keyboard-response","559","1972212","0.0-6.0-0.79","3385841","co39136","norming","","","","","","",""
"null","../img/tt/1260tt.jpg","null","mooney1","image-keyboard-response","560","1975215","0.0-6.0-1.79","3385841","co39136","norming","","","","","","",""
"4349.999999999767","","","post_mooney1_questions","survey-likert","561","1979567","0.0-6.0-2.79","3385841","co39136","norming","","","{""curiosity"":6,""confidence"":1}","[0,1]","../img/tt/1260tt.jpg","",""
"4394","","","recognition","survey-text","562","1983970","0.0-6.0-3.79","3385841","co39136","norming","","","{""guess"":""een konijn""}","","../img/tt/1260tt.jpg","",""
"null","../img/gs/1260gs.jpg","null","reveal","image-keyboard-response","563","1985973","0.0-6.0-4.79","3385841","co39136","norming","","","","","","",""
"null","../img/tt/1260tt.jpg","null","mooney2","image-keyboard-response","564","1987977","0.0-6.0-5.79","3385841","co39136","norming","","","","","","",""
"2367","","","post_reveal_questions","survey-likert","565","1990345","0.0-6.0-6.79","3385841","co39136","norming","","","{""aha"":5}","[0]","../img/tt/1260tt.jpg","",""
