"rt","stimulus","key_press","test_part","trial_type","trial_index","time_elapsed","internal_node_id","totalTime","subject","experiment_name","button_pressed","success","responses","question_order","currentStim","old","correct"
"1521.2900000042282","Welcome to the experiment. This is an online experiment so please don't close the tab/window until we say goodbye.  Press any key to begin.","32","instructions","html-keyboard-response","0","1525","0.0-0.0","3307916","co39571","norming","","","","","","",""
"59003.52499997825","<div style='word-wrap: break-word; width: 900px'><h3>Please consider this information carefully before deciding whether to participate in this research</h3><ul style='text-align: left; font-size: .8em;'><li><b>Purpose of the research</b>: To examine how people process images.</li><li><b>What you will do in this research</b>:  Stimuli (images) will be presented on the computer and you will be asked different questions about them.</li><li><b>Time required</b>: Participation will take between 45 and 60 minutes to complete.</li><li><b>Risks</b>:  There are no anticipated risks associated with participating in this study. The effects of participating should be comparable to those you would experience from viewing a computer monitor for 30 minutes and using a mouse or keyboard.</li><li><b>Benefits</b>:  This study provides no benefits to you individually except for the credit. The study provides important information about the nature of perception and learning.</li><li><b>Confidentiality</b>:  Your participation in this study will remain confidential. No personally identifiable information will be associated with your data. Your de-identified data may be shared with other researchers and used in future projects.</li><li><b>Participation and withdrawal</b>:  Your participation in this study is completely voluntary and you may refuse to participate or you may choose to withdraw at any time without penalty.</li><li><b>How to contact the researchers</b>: If you have questions or concerns about your participation or payment, or want to request a summary of research findings, please contact Sander Van de Cruys (KU Leuven), at sander.vandecruys@kuleuven.be.</li></ul><p>The nature and purpose of this research have been sufficiently explained and I agree to participate in this study.  I understand that I am free to withdraw at any time without incurring any penalty.</p><p>Please consent by clicking the button below to continue. Otherwise, please exit the study at this time.</p></div>","","instructions","html-button-response","1","60531","0.0-1.0","3307916","co39571","norming","0","","","","","",""
"","","","instructions","fullscreen","2","63841","0.0-2.0","3307916","co39571","norming","","true","","","","",""
"84061.06499998714","","","sona","survey-html-form","3","147905","0.0-3.0","3307916","co39571","norming","","","[{""name"":""sonaid"",""value"":""39571""},{""name"":""debrief"",""value"":""yes""},{""name"":""datajoin"",""value"":""yes""}]","","","",""
"63253.83500001044","<div style='word-wrap: break-word; width: 900px'><h3>Instructions</h3><p>This experiment will have 3 parts. In the first part you will see a series of distorted images like the one below on the left. As you can see in the righthand image, the distorted images are derived from actual photographs. In what follows, you will <strong>briefly</strong> be presented with <strong>only</strong> the distorted image.</p> <div style='float: left; margin-right: 20px;'><img src='../img/018tt.jpg' height='250' width='250'></img></div><div style='float: right; margin-left: 20px;'><img src='../img/018gs.jpg' height='250' width='250'></img></div><p>Subsequently you will be asked a few questions about the image: One question on how <strong>curious</strong> you are about the solution and one on how <strong>confident</strong> you are that you know the solution.</p>Next, we ask you to make a guess on what is in the image. Note that it is OK to name just the <strong>basic level category</strong>. For example when you see a parrot in the image, 'parrot' will obviously be a correct answer but also correct is 'bird'. However, 'animal' will <strong>not</strong> be counted as a correct response. For the example above, 'rose' would be correct or 'flower', but not 'plant'. When soccer players are depicted, 'soccer', 'football', 'soccer players' will be correct, but not 'humans', 'outdoors', or 'sports'. You do not need to describe the image in full, just name the main object in it <strong>in one or two words</strong>. All images depict objects from one of the following broad level categories: animals, inanimate objects, plants, sports, vehicles, and food. Recognizing means knowing <strong>more</strong> than these broad labels for a given image. But we always encourage you to <strong>make a guess</strong> if you can. Note that you are allowed to use <strong>Dutch and English</strong> in your answers, whatever comes easiest for you.</p><p>Press any key to continue.</p></div>","32","instructions","html-keyboard-response","4","211161","0.0-4.0","3307916","co39571","norming","","","","","","",""
"20452.350000006845","<div style='word-wrap: break-word; width: 900px'><h3>Instructions</h3> <p>Next, the solution image will be revealed to you and you'll be asked to indicate how strong your <strong>aha-experience</strong> was after seeing the solution. This describes the positive feeling of the 'click' you sometimes experience, when the pieces of the 'puzzle' fall together and you suddenly have 'insight' in the image.</p><img src='aha.jpg' height='188' width='250'></img><p>Note that there are no right or wrong answers. We are interested in what <strong>you</strong> see in the image and how <strong>you</strong> feel about it.</p><p>Press any key to start the experiment.</p></div>","32","instructions","html-keyboard-response","5","231615","0.0-5.0","3307916","co39571","norming","","","","","","",""
"null","<div style=""font-size:60px;""> </div>","null","fixation","html-keyboard-response","6","231817","0.0-6.0-0.0","3307916","co39571","norming","","","","","","",""
"null","../img/tt/1101tt.jpg","null","mooney1","image-keyboard-response","7","234820","0.0-6.0-1.0","3307916","co39571","norming","","","","","","",""
"15356.8250000244","","","post_mooney1_questions","survey-likert","8","250182","0.0-6.0-2.0","3307916","co39571","norming","","","{""curiosity"":4,""confidence"":1}","[0,1]","../img/tt/1101tt.jpg","",""
"9870.584999996936","","","recognition","survey-text","9","260055","0.0-6.0-3.0","3307916","co39571","norming","","","{""guess"":""voetbalspeler""}","","../img/tt/1101tt.jpg","",""
"null","../img/gs/1101gs.jpg","null","reveal","image-keyboard-response","10","262060","0.0-6.0-4.0","3307916","co39571","norming","","","","","","",""
"null","../img/tt/1101tt.jpg","null","mooney2","image-keyboard-response","11","264063","0.0-6.0-5.0","3307916","co39571","norming","","","","","","",""
"7735.329999995884","","","post_reveal_questions","survey-likert","12","271801","0.0-6.0-6.0","3307916","co39571","norming","","","{""aha"":4}","[0]","../img/tt/1101tt.jpg","",""
"null","<div style=""font-size:60px;""> </div>","null","fixation","html-keyboard-response","13","272007","0.0-6.0-0.1","3307916","co39571","norming","","","","","","",""
"null","../img/tt/1211tt.jpg","null","mooney1","image-keyboard-response","14","275010","0.0-6.0-1.1","3307916","co39571","norming","","","","","","",""
"7929.159999999683","","","post_mooney1_questions","survey-likert","15","282943","0.0-6.0-2.1","3307916","co39571","norming","","","{""curiosity"":6,""confidence"":0}","[0,1]","../img/tt/1211tt.jpg","",""
"3213.084999995772","","","recognition","survey-text","16","286159","0.0-6.0-3.1","3307916","co39571","norming","","","{""guess"":""Cowboy""}","","../img/tt/1211tt.jpg","",""
"null","../img/gs/1211gs.jpg","null","reveal","image-keyboard-response","17","288161","0.0-6.0-4.1","3307916","co39571","norming","","","","","","",""
"null","../img/tt/1211tt.jpg","null","mooney2","image-keyboard-response","18","290163","0.0-6.0-5.1","3307916","co39571","norming","","","","","","",""
"4714.3100000103","","","post_reveal_questions","survey-likert","19","294880","0.0-6.0-6.1","3307916","co39571","norming","","","{""aha"":3}","[0]","../img/tt/1211tt.jpg","",""
"null","<div style=""font-size:60px;""> </div>","null","fixation","html-keyboard-response","20","295083","0.0-6.0-0.2","3307916","co39571","norming","","","","","","",""
"null","../img/tt/468tt.jpg","null","mooney1","image-keyboard-response","21","298086","0.0-6.0-1.2","3307916","co39571","norming","","","","","","",""
"9864.245000004303","","","post_mooney1_questions","survey-likert","22","307953","0.0-6.0-2.2","3307916","co39571","norming","","","{""curiosity"":3,""confidence"":0}","[0,1]","../img/tt/468tt.jpg","",""
"3520.170000003418","","","recognition","survey-text","23","311477","0.0-6.0-3.2","3307916","co39571","norming","","","{""guess"":""""}","","../img/tt/468tt.jpg","",""
"null","../img/gs/468gs.jpg","null","reveal","image-keyboard-response","24","313481","0.0-6.0-4.2","3307916","co39571","norming","","","","","","",""
"null","../img/tt/468tt.jpg","null","mooney2","image-keyboard-response","25","315483","0.0-6.0-5.2","3307916","co39571","norming","","","","","","",""
"2471.959999995306","","","post_reveal_questions","survey-likert","26","317957","0.0-6.0-6.2","3307916","co39571","norming","","","{""aha"":6}","[0]","../img/tt/468tt.jpg","",""
"null","<div style=""font-size:60px;""> </div>","null","fixation","html-keyboard-response","27","318158","0.0-6.0-0.3","3307916","co39571","norming","","","","","","",""
"null","../img/tt/1307tt.jpg","null","mooney1","image-keyboard-response","28","321162","0.0-6.0-1.3","3307916","co39571","norming","","","","","","",""
"82878.96000000183","","","post_mooney1_questions","survey-likert","29","404044","0.0-6.0-2.3","3307916","co39571","norming","","","{""curiosity"":5,""confidence"":3}","[0,1]","../img/tt/1307tt.jpg","",""
"13949.995000002673","","","recognition","survey-text","30","417999","0.0-6.0-3.3","3307916","co39571","norming","","","{""guess"":""Draairad attractie""}","","../img/tt/1307tt.jpg","",""
"null","../img/gs/1307gs.jpg","null","reveal","image-keyboard-response","31","420002","0.0-6.0-4.3","3307916","co39571","norming","","","","","","",""
"null","../img/tt/1307tt.jpg","null","mooney2","image-keyboard-response","32","422005","0.0-6.0-5.3","3307916","co39571","norming","","","","","","",""
"7499.580000003334","","","post_reveal_questions","survey-likert","33","429508","0.0-6.0-6.3","3307916","co39571","norming","","","{""aha"":1}","[0]","../img/tt/1307tt.jpg","",""
"null","<div style=""font-size:60px;""> </div>","null","fixation","html-keyboard-response","34","429711","0.0-6.0-0.4","3307916","co39571","norming","","","","","","",""
"null","../img/tt/517tt.jpg","null","mooney1","image-keyboard-response","35","432713","0.0-6.0-1.4","3307916","co39571","norming","","","","","","",""
"7312.930000014603","","","post_mooney1_questions","survey-likert","36","440028","0.0-6.0-2.4","3307916","co39571","norming","","","{""curiosity"":4,""confidence"":0}","[0,1]","../img/tt/517tt.jpg","",""
"4334.119999984978","","","recognition","survey-text","37","444365","0.0-6.0-3.4","3307916","co39571","norming","","","{""guess"":""""}","","../img/tt/517tt.jpg","",""
"null","../img/gs/517gs.jpg","null","reveal","image-keyboard-response","38","446368","0.0-6.0-4.4","3307916","co39571","norming","","","","","","",""
"null","../img/tt/517tt.jpg","null","mooney2","image-keyboard-response","39","448369","0.0-6.0-5.4","3307916","co39571","norming","","","","","","",""
"2977.7049999975134","","","post_reveal_questions","survey-likert","40","451349","0.0-6.0-6.4","3307916","co39571","norming","","","{""aha"":1}","[0]","../img/tt/517tt.jpg","",""
"null","<div style=""font-size:60px;""> </div>","null","fixation","html-keyboard-response","41","451553","0.0-6.0-0.5","3307916","co39571","norming","","","","","","",""
"null","../img/tt/1235tt.jpg","null","mooney1","image-keyboard-response","42","454554","0.0-6.0-1.5","3307916","co39571","norming","","","","","","",""
"4682.824999996228","","","post_mooney1_questions","survey-likert","43","459240","0.0-6.0-2.5","3307916","co39571","norming","","","{""curiosity"":4,""confidence"":1}","[0,1]","../img/tt/1235tt.jpg","",""
"2533.739999984391","","","recognition","survey-text","44","461779","0.0-6.0-3.5","3307916","co39571","norming","","","{""guess"":""Pauw""}","","../img/tt/1235tt.jpg","",""
"null","../img/gs/1235gs.jpg","null","reveal","image-keyboard-response","45","463781","0.0-6.0-4.5","3307916","co39571","norming","","","","","","",""
"null","../img/tt/1235tt.jpg","null","mooney2","image-keyboard-response","46","465783","0.0-6.0-5.5","3307916","co39571","norming","","","","","","",""
"4838.24499999173","","","post_reveal_questions","survey-likert","47","470623","0.0-6.0-6.5","3307916","co39571","norming","","","{""aha"":5}","[0]","../img/tt/1235tt.jpg","",""
"null","<div style=""font-size:60px;""> </div>","null","fixation","html-keyboard-response","48","470827","0.0-6.0-0.6","3307916","co39571","norming","","","","","","",""
"null","../img/tt/524tt.jpg","null","mooney1","image-keyboard-response","49","473831","0.0-6.0-1.6","3307916","co39571","norming","","","","","","",""
"4827.175000013085","","","post_mooney1_questions","survey-likert","50","478661","0.0-6.0-2.6","3307916","co39571","norming","","","{""curiosity"":5,""confidence"":2}","[0,1]","../img/tt/524tt.jpg","",""
"1947.8499999968335","","","recognition","survey-text","51","480614","0.0-6.0-3.6","3307916","co39571","norming","","","{""guess"":""Paard""}","","../img/tt/524tt.jpg","",""
"null","../img/gs/524gs.jpg","null","reveal","image-keyboard-response","52","482616","0.0-6.0-4.6","3307916","co39571","norming","","","","","","",""
"null","../img/tt/524tt.jpg","null","mooney2","image-keyboard-response","53","484620","0.0-6.0-5.6","3307916","co39571","norming","","","","","","",""
"3235.0900000019465","","","post_reveal_questions","survey-likert","54","487857","0.0-6.0-6.6","3307916","co39571","norming","","","{""aha"":6}","[0]","../img/tt/524tt.jpg","",""
"null","<div style=""font-size:60px;""> </div>","null","fixation","html-keyboard-response","55","488059","0.0-6.0-0.7","3307916","co39571","norming","","","","","","",""
"null","../img/tt/1181tt.jpg","null","mooney1","image-keyboard-response","56","491063","0.0-6.0-1.7","3307916","co39571","norming","","","","","","",""
"9239.260000002105","","","post_mooney1_questions","survey-likert","57","500305","0.0-6.0-2.7","3307916","co39571","norming","","","{""curiosity"":4,""confidence"":3}","[0,1]","../img/tt/1181tt.jpg","",""
"2331.1500000127126","","","recognition","survey-text","58","502639","0.0-6.0-3.7","3307916","co39571","norming","","","{""guess"":""Boer met koe""}","","../img/tt/1181tt.jpg","",""
"null","../img/gs/1181gs.jpg","null","reveal","image-keyboard-response","59","504642","0.0-6.0-4.7","3307916","co39571","norming","","","","","","",""
"null","../img/tt/1181tt.jpg","null","mooney2","image-keyboard-response","60","506645","0.0-6.0-5.7","3307916","co39571","norming","","","","","","",""
"5128.484999993816","","","post_reveal_questions","survey-likert","61","511775","0.0-6.0-6.7","3307916","co39571","norming","","","{""aha"":5}","[0]","../img/tt/1181tt.jpg","",""
"null","<div style=""font-size:60px;""> </div>","null","fixation","html-keyboard-response","62","511978","0.0-6.0-0.8","3307916","co39571","norming","","","","","","",""
"null","../img/tt/1159tt.jpg","null","mooney1","image-keyboard-response","63","514982","0.0-6.0-1.8","3307916","co39571","norming","","","","","","",""
"6280.614999996033","","","post_mooney1_questions","survey-likert","64","521265","0.0-6.0-2.8","3307916","co39571","norming","","","{""curiosity"":4,""confidence"":2}","[0,1]","../img/tt/1159tt.jpg","",""
"2486.4200000010896","","","recognition","survey-text","65","523757","0.0-6.0-3.8","3307916","co39571","norming","","","{""guess"":""Trein""}","","../img/tt/1159tt.jpg","",""
"null","../img/gs/1159gs.jpg","null","reveal","image-keyboard-response","66","525760","0.0-6.0-4.8","3307916","co39571","norming","","","","","","",""
"null","../img/tt/1159tt.jpg","null","mooney2","image-keyboard-response","67","527763","0.0-6.0-5.8","3307916","co39571","norming","","","","","","",""
"4420.555000018794","","","post_reveal_questions","survey-likert","68","532186","0.0-6.0-6.8","3307916","co39571","norming","","","{""aha"":4}","[0]","../img/tt/1159tt.jpg","",""
"null","<div style=""font-size:60px;""> </div>","null","fixation","html-keyboard-response","69","532388","0.0-6.0-0.9","3307916","co39571","norming","","","","","","",""
"null","../img/tt/1161tt.jpg","null","mooney1","image-keyboard-response","70","535391","0.0-6.0-1.9","3307916","co39571","norming","","","","","","",""
"5635.9100000117905","","","post_mooney1_questions","survey-likert","71","541030","0.0-6.0-2.9","3307916","co39571","norming","","","{""curiosity"":3,""confidence"":2}","[0,1]","../img/tt/1161tt.jpg","",""
"2963.6699999973644","","","recognition","survey-text","72","543998","0.0-6.0-3.9","3307916","co39571","norming","","","{""guess"":""Attractie""}","","../img/tt/1161tt.jpg","",""
"null","../img/gs/1161gs.jpg","null","reveal","image-keyboard-response","73","546001","0.0-6.0-4.9","3307916","co39571","norming","","","","","","",""
"null","../img/tt/1161tt.jpg","null","mooney2","image-keyboard-response","74","548003","0.0-6.0-5.9","3307916","co39571","norming","","","","","","",""
"2372.3099999770056","","","post_reveal_questions","survey-likert","75","550377","0.0-6.0-6.9","3307916","co39571","norming","","","{""aha"":1}","[0]","../img/tt/1161tt.jpg","",""
"null","<div style=""font-size:60px;""> </div>","null","fixation","html-keyboard-response","76","550580","0.0-6.0-0.10","3307916","co39571","norming","","","","","","",""
"null","../img/tt/438tt.jpg","null","mooney1","image-keyboard-response","77","553589","0.0-6.0-1.10","3307916","co39571","norming","","","","","","",""
"6230.4000000003725","","","post_mooney1_questions","survey-likert","78","559822","0.0-6.0-2.10","3307916","co39571","norming","","","{""curiosity"":6,""confidence"":4}","[0,1]","../img/tt/438tt.jpg","",""
"1924.5649999938905","","","recognition","survey-text","79","561752","0.0-6.0-3.10","3307916","co39571","norming","","","{""guess"":""Slang""}","","../img/tt/438tt.jpg","",""
"null","../img/gs/438gs.jpg","null","reveal","image-keyboard-response","80","563755","0.0-6.0-4.10","3307916","co39571","norming","","","","","","",""
"null","../img/tt/438tt.jpg","null","mooney2","image-keyboard-response","81","565758","0.0-6.0-5.10","3307916","co39571","norming","","","","","","",""
"6911.204999982147","","","post_reveal_questions","survey-likert","82","572672","0.0-6.0-6.10","3307916","co39571","norming","","","{""aha"":1}","[0]","../img/tt/438tt.jpg","",""
"null","<div style=""font-size:60px;""> </div>","null","fixation","html-keyboard-response","83","572873","0.0-6.0-0.11","3307916","co39571","norming","","","","","","",""
"null","../img/tt/1276tt.jpg","null","mooney1","image-keyboard-response","84","575877","0.0-6.0-1.11","3307916","co39571","norming","","","","","","",""
"6149.4950000196695","","","post_mooney1_questions","survey-likert","85","582029","0.0-6.0-2.11","3307916","co39571","norming","","","{""curiosity"":5,""confidence"":2}","[0,1]","../img/tt/1276tt.jpg","",""
"1196.9700000190642","","","recognition","survey-text","86","583231","0.0-6.0-3.11","3307916","co39571","norming","","","{""guess"":""Koe""}","","../img/tt/1276tt.jpg","",""
"null","../img/gs/1276gs.jpg","null","reveal","image-keyboard-response","87","585234","0.0-6.0-4.11","3307916","co39571","norming","","","","","","",""
"null","../img/tt/1276tt.jpg","null","mooney2","image-keyboard-response","88","587237","0.0-6.0-5.11","3307916","co39571","norming","","","","","","",""
"6323.819999990519","","","post_reveal_questions","survey-likert","89","593563","0.0-6.0-6.11","3307916","co39571","norming","","","{""aha"":5}","[0]","../img/tt/1276tt.jpg","",""
"null","<div style=""font-size:60px;""> </div>","null","fixation","html-keyboard-response","90","593766","0.0-6.0-0.12","3307916","co39571","norming","","","","","","",""
"null","../img/tt/1279tt.jpg","null","mooney1","image-keyboard-response","91","596769","0.0-6.0-1.12","3307916","co39571","norming","","","","","","",""
"4583.290000009583","","","post_mooney1_questions","survey-likert","92","601355","0.0-6.0-2.12","3307916","co39571","norming","","","{""curiosity"":6,""confidence"":1}","[0,1]","../img/tt/1279tt.jpg","",""
"1161.7649999971036","","","recognition","survey-text","93","602521","0.0-6.0-3.12","3307916","co39571","norming","","","{""guess"":""Hond""}","","../img/tt/1279tt.jpg","",""
"null","../img/gs/1279gs.jpg","null","reveal","image-keyboard-response","94","604525","0.0-6.0-4.12","3307916","co39571","norming","","","","","","",""
"null","../img/tt/1279tt.jpg","null","mooney2","image-keyboard-response","95","606527","0.0-6.0-5.12","3307916","co39571","norming","","","","","","",""
"3656.105000001844","","","post_reveal_questions","survey-likert","96","610186","0.0-6.0-6.12","3307916","co39571","norming","","","{""aha"":0}","[0]","../img/tt/1279tt.jpg","",""
"null","<div style=""font-size:60px;""> </div>","null","fixation","html-keyboard-response","97","610388","0.0-6.0-0.13","3307916","co39571","norming","","","","","","",""
"null","../img/tt/412tt.jpg","null","mooney1","image-keyboard-response","98","613392","0.0-6.0-1.13","3307916","co39571","norming","","","","","","",""
"10540.529999998398","","","post_mooney1_questions","survey-likert","99","623935","0.0-6.0-2.13","3307916","co39571","norming","","","{""curiosity"":3,""confidence"":0}","[0,1]","../img/tt/412tt.jpg","",""
"2179.1149999771733","","","recognition","survey-text","100","626117","0.0-6.0-3.13","3307916","co39571","norming","","","{""guess"":""""}","","../img/tt/412tt.jpg","",""
"null","../img/gs/412gs.jpg","null","reveal","image-keyboard-response","101","628119","0.0-6.0-4.13","3307916","co39571","norming","","","","","","",""
"null","../img/tt/412tt.jpg","null","mooney2","image-keyboard-response","102","630121","0.0-6.0-5.13","3307916","co39571","norming","","","","","","",""
"3106.8499999819323","","","post_reveal_questions","survey-likert","103","633231","0.0-6.0-6.13","3307916","co39571","norming","","","{""aha"":0}","[0]","../img/tt/412tt.jpg","",""
"null","<div style=""font-size:60px;""> </div>","null","fixation","html-keyboard-response","104","633433","0.0-6.0-0.14","3307916","co39571","norming","","","","","","",""
"null","../img/tt/270tt.jpg","null","mooney1","image-keyboard-response","105","636437","0.0-6.0-1.14","3307916","co39571","norming","","","","","","",""
"7757.630000007339","","","post_mooney1_questions","survey-likert","106","644198","0.0-6.0-2.14","3307916","co39571","norming","","","{""curiosity"":4,""confidence"":2}","[0,1]","../img/tt/270tt.jpg","",""
"1219.4049999816343","","","recognition","survey-text","107","645422","0.0-6.0-3.14","3307916","co39571","norming","","","{""guess"":""Hert""}","","../img/tt/270tt.jpg","",""
"null","../img/gs/270gs.jpg","null","reveal","image-keyboard-response","108","647425","0.0-6.0-4.14","3307916","co39571","norming","","","","","","",""
"null","../img/tt/270tt.jpg","null","mooney2","image-keyboard-response","109","649427","0.0-6.0-5.14","3307916","co39571","norming","","","","","","",""
"4921.97500000475","","","post_reveal_questions","survey-likert","110","654351","0.0-6.0-6.14","3307916","co39571","norming","","","{""aha"":4}","[0]","../img/tt/270tt.jpg","",""
"null","<div style=""font-size:60px;""> </div>","null","fixation","html-keyboard-response","111","654554","0.0-6.0-0.15","3307916","co39571","norming","","","","","","",""
"null","../img/tt/598tt.jpg","null","mooney1","image-keyboard-response","112","657557","0.0-6.0-1.15","3307916","co39571","norming","","","","","","",""
"12856.939999997849","","","post_mooney1_questions","survey-likert","113","670416","0.0-6.0-2.15","3307916","co39571","norming","","","{""curiosity"":4,""confidence"":2}","[0,1]","../img/tt/598tt.jpg","",""
"2650.29499999946","","","recognition","survey-text","114","673069","0.0-6.0-3.15","3307916","co39571","norming","","","{""guess"":""Worstelaar""}","","../img/tt/598tt.jpg","",""
"null","../img/gs/598gs.jpg","null","reveal","image-keyboard-response","115","675071","0.0-6.0-4.15","3307916","co39571","norming","","","","","","",""
"null","../img/tt/598tt.jpg","null","mooney2","image-keyboard-response","116","677074","0.0-6.0-5.15","3307916","co39571","norming","","","","","","",""
"3624.8750000086147","","","post_reveal_questions","survey-likert","117","680701","0.0-6.0-6.15","3307916","co39571","norming","","","{""aha"":5}","[0]","../img/tt/598tt.jpg","",""
"null","<div style=""font-size:60px;""> </div>","null","fixation","html-keyboard-response","118","680903","0.0-6.0-0.16","3307916","co39571","norming","","","","","","",""
"null","../img/tt/055tt.jpg","null","mooney1","image-keyboard-response","119","683905","0.0-6.0-1.16","3307916","co39571","norming","","","","","","",""
"8722.854999999981","","","post_mooney1_questions","survey-likert","120","692630","0.0-6.0-2.16","3307916","co39571","norming","","","{""curiosity"":4,""confidence"":6}","[0,1]","../img/tt/055tt.jpg","",""
"1591.5249999961816","","","recognition","survey-text","121","694224","0.0-6.0-3.16","3307916","co39571","norming","","","{""guess"":""Zadel""}","","../img/tt/055tt.jpg","",""
"null","../img/gs/055gs.jpg","null","reveal","image-keyboard-response","122","696225","0.0-6.0-4.16","3307916","co39571","norming","","","","","","",""
"null","../img/tt/055tt.jpg","null","mooney2","image-keyboard-response","123","698227","0.0-6.0-5.16","3307916","co39571","norming","","","","","","",""
"4739.240000024438","","","post_reveal_questions","survey-likert","124","702969","0.0-6.0-6.16","3307916","co39571","norming","","","{""aha"":3}","[0]","../img/tt/055tt.jpg","",""
"null","<div style=""font-size:60px;""> </div>","null","fixation","html-keyboard-response","125","703172","0.0-6.0-0.17","3307916","co39571","norming","","","","","","",""
"null","../img/tt/078tt.jpg","null","mooney1","image-keyboard-response","126","706175","0.0-6.0-1.17","3307916","co39571","norming","","","","","","",""
"4455.19000000786","","","post_mooney1_questions","survey-likert","127","710633","0.0-6.0-2.17","3307916","co39571","norming","","","{""curiosity"":5,""confidence"":6}","[0,1]","../img/tt/078tt.jpg","",""
"1491.3599999854341","","","recognition","survey-text","128","712130","0.0-6.0-3.17","3307916","co39571","norming","","","{""guess"":""Druiven""}","","../img/tt/078tt.jpg","",""
"null","../img/gs/078gs.jpg","null","reveal","image-keyboard-response","129","714132","0.0-6.0-4.17","3307916","co39571","norming","","","","","","",""
"null","../img/tt/078tt.jpg","null","mooney2","image-keyboard-response","130","716135","0.0-6.0-5.17","3307916","co39571","norming","","","","","","",""
"3531.430000002729","","","post_reveal_questions","survey-likert","131","719667","0.0-6.0-6.17","3307916","co39571","norming","","","{""aha"":3}","[0]","../img/tt/078tt.jpg","",""
"null","<div style=""font-size:60px;""> </div>","null","fixation","html-keyboard-response","132","719868","0.0-6.0-0.18","3307916","co39571","norming","","","","","","",""
"null","../img/tt/559tt.jpg","null","mooney1","image-keyboard-response","133","722872","0.0-6.0-1.18","3307916","co39571","norming","","","","","","",""
"26045.45999999391","","","post_mooney1_questions","survey-likert","134","748919","0.0-6.0-2.18","3307916","co39571","norming","","","{""curiosity"":1,""confidence"":0}","[0,1]","../img/tt/559tt.jpg","",""
"447.21000001300126","","","recognition","survey-text","135","749369","0.0-6.0-3.18","3307916","co39571","norming","","","{""guess"":""""}","","../img/tt/559tt.jpg","",""
"null","../img/gs/559gs.jpg","null","reveal","image-keyboard-response","136","751371","0.0-6.0-4.18","3307916","co39571","norming","","","","","","",""
"null","../img/tt/559tt.jpg","null","mooney2","image-keyboard-response","137","753372","0.0-6.0-5.18","3307916","co39571","norming","","","","","","",""
"2909.570000017993","","","post_reveal_questions","survey-likert","138","756285","0.0-6.0-6.18","3307916","co39571","norming","","","{""aha"":4}","[0]","../img/tt/559tt.jpg","",""
"null","<div style=""font-size:60px;""> </div>","null","fixation","html-keyboard-response","139","756487","0.0-6.0-0.19","3307916","co39571","norming","","","","","","",""
"null","../img/tt/094tt.jpg","null","mooney1","image-keyboard-response","140","759491","0.0-6.0-1.19","3307916","co39571","norming","","","","","","",""
"6116.615000006277","","","post_mooney1_questions","survey-likert","141","765610","0.0-6.0-2.19","3307916","co39571","norming","","","{""curiosity"":5,""confidence"":1}","[0,1]","../img/tt/094tt.jpg","",""
"3192.4099999887403","","","recognition","survey-text","142","768808","0.0-6.0-3.19","3307916","co39571","norming","","","{""guess"":""Gecko""}","","../img/tt/094tt.jpg","",""
"null","../img/gs/094gs.jpg","null","reveal","image-keyboard-response","143","770811","0.0-6.0-4.19","3307916","co39571","norming","","","","","","",""
"null","../img/tt/094tt.jpg","null","mooney2","image-keyboard-response","144","772814","0.0-6.0-5.19","3307916","co39571","norming","","","","","","",""
"3834.195000003092","","","post_reveal_questions","survey-likert","145","776650","0.0-6.0-6.19","3307916","co39571","norming","","","{""aha"":6}","[0]","../img/tt/094tt.jpg","",""
"null","<div style=""font-size:60px;""> </div>","null","fixation","html-keyboard-response","146","776854","0.0-6.0-0.20","3307916","co39571","norming","","","","","","",""
"null","../img/tt/1190tt.jpg","null","mooney1","image-keyboard-response","147","779857","0.0-6.0-1.20","3307916","co39571","norming","","","","","","",""
"6009.630000015022","","","post_mooney1_questions","survey-likert","148","785870","0.0-6.0-2.20","3307916","co39571","norming","","","{""curiosity"":5,""confidence"":2}","[0,1]","../img/tt/1190tt.jpg","",""
"1900.2899999904912","","","recognition","survey-text","149","787775","0.0-6.0-3.20","3307916","co39571","norming","","","{""guess"":""Panda ""}","","../img/tt/1190tt.jpg","",""
"null","../img/gs/1190gs.jpg","null","reveal","image-keyboard-response","150","789776","0.0-6.0-4.20","3307916","co39571","norming","","","","","","",""
"null","../img/tt/1190tt.jpg","null","mooney2","image-keyboard-response","151","791779","0.0-6.0-5.20","3307916","co39571","norming","","","","","","",""
"2204.059999989113","","","post_reveal_questions","survey-likert","152","793985","0.0-6.0-6.20","3307916","co39571","norming","","","{""aha"":5}","[0]","../img/tt/1190tt.jpg","",""
"null","<div style=""font-size:60px;""> </div>","null","fixation","html-keyboard-response","153","794188","0.0-6.0-0.21","3307916","co39571","norming","","","","","","",""
"null","../img/tt/1242tt.jpg","null","mooney1","image-keyboard-response","154","797191","0.0-6.0-1.21","3307916","co39571","norming","","","","","","",""
"5738.914999994449","","","post_mooney1_questions","survey-likert","155","802933","0.0-6.0-2.21","3307916","co39571","norming","","","{""curiosity"":5,""confidence"":1}","[0,1]","../img/tt/1242tt.jpg","",""
"1718.624999979511","","","recognition","survey-text","156","804655","0.0-6.0-3.21","3307916","co39571","norming","","","{""guess"":""Hond""}","","../img/tt/1242tt.jpg","",""
"null","../img/gs/1242gs.jpg","null","reveal","image-keyboard-response","157","806657","0.0-6.0-4.21","3307916","co39571","norming","","","","","","",""
"null","../img/tt/1242tt.jpg","null","mooney2","image-keyboard-response","158","808659","0.0-6.0-5.21","3307916","co39571","norming","","","","","","",""
"3536.7200000036974","","","post_reveal_questions","survey-likert","159","812199","0.0-6.0-6.21","3307916","co39571","norming","","","{""aha"":6}","[0]","../img/tt/1242tt.jpg","",""
"null","<div style=""font-size:60px;""> </div>","null","fixation","html-keyboard-response","160","812401","0.0-6.0-0.22","3307916","co39571","norming","","","","","","",""
"null","../img/tt/1269tt.jpg","null","mooney1","image-keyboard-response","161","815405","0.0-6.0-1.22","3307916","co39571","norming","","","","","","",""
"6050.090000004275","","","post_mooney1_questions","survey-likert","162","821457","0.0-6.0-2.22","3307916","co39571","norming","","","{""curiosity"":4,""confidence"":6}","[0,1]","../img/tt/1269tt.jpg","",""
"2362.1750000165775","","","recognition","survey-text","163","823824","0.0-6.0-3.22","3307916","co39571","norming","","","{""guess"":""Eekhoorn""}","","../img/tt/1269tt.jpg","",""
"null","../img/gs/1269gs.jpg","null","reveal","image-keyboard-response","164","825825","0.0-6.0-4.22","3307916","co39571","norming","","","","","","",""
"null","../img/tt/1269tt.jpg","null","mooney2","image-keyboard-response","165","827828","0.0-6.0-5.22","3307916","co39571","norming","","","","","","",""
"4418.290000001434","","","post_reveal_questions","survey-likert","166","832248","0.0-6.0-6.22","3307916","co39571","norming","","","{""aha"":2}","[0]","../img/tt/1269tt.jpg","",""
"null","<div style=""font-size:60px;""> </div>","null","fixation","html-keyboard-response","167","832451","0.0-6.0-0.23","3307916","co39571","norming","","","","","","",""
"null","../img/tt/515tt.jpg","null","mooney1","image-keyboard-response","168","835454","0.0-6.0-1.23","3307916","co39571","norming","","","","","","",""
"4505.344999983208","","","post_mooney1_questions","survey-likert","169","839961","0.0-6.0-2.23","3307916","co39571","norming","","","{""curiosity"":6,""confidence"":0}","[0,1]","../img/tt/515tt.jpg","",""
"601.3650000095367","","","recognition","survey-text","170","840568","0.0-6.0-3.23","3307916","co39571","norming","","","{""guess"":""""}","","../img/tt/515tt.jpg","",""
"null","../img/gs/515gs.jpg","null","reveal","image-keyboard-response","171","842570","0.0-6.0-4.23","3307916","co39571","norming","","","","","","",""
"null","../img/tt/515tt.jpg","null","mooney2","image-keyboard-response","172","844572","0.0-6.0-5.23","3307916","co39571","norming","","","","","","",""
"2518.229999986943","","","post_reveal_questions","survey-likert","173","847092","0.0-6.0-6.23","3307916","co39571","norming","","","{""aha"":6}","[0]","../img/tt/515tt.jpg","",""
"null","<div style=""font-size:60px;""> </div>","null","fixation","html-keyboard-response","174","847295","0.0-6.0-0.24","3307916","co39571","norming","","","","","","",""
"null","../img/tt/1154tt.jpg","null","mooney1","image-keyboard-response","175","850298","0.0-6.0-1.24","3307916","co39571","norming","","","","","","",""
"4898.905000009108","","","post_mooney1_questions","survey-likert","176","855200","0.0-6.0-2.24","3307916","co39571","norming","","","{""curiosity"":5,""confidence"":1}","[0,1]","../img/tt/1154tt.jpg","",""
"1489.319999993313","","","recognition","survey-text","177","856692","0.0-6.0-3.24","3307916","co39571","norming","","","{""guess"":""Kajak""}","","../img/tt/1154tt.jpg","",""
"null","../img/gs/1154gs.jpg","null","reveal","image-keyboard-response","178","858694","0.0-6.0-4.24","3307916","co39571","norming","","","","","","",""
"null","../img/tt/1154tt.jpg","null","mooney2","image-keyboard-response","179","860696","0.0-6.0-5.24","3307916","co39571","norming","","","","","","",""
"4733.150000014575","","","post_reveal_questions","survey-likert","180","865431","0.0-6.0-6.24","3307916","co39571","norming","","","{""aha"":6}","[0]","../img/tt/1154tt.jpg","",""
"null","<div style=""font-size:60px;""> </div>","null","fixation","html-keyboard-response","181","865634","0.0-6.0-0.25","3307916","co39571","norming","","","","","","",""
"null","../img/tt/599tt.jpg","null","mooney1","image-keyboard-response","182","868635","0.0-6.0-1.25","3307916","co39571","norming","","","","","","",""
"4185.154999984661","","","post_mooney1_questions","survey-likert","183","872824","0.0-6.0-2.25","3307916","co39571","norming","","","{""curiosity"":6,""confidence"":1}","[0,1]","../img/tt/599tt.jpg","",""
"4570.804999995744","","","recognition","survey-text","184","877402","0.0-6.0-3.25","3307916","co39571","norming","","","{""guess"":""Vlinder""}","","../img/tt/599tt.jpg","",""
"null","../img/gs/599gs.jpg","null","reveal","image-keyboard-response","185","879404","0.0-6.0-4.25","3307916","co39571","norming","","","","","","",""
"null","../img/tt/599tt.jpg","null","mooney2","image-keyboard-response","186","881406","0.0-6.0-5.25","3307916","co39571","norming","","","","","","",""
"3172.1900000120513","","","post_reveal_questions","survey-likert","187","884581","0.0-6.0-6.25","3307916","co39571","norming","","","{""aha"":6}","[0]","../img/tt/599tt.jpg","",""
"null","<div style=""font-size:60px;""> </div>","null","fixation","html-keyboard-response","188","884783","0.0-6.0-0.26","3307916","co39571","norming","","","","","","",""
"null","../img/tt/063tt.jpg","null","mooney1","image-keyboard-response","189","887786","0.0-6.0-1.26","3307916","co39571","norming","","","","","","",""
"5443.089999986114","","","post_mooney1_questions","survey-likert","190","893232","0.0-6.0-2.26","3307916","co39571","norming","","","{""curiosity"":6,""confidence"":4}","[0,1]","../img/tt/063tt.jpg","",""
"2921.8199999886565","","","recognition","survey-text","191","896159","0.0-6.0-3.26","3307916","co39571","norming","","","{""guess"":""Toetsenbord""}","","../img/tt/063tt.jpg","",""
"null","../img/gs/063gs.jpg","null","reveal","image-keyboard-response","192","898162","0.0-6.0-4.26","3307916","co39571","norming","","","","","","",""
"null","../img/tt/063tt.jpg","null","mooney2","image-keyboard-response","193","900165","0.0-6.0-5.26","3307916","co39571","norming","","","","","","",""
"5575.475000019651","","","post_reveal_questions","survey-likert","194","905743","0.0-6.0-6.26","3307916","co39571","norming","","","{""aha"":5}","[0]","../img/tt/063tt.jpg","",""
"null","<div style=""font-size:60px;""> </div>","null","fixation","html-keyboard-response","195","905945","0.0-6.0-0.27","3307916","co39571","norming","","","","","","",""
"null","../img/tt/315tt.jpg","null","mooney1","image-keyboard-response","196","908949","0.0-6.0-1.27","3307916","co39571","norming","","","","","","",""
"5927.964999980759","","","post_mooney1_questions","survey-likert","197","914880","0.0-6.0-2.27","3307916","co39571","norming","","","{""curiosity"":4,""confidence"":2}","[0,1]","../img/tt/315tt.jpg","",""
"1281.8550000083633","","","recognition","survey-text","198","916168","0.0-6.0-3.27","3307916","co39571","norming","","","{""guess"":""Vogel""}","","../img/tt/315tt.jpg","",""
"null","../img/gs/315gs.jpg","null","reveal","image-keyboard-response","199","918170","0.0-6.0-4.27","3307916","co39571","norming","","","","","","",""
"null","../img/tt/315tt.jpg","null","mooney2","image-keyboard-response","200","920172","0.0-6.0-5.27","3307916","co39571","norming","","","","","","",""
"2411.6199999989476","","","post_reveal_questions","survey-likert","201","922586","0.0-6.0-6.27","3307916","co39571","norming","","","{""aha"":6}","[0]","../img/tt/315tt.jpg","",""
"null","<div style=""font-size:60px;""> </div>","null","fixation","html-keyboard-response","202","922790","0.0-6.0-0.28","3307916","co39571","norming","","","","","","",""
"null","../img/tt/091tt.jpg","null","mooney1","image-keyboard-response","203","925792","0.0-6.0-1.28","3307916","co39571","norming","","","","","","",""
"4737.369999988005","","","post_mooney1_questions","survey-likert","204","930532","0.0-6.0-2.28","3307916","co39571","norming","","","{""curiosity"":6,""confidence"":2}","[0,1]","../img/tt/091tt.jpg","",""
"2936.1900000076275","","","recognition","survey-text","205","933474","0.0-6.0-3.28","3307916","co39571","norming","","","{""guess"":""Krokodil""}","","../img/tt/091tt.jpg","",""
"null","../img/gs/091gs.jpg","null","reveal","image-keyboard-response","206","935476","0.0-6.0-4.28","3307916","co39571","norming","","","","","","",""
"null","../img/tt/091tt.jpg","null","mooney2","image-keyboard-response","207","937479","0.0-6.0-5.28","3307916","co39571","norming","","","","","","",""
"4222.030000004452","","","post_reveal_questions","survey-likert","208","941704","0.0-6.0-6.28","3307916","co39571","norming","","","{""aha"":5}","[0]","../img/tt/091tt.jpg","",""
"null","<div style=""font-size:60px;""> </div>","null","fixation","html-keyboard-response","209","941905","0.0-6.0-0.29","3307916","co39571","norming","","","","","","",""
"null","../img/tt/222tt.jpg","null","mooney1","image-keyboard-response","210","944909","0.0-6.0-1.29","3307916","co39571","norming","","","","","","",""
"6196.389999997336","","","post_mooney1_questions","survey-likert","211","951108","0.0-6.0-2.29","3307916","co39571","norming","","","{""curiosity"":5,""confidence"":2}","[0,1]","../img/tt/222tt.jpg","",""
"1472.604999988107","","","recognition","survey-text","212","952585","0.0-6.0-3.29","3307916","co39571","norming","","","{""guess"":""Schip""}","","../img/tt/222tt.jpg","",""
"null","../img/gs/222gs.jpg","null","reveal","image-keyboard-response","213","954588","0.0-6.0-4.29","3307916","co39571","norming","","","","","","",""
"null","../img/tt/222tt.jpg","null","mooney2","image-keyboard-response","214","956590","0.0-6.0-5.29","3307916","co39571","norming","","","","","","",""
"3191.5699999954086","","","post_reveal_questions","survey-likert","215","959784","0.0-6.0-6.29","3307916","co39571","norming","","","{""aha"":6}","[0]","../img/tt/222tt.jpg","",""
"null","<div style=""font-size:60px;""> </div>","null","fixation","html-keyboard-response","216","959987","0.0-6.0-0.30","3307916","co39571","norming","","","","","","",""
"null","../img/tt/135tt.jpg","null","mooney1","image-keyboard-response","217","962990","0.0-6.0-1.30","3307916","co39571","norming","","","","","","",""
"4949.6649999928195","","","post_mooney1_questions","survey-likert","218","967943","0.0-6.0-2.30","3307916","co39571","norming","","","{""curiosity"":6,""confidence"":3}","[0,1]","../img/tt/135tt.jpg","",""
"2201.374999975087","","","recognition","survey-text","219","970149","0.0-6.0-3.30","3307916","co39571","norming","","","{""guess"":""Wc""}","","../img/tt/135tt.jpg","",""
"null","../img/gs/135gs.jpg","null","reveal","image-keyboard-response","220","972151","0.0-6.0-4.30","3307916","co39571","norming","","","","","","",""
"null","../img/tt/135tt.jpg","null","mooney2","image-keyboard-response","221","974153","0.0-6.0-5.30","3307916","co39571","norming","","","","","","",""
"1829.4050000258721","","","post_reveal_questions","survey-likert","222","975984","0.0-6.0-6.30","3307916","co39571","norming","","","{""aha"":1}","[0]","../img/tt/135tt.jpg","",""
"null","<div style=""font-size:60px;""> </div>","null","fixation","html-keyboard-response","223","976187","0.0-6.0-0.31","3307916","co39571","norming","","","","","","",""
"null","../img/tt/496tt.jpg","null","mooney1","image-keyboard-response","224","979191","0.0-6.0-1.31","3307916","co39571","norming","","","","","","",""
"4103.354999999283","","","post_mooney1_questions","survey-likert","225","983297","0.0-6.0-2.31","3307916","co39571","norming","","","{""curiosity"":6,""confidence"":2}","[0,1]","../img/tt/496tt.jpg","",""
"1596.3150000025053","","","recognition","survey-text","226","984899","0.0-6.0-3.31","3307916","co39571","norming","","","{""guess"":""Tijger""}","","../img/tt/496tt.jpg","",""
"null","../img/gs/496gs.jpg","null","reveal","image-keyboard-response","227","986901","0.0-6.0-4.31","3307916","co39571","norming","","","","","","",""
"null","../img/tt/496tt.jpg","null","mooney2","image-keyboard-response","228","988904","0.0-6.0-5.31","3307916","co39571","norming","","","","","","",""
"2511.6949999937788","","","post_reveal_questions","survey-likert","229","991419","0.0-6.0-6.31","3307916","co39571","norming","","","{""aha"":4}","[0]","../img/tt/496tt.jpg","",""
"null","<div style=""font-size:60px;""> </div>","null","fixation","html-keyboard-response","230","991621","0.0-6.0-0.32","3307916","co39571","norming","","","","","","",""
"null","../img/tt/440tt.jpg","null","mooney1","image-keyboard-response","231","994624","0.0-6.0-1.32","3307916","co39571","norming","","","","","","",""
"9509.909999993397","","","post_mooney1_questions","survey-likert","232","1004137","0.0-6.0-2.32","3307916","co39571","norming","","","{""curiosity"":6,""confidence"":2}","[0,1]","../img/tt/440tt.jpg","",""
"1532.7549999929033","","","recognition","survey-text","233","1005674","0.0-6.0-3.32","3307916","co39571","norming","","","{""guess"":""Paard""}","","../img/tt/440tt.jpg","",""
"null","../img/gs/440gs.jpg","null","reveal","image-keyboard-response","234","1007675","0.0-6.0-4.32","3307916","co39571","norming","","","","","","",""
"null","../img/tt/440tt.jpg","null","mooney2","image-keyboard-response","235","1009676","0.0-6.0-5.32","3307916","co39571","norming","","","","","","",""
"1860.3350000048522","","","post_reveal_questions","survey-likert","236","1011538","0.0-6.0-6.32","3307916","co39571","norming","","","{""aha"":6}","[0]","../img/tt/440tt.jpg","",""
"null","<div style=""font-size:60px;""> </div>","null","fixation","html-keyboard-response","237","1011742","0.0-6.0-0.33","3307916","co39571","norming","","","","","","",""
"null","../img/tt/1069tt.jpg","null","mooney1","image-keyboard-response","238","1014745","0.0-6.0-1.33","3307916","co39571","norming","","","","","","",""
"6416.989999997895","","","post_mooney1_questions","survey-likert","239","1021164","0.0-6.0-2.33","3307916","co39571","norming","","","{""curiosity"":6,""confidence"":0}","[0,1]","../img/tt/1069tt.jpg","",""
"750.7800000021234","","","recognition","survey-text","240","1021920","0.0-6.0-3.33","3307916","co39571","norming","","","{""guess"":""""}","","../img/tt/1069tt.jpg","",""
"null","../img/gs/1069gs.jpg","null","reveal","image-keyboard-response","241","1023923","0.0-6.0-4.33","3307916","co39571","norming","","","","","","",""
"null","../img/tt/1069tt.jpg","null","mooney2","image-keyboard-response","242","1025925","0.0-6.0-5.33","3307916","co39571","norming","","","","","","",""
"2215.749999973923","","","post_reveal_questions","survey-likert","243","1028144","0.0-6.0-6.33","3307916","co39571","norming","","","{""aha"":5}","[0]","../img/tt/1069tt.jpg","",""
"null","<div style=""font-size:60px;""> </div>","null","fixation","html-keyboard-response","244","1028347","0.0-6.0-0.34","3307916","co39571","norming","","","","","","",""
"null","../img/tt/1024tt.jpg","null","mooney1","image-keyboard-response","245","1031351","0.0-6.0-1.34","3307916","co39571","norming","","","","","","",""
"3842.9849999956787","","","post_mooney1_questions","survey-likert","246","1035197","0.0-6.0-2.34","3307916","co39571","norming","","","{""curiosity"":5,""confidence"":2}","[0,1]","../img/tt/1024tt.jpg","",""
"1758.109999995213","","","recognition","survey-text","247","1036961","0.0-6.0-3.34","3307916","co39571","norming","","","{""guess"":""Dansers""}","","../img/tt/1024tt.jpg","",""
"null","../img/gs/1024gs.jpg","null","reveal","image-keyboard-response","248","1038962","0.0-6.0-4.34","3307916","co39571","norming","","","","","","",""
"null","../img/tt/1024tt.jpg","null","mooney2","image-keyboard-response","249","1040964","0.0-6.0-5.34","3307916","co39571","norming","","","","","","",""
"3912.114999984624","","","post_reveal_questions","survey-likert","250","1044879","0.0-6.0-6.34","3307916","co39571","norming","","","{""aha"":1}","[0]","../img/tt/1024tt.jpg","",""
"null","<div style=""font-size:60px;""> </div>","null","fixation","html-keyboard-response","251","1045082","0.0-6.0-0.35","3307916","co39571","norming","","","","","","",""
"null","../img/tt/1128tt.jpg","null","mooney1","image-keyboard-response","252","1048085","0.0-6.0-1.35","3307916","co39571","norming","","","","","","",""
"6390.405000012834","","","post_mooney1_questions","survey-likert","253","1054479","0.0-6.0-2.35","3307916","co39571","norming","","","{""curiosity"":3,""confidence"":1}","[0,1]","../img/tt/1128tt.jpg","",""
"2050.7999999972526","","","recognition","survey-text","254","1056535","0.0-6.0-3.35","3307916","co39571","norming","","","{""guess"":""Jogger""}","","../img/tt/1128tt.jpg","",""
"null","../img/gs/1128gs.jpg","null","reveal","image-keyboard-response","255","1058538","0.0-6.0-4.35","3307916","co39571","norming","","","","","","",""
"null","../img/tt/1128tt.jpg","null","mooney2","image-keyboard-response","256","1060541","0.0-6.0-5.35","3307916","co39571","norming","","","","","","",""
"3885.779999982333","","","post_reveal_questions","survey-likert","257","1064429","0.0-6.0-6.35","3307916","co39571","norming","","","{""aha"":0}","[0]","../img/tt/1128tt.jpg","",""
"null","<div style=""font-size:60px;""> </div>","null","fixation","html-keyboard-response","258","1064632","0.0-6.0-0.36","3307916","co39571","norming","","","","","","",""
"null","../img/tt/435tt.jpg","null","mooney1","image-keyboard-response","259","1067636","0.0-6.0-1.36","3307916","co39571","norming","","","","","","",""
"28821.564999991097","","","post_mooney1_questions","survey-likert","260","1096461","0.0-6.0-2.36","3307916","co39571","norming","","","{""curiosity"":2,""confidence"":5}","[0,1]","../img/tt/435tt.jpg","",""
"18004.73499999498","","","recognition","survey-text","261","1114469","0.0-6.0-3.36","3307916","co39571","norming","","","{""guess"":""Bildjarttafel / biljartspeler""}","","../img/tt/435tt.jpg","",""
"null","../img/gs/435gs.jpg","null","reveal","image-keyboard-response","262","1116482","0.0-6.0-4.36","3307916","co39571","norming","","","","","","",""
"null","../img/tt/435tt.jpg","null","mooney2","image-keyboard-response","263","1118486","0.0-6.0-5.36","3307916","co39571","norming","","","","","","",""
"3104.009999980917","","","post_reveal_questions","survey-likert","264","1121592","0.0-6.0-6.36","3307916","co39571","norming","","","{""aha"":1}","[0]","../img/tt/435tt.jpg","",""
"null","<div style=""font-size:60px;""> </div>","null","fixation","html-keyboard-response","265","1121796","0.0-6.0-0.37","3307916","co39571","norming","","","","","","",""
"null","../img/tt/1048tt.jpg","null","mooney1","image-keyboard-response","266","1124799","0.0-6.0-1.37","3307916","co39571","norming","","","","","","",""
"6273.864999995567","","","post_mooney1_questions","survey-likert","267","1131076","0.0-6.0-2.37","3307916","co39571","norming","","","{""curiosity"":3,""confidence"":3}","[0,1]","../img/tt/1048tt.jpg","",""
"1523.635000019567","","","recognition","survey-text","268","1132605","0.0-6.0-3.37","3307916","co39571","norming","","","{""guess"":""Paard""}","","../img/tt/1048tt.jpg","",""
"null","../img/gs/1048gs.jpg","null","reveal","image-keyboard-response","269","1134607","0.0-6.0-4.37","3307916","co39571","norming","","","","","","",""
"null","../img/tt/1048tt.jpg","null","mooney2","image-keyboard-response","270","1136611","0.0-6.0-5.37","3307916","co39571","norming","","","","","","",""
"3071.3099999993574","","","post_reveal_questions","survey-likert","271","1139684","0.0-6.0-6.37","3307916","co39571","norming","","","{""aha"":3}","[0]","../img/tt/1048tt.jpg","",""
"null","<div style=""font-size:60px;""> </div>","null","fixation","html-keyboard-response","272","1139886","0.0-6.0-0.38","3307916","co39571","norming","","","","","","",""
"null","../img/tt/1254tt.jpg","null","mooney1","image-keyboard-response","273","1142889","0.0-6.0-1.38","3307916","co39571","norming","","","","","","",""
"6528.009999979986","","","post_mooney1_questions","survey-likert","274","1149420","0.0-6.0-2.38","3307916","co39571","norming","","","{""curiosity"":3,""confidence"":1}","[0,1]","../img/tt/1254tt.jpg","",""
"1231.2950000050478","","","recognition","survey-text","275","1150657","0.0-6.0-3.38","3307916","co39571","norming","","","{""guess"":""Ezel""}","","../img/tt/1254tt.jpg","",""
"null","../img/gs/1254gs.jpg","null","reveal","image-keyboard-response","276","1152659","0.0-6.0-4.38","3307916","co39571","norming","","","","","","",""
"null","../img/tt/1254tt.jpg","null","mooney2","image-keyboard-response","277","1154660","0.0-6.0-5.38","3307916","co39571","norming","","","","","","",""
"3096.7450000171084","","","post_reveal_questions","survey-likert","278","1157758","0.0-6.0-6.38","3307916","co39571","norming","","","{""aha"":5}","[0]","../img/tt/1254tt.jpg","",""
"null","<div style=""font-size:60px;""> </div>","null","fixation","html-keyboard-response","279","1157960","0.0-6.0-0.39","3307916","co39571","norming","","","","","","",""
"null","../img/tt/098tt.jpg","null","mooney1","image-keyboard-response","280","1160963","0.0-6.0-1.39","3307916","co39571","norming","","","","","","",""
"17598.85999999824","","","post_mooney1_questions","survey-likert","281","1178565","0.0-6.0-2.39","3307916","co39571","norming","","","{""curiosity"":5,""confidence"":2}","[0,1]","../img/tt/098tt.jpg","",""
"1734.275000024354","","","recognition","survey-text","282","1180302","0.0-6.0-3.39","3307916","co39571","norming","","","{""guess"":""Vogel""}","","../img/tt/098tt.jpg","",""
"null","../img/gs/098gs.jpg","null","reveal","image-keyboard-response","283","1182305","0.0-6.0-4.39","3307916","co39571","norming","","","","","","",""
"null","../img/tt/098tt.jpg","null","mooney2","image-keyboard-response","284","1184307","0.0-6.0-5.39","3307916","co39571","norming","","","","","","",""
"4250.520000001416","","","post_reveal_questions","survey-likert","285","1188560","0.0-6.0-6.39","3307916","co39571","norming","","","{""aha"":1}","[0]","../img/tt/098tt.jpg","",""
"null","<div style=""font-size:60px;""> </div>","null","fixation","html-keyboard-response","286","1188763","0.0-6.0-0.40","3307916","co39571","norming","","","","","","",""
"null","../img/tt/124tt.jpg","null","mooney1","image-keyboard-response","287","1191766","0.0-6.0-1.40","3307916","co39571","norming","","","","","","",""
"5212.549999996554","","","post_mooney1_questions","survey-likert","288","1196981","0.0-6.0-2.40","3307916","co39571","norming","","","{""curiosity"":3,""confidence"":2}","[0,1]","../img/tt/124tt.jpg","",""
"1136.2799999769777","","","recognition","survey-text","289","1198122","0.0-6.0-3.40","3307916","co39571","norming","","","{""guess"":""Aap""}","","../img/tt/124tt.jpg","",""
"null","../img/gs/124gs.jpg","null","reveal","image-keyboard-response","290","1200124","0.0-6.0-4.40","3307916","co39571","norming","","","","","","",""
"null","../img/tt/124tt.jpg","null","mooney2","image-keyboard-response","291","1202127","0.0-6.0-5.40","3307916","co39571","norming","","","","","","",""
"3151.9400000106543","","","post_reveal_questions","survey-likert","292","1205281","0.0-6.0-6.40","3307916","co39571","norming","","","{""aha"":5}","[0]","../img/tt/124tt.jpg","",""
"null","<div style=""font-size:60px;""> </div>","null","fixation","html-keyboard-response","293","1205483","0.0-6.0-0.41","3307916","co39571","norming","","","","","","",""
"null","../img/tt/406tt.jpg","null","mooney1","image-keyboard-response","294","1208486","0.0-6.0-1.41","3307916","co39571","norming","","","","","","",""
"3827.190000010887","","","post_mooney1_questions","survey-likert","295","1212316","0.0-6.0-2.41","3307916","co39571","norming","","","{""curiosity"":4,""confidence"":3}","[0,1]","../img/tt/406tt.jpg","",""
"3040.4900000139605","","","recognition","survey-text","296","1215359","0.0-6.0-3.41","3307916","co39571","norming","","","{""guess"":""Vleermuis""}","","../img/tt/406tt.jpg","",""
"null","../img/gs/406gs.jpg","null","reveal","image-keyboard-response","297","1217361","0.0-6.0-4.41","3307916","co39571","norming","","","","","","",""
"null","../img/tt/406tt.jpg","null","mooney2","image-keyboard-response","298","1219364","0.0-6.0-5.41","3307916","co39571","norming","","","","","","",""
"4705.389999988256","","","post_reveal_questions","survey-likert","299","1224071","0.0-6.0-6.41","3307916","co39571","norming","","","{""aha"":2}","[0]","../img/tt/406tt.jpg","",""
"null","<div style=""font-size:60px;""> </div>","null","fixation","html-keyboard-response","300","1224275","0.0-6.0-0.42","3307916","co39571","norming","","","","","","",""
"null","../img/tt/1241tt.jpg","null","mooney1","image-keyboard-response","301","1227278","0.0-6.0-1.42","3307916","co39571","norming","","","","","","",""
"6427.8899999917485","","","post_mooney1_questions","survey-likert","302","1233708","0.0-6.0-2.42","3307916","co39571","norming","","","{""curiosity"":6,""confidence"":0}","[0,1]","../img/tt/1241tt.jpg","",""
"434.13500001770444","","","recognition","survey-text","303","1234146","0.0-6.0-3.42","3307916","co39571","norming","","","{""guess"":""""}","","../img/tt/1241tt.jpg","",""
"null","../img/gs/1241gs.jpg","null","reveal","image-keyboard-response","304","1236148","0.0-6.0-4.42","3307916","co39571","norming","","","","","","",""
"null","../img/tt/1241tt.jpg","null","mooney2","image-keyboard-response","305","1238150","0.0-6.0-5.42","3307916","co39571","norming","","","","","","",""
"3505.170000018552","","","post_reveal_questions","survey-likert","306","1241658","0.0-6.0-6.42","3307916","co39571","norming","","","{""aha"":5}","[0]","../img/tt/1241tt.jpg","",""
"null","<div style=""font-size:60px;""> </div>","null","fixation","html-keyboard-response","307","1241861","0.0-6.0-0.43","3307916","co39571","norming","","","","","","",""
"null","../img/tt/1040tt.jpg","null","mooney1","image-keyboard-response","308","1244867","0.0-6.0-1.43","3307916","co39571","norming","","","","","","",""
"4745.055000006687","","","post_mooney1_questions","survey-likert","309","1249615","0.0-6.0-2.43","3307916","co39571","norming","","","{""curiosity"":5,""confidence"":1}","[0,1]","../img/tt/1040tt.jpg","",""
"1136.51499999105","","","recognition","survey-text","310","1250757","0.0-6.0-3.43","3307916","co39571","norming","","","{""guess"":""Apen""}","","../img/tt/1040tt.jpg","",""
"null","../img/gs/1040gs.jpg","null","reveal","image-keyboard-response","311","1252760","0.0-6.0-4.43","3307916","co39571","norming","","","","","","",""
"null","../img/tt/1040tt.jpg","null","mooney2","image-keyboard-response","312","1254762","0.0-6.0-5.43","3307916","co39571","norming","","","","","","",""
"3393.195000011474","","","post_reveal_questions","survey-likert","313","1258158","0.0-6.0-6.43","3307916","co39571","norming","","","{""aha"":4}","[0]","../img/tt/1040tt.jpg","",""
"null","<div style=""font-size:60px;""> </div>","null","fixation","html-keyboard-response","314","1258361","0.0-6.0-0.44","3307916","co39571","norming","","","","","","",""
"null","../img/tt/306tt.jpg","null","mooney1","image-keyboard-response","315","1261365","0.0-6.0-1.44","3307916","co39571","norming","","","","","","",""
"5903.519999992568","","","post_mooney1_questions","survey-likert","316","1267272","0.0-6.0-2.44","3307916","co39571","norming","","","{""curiosity"":6,""confidence"":0}","[0,1]","../img/tt/306tt.jpg","",""
"1211.5199999825563","","","recognition","survey-text","317","1268489","0.0-6.0-3.44","3307916","co39571","norming","","","{""guess"":""Krab""}","","../img/tt/306tt.jpg","",""
"null","../img/gs/306gs.jpg","null","reveal","image-keyboard-response","318","1270491","0.0-6.0-4.44","3307916","co39571","norming","","","","","","",""
"null","../img/tt/306tt.jpg","null","mooney2","image-keyboard-response","319","1272493","0.0-6.0-5.44","3307916","co39571","norming","","","","","","",""
"3241.4649999991525","","","post_reveal_questions","survey-likert","320","1275736","0.0-6.0-6.44","3307916","co39571","norming","","","{""aha"":5}","[0]","../img/tt/306tt.jpg","",""
"null","<div style=""font-size:60px;""> </div>","null","fixation","html-keyboard-response","321","1275939","0.0-6.0-0.45","3307916","co39571","norming","","","","","","",""
"null","../img/tt/032tt.jpg","null","mooney1","image-keyboard-response","322","1278941","0.0-6.0-1.45","3307916","co39571","norming","","","","","","",""
"12034.01999999187","","","post_mooney1_questions","survey-likert","323","1290978","0.0-6.0-2.45","3307916","co39571","norming","","","{""curiosity"":5,""confidence"":2}","[0,1]","../img/tt/032tt.jpg","",""
"1009.1700000048149","","","recognition","survey-text","324","1291991","0.0-6.0-3.45","3307916","co39571","norming","","","{""guess"":""Kip""}","","../img/tt/032tt.jpg","",""
"null","../img/gs/032gs.jpg","null","reveal","image-keyboard-response","325","1293994","0.0-6.0-4.45","3307916","co39571","norming","","","","","","",""
"null","../img/tt/032tt.jpg","null","mooney2","image-keyboard-response","326","1295996","0.0-6.0-5.45","3307916","co39571","norming","","","","","","",""
"3648.6750000040047","","","post_reveal_questions","survey-likert","327","1299647","0.0-6.0-6.45","3307916","co39571","norming","","","{""aha"":6}","[0]","../img/tt/032tt.jpg","",""
"null","<div style=""font-size:60px;""> </div>","null","fixation","html-keyboard-response","328","1299849","0.0-6.0-0.46","3307916","co39571","norming","","","","","","",""
"null","../img/tt/1196tt.jpg","null","mooney1","image-keyboard-response","329","1302853","0.0-6.0-1.46","3307916","co39571","norming","","","","","","",""
"8946.179999999003","","","post_mooney1_questions","survey-likert","330","1311802","0.0-6.0-2.46","3307916","co39571","norming","","","{""curiosity"":6,""confidence"":0}","[0,1]","../img/tt/1196tt.jpg","",""
"301.5050000103656","","","recognition","survey-text","331","1312109","0.0-6.0-3.46","3307916","co39571","norming","","","{""guess"":""""}","","../img/tt/1196tt.jpg","",""
"null","../img/gs/1196gs.jpg","null","reveal","image-keyboard-response","332","1314112","0.0-6.0-4.46","3307916","co39571","norming","","","","","","",""
"null","../img/tt/1196tt.jpg","null","mooney2","image-keyboard-response","333","1316114","0.0-6.0-5.46","3307916","co39571","norming","","","","","","",""
"2422.3199999833014","","","post_reveal_questions","survey-likert","334","1318539","0.0-6.0-6.46","3307916","co39571","norming","","","{""aha"":2}","[0]","../img/tt/1196tt.jpg","",""
"null","<div style=""font-size:60px;""> </div>","null","fixation","html-keyboard-response","335","1318743","0.0-6.0-0.47","3307916","co39571","norming","","","","","","",""
"null","../img/tt/1200tt.jpg","null","mooney1","image-keyboard-response","336","1321746","0.0-6.0-1.47","3307916","co39571","norming","","","","","","",""
"10770.044999982929","","","post_mooney1_questions","survey-likert","337","1332519","0.0-6.0-2.47","3307916","co39571","norming","","","{""curiosity"":5,""confidence"":1}","[0,1]","../img/tt/1200tt.jpg","",""
"1789.3949999997858","","","recognition","survey-text","338","1334315","0.0-6.0-3.47","3307916","co39571","norming","","","{""guess"":""Rivier""}","","../img/tt/1200tt.jpg","",""
"null","../img/gs/1200gs.jpg","null","reveal","image-keyboard-response","339","1336317","0.0-6.0-4.47","3307916","co39571","norming","","","","","","",""
"null","../img/tt/1200tt.jpg","null","mooney2","image-keyboard-response","340","1338320","0.0-6.0-5.47","3307916","co39571","norming","","","","","","",""
"4689.769999997225","","","post_reveal_questions","survey-likert","341","1343014","0.0-6.0-6.47","3307916","co39571","norming","","","{""aha"":6}","[0]","../img/tt/1200tt.jpg","",""
"null","<div style=""font-size:60px;""> </div>","null","fixation","html-keyboard-response","342","1343216","0.0-6.0-0.48","3307916","co39571","norming","","","","","","",""
"null","../img/tt/1205tt.jpg","null","mooney1","image-keyboard-response","343","1346218","0.0-6.0-1.48","3307916","co39571","norming","","","","","","",""
"6109.865000005811","","","post_mooney1_questions","survey-likert","344","1352330","0.0-6.0-2.48","3307916","co39571","norming","","","{""curiosity"":6,""confidence"":1}","[0,1]","../img/tt/1205tt.jpg","",""
"1361.8700000224635","","","recognition","survey-text","345","1353697","0.0-6.0-3.48","3307916","co39571","norming","","","{""guess"":""Klas""}","","../img/tt/1205tt.jpg","",""
"null","../img/gs/1205gs.jpg","null","reveal","image-keyboard-response","346","1355699","0.0-6.0-4.48","3307916","co39571","norming","","","","","","",""
"null","../img/tt/1205tt.jpg","null","mooney2","image-keyboard-response","347","1357701","0.0-6.0-5.48","3307916","co39571","norming","","","","","","",""
"5981.939999997849","","","post_reveal_questions","survey-likert","348","1363684","0.0-6.0-6.48","3307916","co39571","norming","","","{""aha"":5}","[0]","../img/tt/1205tt.jpg","",""
"null","<div style=""font-size:60px;""> </div>","null","fixation","html-keyboard-response","349","1363885","0.0-6.0-0.49","3307916","co39571","norming","","","","","","",""
"null","../img/tt/1250tt.jpg","null","mooney1","image-keyboard-response","350","1366888","0.0-6.0-1.49","3307916","co39571","norming","","","","","","",""
"4139.215000002878","","","post_mooney1_questions","survey-likert","351","1371030","0.0-6.0-2.49","3307916","co39571","norming","","","{""curiosity"":5,""confidence"":1}","[0,1]","../img/tt/1250tt.jpg","",""
"1889.7649999998976","","","recognition","survey-text","352","1372925","0.0-6.0-3.49","3307916","co39571","norming","","","{""guess"":""Penguins""}","","../img/tt/1250tt.jpg","",""
"null","../img/gs/1250gs.jpg","null","reveal","image-keyboard-response","353","1374927","0.0-6.0-4.49","3307916","co39571","norming","","","","","","",""
"null","../img/tt/1250tt.jpg","null","mooney2","image-keyboard-response","354","1376930","0.0-6.0-5.49","3307916","co39571","norming","","","","","","",""
"2589.5199999795295","","","post_reveal_questions","survey-likert","355","1379522","0.0-6.0-6.49","3307916","co39571","norming","","","{""aha"":1}","[0]","../img/tt/1250tt.jpg","",""
"null","<div style=""font-size:60px;""> </div>","null","fixation","html-keyboard-response","356","1379724","0.0-6.0-0.50","3307916","co39571","norming","","","","","","",""
"null","../img/tt/436tt.jpg","null","mooney1","image-keyboard-response","357","1382726","0.0-6.0-1.50","3307916","co39571","norming","","","","","","",""
"5697.834999999031","","","post_mooney1_questions","survey-likert","358","1388427","0.0-6.0-2.50","3307916","co39571","norming","","","{""curiosity"":3,""confidence"":2}","[0,1]","../img/tt/436tt.jpg","",""
"2900.1050000078976","","","recognition","survey-text","359","1391333","0.0-6.0-3.50","3307916","co39571","norming","","","{""guess"":""Vis""}","","../img/tt/436tt.jpg","",""
"null","../img/gs/436gs.jpg","null","reveal","image-keyboard-response","360","1393334","0.0-6.0-4.50","3307916","co39571","norming","","","","","","",""
"null","../img/tt/436tt.jpg","null","mooney2","image-keyboard-response","361","1395336","0.0-6.0-5.50","3307916","co39571","norming","","","","","","",""
"2927.1450000233017","","","post_reveal_questions","survey-likert","362","1398266","0.0-6.0-6.50","3307916","co39571","norming","","","{""aha"":6}","[0]","../img/tt/436tt.jpg","",""
"null","<div style=""font-size:60px;""> </div>","null","fixation","html-keyboard-response","363","1398470","0.0-6.0-0.51","3307916","co39571","norming","","","","","","",""
"null","../img/tt/163tt.jpg","null","mooney1","image-keyboard-response","364","1401474","0.0-6.0-1.51","3307916","co39571","norming","","","","","","",""
"4454.584999999497","","","post_mooney1_questions","survey-likert","365","1405931","0.0-6.0-2.51","3307916","co39571","norming","","","{""curiosity"":4,""confidence"":4}","[0,1]","../img/tt/163tt.jpg","",""
"1465.360000001965","","","recognition","survey-text","366","1407402","0.0-6.0-3.51","3307916","co39571","norming","","","{""guess"":""Kikker""}","","../img/tt/163tt.jpg","",""
"null","../img/gs/163gs.jpg","null","reveal","image-keyboard-response","367","1409404","0.0-6.0-4.51","3307916","co39571","norming","","","","","","",""
"null","../img/tt/163tt.jpg","null","mooney2","image-keyboard-response","368","1411407","0.0-6.0-5.51","3307916","co39571","norming","","","","","","",""
"2992.579999990994","","","post_reveal_questions","survey-likert","369","1414403","0.0-6.0-6.51","3307916","co39571","norming","","","{""aha"":3}","[0]","../img/tt/163tt.jpg","",""
"null","<div style=""font-size:60px;""> </div>","null","fixation","html-keyboard-response","370","1414605","0.0-6.0-0.52","3307916","co39571","norming","","","","","","",""
"null","../img/tt/1227tt.jpg","null","mooney1","image-keyboard-response","371","1417608","0.0-6.0-1.52","3307916","co39571","norming","","","","","","",""
"6003.1700000108685","","","post_mooney1_questions","survey-likert","372","1423614","0.0-6.0-2.52","3307916","co39571","norming","","","{""curiosity"":6,""confidence"":0}","[0,1]","../img/tt/1227tt.jpg","",""
"544.9650000082329","","","recognition","survey-text","373","1424163","0.0-6.0-3.52","3307916","co39571","norming","","","{""guess"":""""}","","../img/tt/1227tt.jpg","",""
"null","../img/gs/1227gs.jpg","null","reveal","image-keyboard-response","374","1426165","0.0-6.0-4.52","3307916","co39571","norming","","","","","","",""
"null","../img/tt/1227tt.jpg","null","mooney2","image-keyboard-response","375","1428168","0.0-6.0-5.52","3307916","co39571","norming","","","","","","",""
"3979.6100000094157","","","post_reveal_questions","survey-likert","376","1432150","0.0-6.0-6.52","3307916","co39571","norming","","","{""aha"":4}","[0]","../img/tt/1227tt.jpg","",""
"null","<div style=""font-size:60px;""> </div>","null","fixation","html-keyboard-response","377","1432353","0.0-6.0-0.53","3307916","co39571","norming","","","","","","",""
"null","../img/tt/1053tt.jpg","null","mooney1","image-keyboard-response","378","1435356","0.0-6.0-1.53","3307916","co39571","norming","","","","","","",""
"5417.925000016112","","","post_mooney1_questions","survey-likert","379","1440777","0.0-6.0-2.53","3307916","co39571","norming","","","{""curiosity"":3,""confidence"":4}","[0,1]","../img/tt/1053tt.jpg","",""
"1586.4000000001397","","","recognition","survey-text","380","1442366","0.0-6.0-3.53","3307916","co39571","norming","","","{""guess"":""Koeien""}","","../img/tt/1053tt.jpg","",""
"null","../img/gs/1053gs.jpg","null","reveal","image-keyboard-response","381","1444368","0.0-6.0-4.53","3307916","co39571","norming","","","","","","",""
"null","../img/tt/1053tt.jpg","null","mooney2","image-keyboard-response","382","1446370","0.0-6.0-5.53","3307916","co39571","norming","","","","","","",""
"4025.29499999946","","","post_reveal_questions","survey-likert","383","1450398","0.0-6.0-6.53","3307916","co39571","norming","","","{""aha"":2}","[0]","../img/tt/1053tt.jpg","",""
"null","<div style=""font-size:60px;""> </div>","null","fixation","html-keyboard-response","384","1450600","0.0-6.0-0.54","3307916","co39571","norming","","","","","","",""
"null","../img/tt/118tt.jpg","null","mooney1","image-keyboard-response","385","1453603","0.0-6.0-1.54","3307916","co39571","norming","","","","","","",""
"8294.41499998211","","","post_mooney1_questions","survey-likert","386","1461901","0.0-6.0-2.54","3307916","co39571","norming","","","{""curiosity"":2,""confidence"":2}","[0,1]","../img/tt/118tt.jpg","",""
"3281.0149999859277","","","recognition","survey-text","387","1465186","0.0-6.0-3.54","3307916","co39571","norming","","","{""guess"":""Ladder""}","","../img/tt/118tt.jpg","",""
"null","../img/gs/118gs.jpg","null","reveal","image-keyboard-response","388","1467188","0.0-6.0-4.54","3307916","co39571","norming","","","","","","",""
"null","../img/tt/118tt.jpg","null","mooney2","image-keyboard-response","389","1469190","0.0-6.0-5.54","3307916","co39571","norming","","","","","","",""
"2881.2500000058208","","","post_reveal_questions","survey-likert","390","1472075","0.0-6.0-6.54","3307916","co39571","norming","","","{""aha"":6}","[0]","../img/tt/118tt.jpg","",""
"null","<div style=""font-size:60px;""> </div>","null","fixation","html-keyboard-response","391","1472278","0.0-6.0-0.55","3307916","co39571","norming","","","","","","",""
"null","../img/tt/044tt.jpg","null","mooney1","image-keyboard-response","392","1475282","0.0-6.0-1.55","3307916","co39571","norming","","","","","","",""
"4567.429999995511","","","post_mooney1_questions","survey-likert","393","1479852","0.0-6.0-2.55","3307916","co39571","norming","","","{""curiosity"":6,""confidence"":3}","[0,1]","../img/tt/044tt.jpg","",""
"1740.5849999922793","","","recognition","survey-text","394","1481597","0.0-6.0-3.55","3307916","co39571","norming","","","{""guess"":""Laptop""}","","../img/tt/044tt.jpg","",""
"null","../img/gs/044gs.jpg","null","reveal","image-keyboard-response","395","1483599","0.0-6.0-4.55","3307916","co39571","norming","","","","","","",""
"null","../img/tt/044tt.jpg","null","mooney2","image-keyboard-response","396","1485602","0.0-6.0-5.55","3307916","co39571","norming","","","","","","",""
"1841.2700000044424","","","post_reveal_questions","survey-likert","397","1487445","0.0-6.0-6.55","3307916","co39571","norming","","","{""aha"":5}","[0]","../img/tt/044tt.jpg","",""
"null","<div style=""font-size:60px;""> </div>","null","fixation","html-keyboard-response","398","1487648","0.0-6.0-0.56","3307916","co39571","norming","","","","","","",""
"null","../img/tt/076tt.jpg","null","mooney1","image-keyboard-response","399","1490650","0.0-6.0-1.56","3307916","co39571","norming","","","","","","",""
"91861.55499998131","","","post_mooney1_questions","survey-likert","400","1582514","0.0-6.0-2.56","3307916","co39571","norming","","","{""curiosity"":5,""confidence"":4}","[0,1]","../img/tt/076tt.jpg","",""
"4831.304999999702","","","recognition","survey-text","401","1587351","0.0-6.0-3.56","3307916","co39571","norming","","","{""guess"":""Rollerblade""}","","../img/tt/076tt.jpg","",""
"null","../img/gs/076gs.jpg","null","reveal","image-keyboard-response","402","1589353","0.0-6.0-4.56","3307916","co39571","norming","","","","","","",""
"null","../img/tt/076tt.jpg","null","mooney2","image-keyboard-response","403","1591356","0.0-6.0-5.56","3307916","co39571","norming","","","","","","",""
"3512.6450000097975","","","post_reveal_questions","survey-likert","404","1594871","0.0-6.0-6.56","3307916","co39571","norming","","","{""aha"":2}","[0]","../img/tt/076tt.jpg","",""
"null","<div style=""font-size:60px;""> </div>","null","fixation","html-keyboard-response","405","1595073","0.0-6.0-0.57","3307916","co39571","norming","","","","","","",""
"null","../img/tt/049tt.jpg","null","mooney1","image-keyboard-response","406","1598076","0.0-6.0-1.57","3307916","co39571","norming","","","","","","",""
"3843.3400000212714","","","post_mooney1_questions","survey-likert","407","1601923","0.0-6.0-2.57","3307916","co39571","norming","","","{""curiosity"":5,""confidence"":3}","[0,1]","../img/tt/049tt.jpg","",""
"3904.40500000841","","","recognition","survey-text","408","1605833","0.0-6.0-3.57","3307916","co39571","norming","","","{""guess"":""Muis / buidelrat""}","","../img/tt/049tt.jpg","",""
"null","../img/gs/049gs.jpg","null","reveal","image-keyboard-response","409","1607836","0.0-6.0-4.57","3307916","co39571","norming","","","","","","",""
"null","../img/tt/049tt.jpg","null","mooney2","image-keyboard-response","410","1609838","0.0-6.0-5.57","3307916","co39571","norming","","","","","","",""
"1759.1299999912735","","","post_reveal_questions","survey-likert","411","1611600","0.0-6.0-6.57","3307916","co39571","norming","","","{""aha"":3}","[0]","../img/tt/049tt.jpg","",""
"null","<div style=""font-size:60px;""> </div>","null","fixation","html-keyboard-response","412","1611803","0.0-6.0-0.58","3307916","co39571","norming","","","","","","",""
"null","../img/tt/010tt.jpg","null","mooney1","image-keyboard-response","413","1614806","0.0-6.0-1.58","3307916","co39571","norming","","","","","","",""
"5695.235000021057","","","post_mooney1_questions","survey-likert","414","1620505","0.0-6.0-2.58","3307916","co39571","norming","","","{""curiosity"":5,""confidence"":3}","[0,1]","../img/tt/010tt.jpg","",""
"5579.274999996414","","","recognition","survey-text","415","1626087","0.0-6.0-3.58","3307916","co39571","norming","","","{""guess"":""Staan op surfbord""}","","../img/tt/010tt.jpg","",""
"null","../img/gs/010gs.jpg","null","reveal","image-keyboard-response","416","1628089","0.0-6.0-4.58","3307916","co39571","norming","","","","","","",""
"null","../img/tt/010tt.jpg","null","mooney2","image-keyboard-response","417","1630093","0.0-6.0-5.58","3307916","co39571","norming","","","","","","",""
"4515.52499999525","","","post_reveal_questions","survey-likert","418","1634611","0.0-6.0-6.58","3307916","co39571","norming","","","{""aha"":5}","[0]","../img/tt/010tt.jpg","",""
"null","<div style=""font-size:60px;""> </div>","null","fixation","html-keyboard-response","419","1634814","0.0-6.0-0.59","3307916","co39571","norming","","","","","","",""
"null","../img/tt/1234tt.jpg","null","mooney1","image-keyboard-response","420","1637816","0.0-6.0-1.59","3307916","co39571","norming","","","","","","",""
"6010.834999993676","","","post_mooney1_questions","survey-likert","421","1643828","0.0-6.0-2.59","3307916","co39571","norming","","","{""curiosity"":5,""confidence"":2}","[0,1]","../img/tt/1234tt.jpg","",""
"6706.470000004629","","","recognition","survey-text","422","1650539","0.0-6.0-3.59","3307916","co39571","norming","","","{""guess"":""Kajakker / vrouw in boot""}","","../img/tt/1234tt.jpg","",""
"null","../img/gs/1234gs.jpg","null","reveal","image-keyboard-response","423","1652541","0.0-6.0-4.59","3307916","co39571","norming","","","","","","",""
"null","../img/tt/1234tt.jpg","null","mooney2","image-keyboard-response","424","1654543","0.0-6.0-5.59","3307916","co39571","norming","","","","","","",""
"4672.005000000354","","","post_reveal_questions","survey-likert","425","1659218","0.0-6.0-6.59","3307916","co39571","norming","","","{""aha"":6}","[0]","../img/tt/1234tt.jpg","",""
"null","<div style=""font-size:60px;""> </div>","null","fixation","html-keyboard-response","426","1659421","0.0-6.0-0.60","3307916","co39571","norming","","","","","","",""
"null","../img/tt/296tt.jpg","null","mooney1","image-keyboard-response","427","1662424","0.0-6.0-1.60","3307916","co39571","norming","","","","","","",""
"5027.079999999842","","","post_mooney1_questions","survey-likert","428","1667453","0.0-6.0-2.60","3307916","co39571","norming","","","{""curiosity"":5,""confidence"":0}","[0,1]","../img/tt/296tt.jpg","",""
"529.6199999866076","","","recognition","survey-text","429","1667985","0.0-6.0-3.60","3307916","co39571","norming","","","{""guess"":""""}","","../img/tt/296tt.jpg","",""
"null","../img/gs/296gs.jpg","null","reveal","image-keyboard-response","430","1669988","0.0-6.0-4.60","3307916","co39571","norming","","","","","","",""
"null","../img/tt/296tt.jpg","null","mooney2","image-keyboard-response","431","1671989","0.0-6.0-5.60","3307916","co39571","norming","","","","","","",""
"2113.9900000125635","","","post_reveal_questions","survey-likert","432","1674106","0.0-6.0-6.60","3307916","co39571","norming","","","{""aha"":2}","[0]","../img/tt/296tt.jpg","",""
"null","<div style=""font-size:60px;""> </div>","null","fixation","html-keyboard-response","433","1674308","0.0-6.0-0.61","3307916","co39571","norming","","","","","","",""
"null","../img/tt/1044tt.jpg","null","mooney1","image-keyboard-response","434","1677311","0.0-6.0-1.61","3307916","co39571","norming","","","","","","",""
"4777.069999981904","","","post_mooney1_questions","survey-likert","435","1682089","0.0-6.0-2.61","3307916","co39571","norming","","","{""curiosity"":2,""confidence"":5}","[0,1]","../img/tt/1044tt.jpg","",""
"3622.845000005327","","","recognition","survey-text","436","1685718","0.0-6.0-3.61","3307916","co39571","norming","","","{""guess"":""Giraf""}","","../img/tt/1044tt.jpg","",""
"null","../img/gs/1044gs.jpg","null","reveal","image-keyboard-response","437","1687721","0.0-6.0-4.61","3307916","co39571","norming","","","","","","",""
"null","../img/tt/1044tt.jpg","null","mooney2","image-keyboard-response","438","1689723","0.0-6.0-5.61","3307916","co39571","norming","","","","","","",""
"5716.269999975339","","","post_reveal_questions","survey-likert","439","1695442","0.0-6.0-6.61","3307916","co39571","norming","","","{""aha"":2}","[0]","../img/tt/1044tt.jpg","",""
"null","<div style=""font-size:60px;""> </div>","null","fixation","html-keyboard-response","440","1695644","0.0-6.0-0.62","3307916","co39571","norming","","","","","","",""
"null","../img/tt/318tt.jpg","null","mooney1","image-keyboard-response","441","1698647","0.0-6.0-1.62","3307916","co39571","norming","","","","","","",""
"7184.0399999928195","","","post_mooney1_questions","survey-likert","442","1705834","0.0-6.0-2.62","3307916","co39571","norming","","","{""curiosity"":2,""confidence"":2}","[0,1]","../img/tt/318tt.jpg","",""
"1100.8999999903608","","","recognition","survey-text","443","1706939","0.0-6.0-3.62","3307916","co39571","norming","","","{""guess"":""Anker""}","","../img/tt/318tt.jpg","",""
"null","../img/gs/318gs.jpg","null","reveal","image-keyboard-response","444","1708941","0.0-6.0-4.62","3307916","co39571","norming","","","","","","",""
"null","../img/tt/318tt.jpg","null","mooney2","image-keyboard-response","445","1710944","0.0-6.0-5.62","3307916","co39571","norming","","","","","","",""
"2393.68999999715","","","post_reveal_questions","survey-likert","446","1713341","0.0-6.0-6.62","3307916","co39571","norming","","","{""aha"":5}","[0]","../img/tt/318tt.jpg","",""
"null","<div style=""font-size:60px;""> </div>","null","fixation","html-keyboard-response","447","1713543","0.0-6.0-0.63","3307916","co39571","norming","","","","","","",""
"null","../img/tt/1309tt.jpg","null","mooney1","image-keyboard-response","448","1716551","0.0-6.0-1.63","3307916","co39571","norming","","","","","","",""
"7026.699999987613","","","post_mooney1_questions","survey-likert","449","1723581","0.0-6.0-2.63","3307916","co39571","norming","","","{""curiosity"":3,""confidence"":2}","[0,1]","../img/tt/1309tt.jpg","",""
"7055.889999988722","","","recognition","survey-text","450","1730641","0.0-6.0-3.63","3307916","co39571","norming","","","{""guess"":""Bos / auto in bos""}","","../img/tt/1309tt.jpg","",""
"null","../img/gs/1309gs.jpg","null","reveal","image-keyboard-response","451","1732643","0.0-6.0-4.63","3307916","co39571","norming","","","","","","",""
"null","../img/tt/1309tt.jpg","null","mooney2","image-keyboard-response","452","1734646","0.0-6.0-5.63","3307916","co39571","norming","","","","","","",""
"5280.5200000002515","","","post_reveal_questions","survey-likert","453","1739929","0.0-6.0-6.63","3307916","co39571","norming","","","{""aha"":3}","[0]","../img/tt/1309tt.jpg","",""
"null","<div style=""font-size:60px;""> </div>","null","fixation","html-keyboard-response","454","1740131","0.0-6.0-0.64","3307916","co39571","norming","","","","","","",""
"null","../img/tt/040tt.jpg","null","mooney1","image-keyboard-response","455","1743133","0.0-6.0-1.64","3307916","co39571","norming","","","","","","",""
"5503.785000008065","","","post_mooney1_questions","survey-likert","456","1748641","0.0-6.0-2.64","3307916","co39571","norming","","","{""curiosity"":6,""confidence"":0}","[0,1]","../img/tt/040tt.jpg","",""
"1602.4800000013784","","","recognition","survey-text","457","1750248","0.0-6.0-3.64","3307916","co39571","norming","","","{""guess"":""Hamster""}","","../img/tt/040tt.jpg","",""
"null","../img/gs/040gs.jpg","null","reveal","image-keyboard-response","458","1752251","0.0-6.0-4.64","3307916","co39571","norming","","","","","","",""
"null","../img/tt/040tt.jpg","null","mooney2","image-keyboard-response","459","1754254","0.0-6.0-5.64","3307916","co39571","norming","","","","","","",""
"2584.4100000103936","","","post_reveal_questions","survey-likert","460","1756840","0.0-6.0-6.64","3307916","co39571","norming","","","{""aha"":6}","[0]","../img/tt/040tt.jpg","",""
"null","<div style=""font-size:60px;""> </div>","null","fixation","html-keyboard-response","461","1757043","0.0-6.0-0.65","3307916","co39571","norming","","","","","","",""
"null","../img/tt/108tt.jpg","null","mooney1","image-keyboard-response","462","1760047","0.0-6.0-1.65","3307916","co39571","norming","","","","","","",""
"4100.5500000028405","","","post_mooney1_questions","survey-likert","463","1764150","0.0-6.0-2.65","3307916","co39571","norming","","","{""curiosity"":6,""confidence"":0}","[0,1]","../img/tt/108tt.jpg","",""
"274.55999999074265","","","recognition","survey-text","464","1764430","0.0-6.0-3.65","3307916","co39571","norming","","","{""guess"":""""}","","../img/tt/108tt.jpg","",""
"null","../img/gs/108gs.jpg","null","reveal","image-keyboard-response","465","1766431","0.0-6.0-4.65","3307916","co39571","norming","","","","","","",""
"null","../img/tt/108tt.jpg","null","mooney2","image-keyboard-response","466","1768433","0.0-6.0-5.65","3307916","co39571","norming","","","","","","",""
"3211.7399999988265","","","post_reveal_questions","survey-likert","467","1771647","0.0-6.0-6.65","3307916","co39571","norming","","","{""aha"":3}","[0]","../img/tt/108tt.jpg","",""
"null","<div style=""font-size:60px;""> </div>","null","fixation","html-keyboard-response","468","1771849","0.0-6.0-0.66","3307916","co39571","norming","","","","","","",""
"null","../img/tt/405tt.jpg","null","mooney1","image-keyboard-response","469","1774852","0.0-6.0-1.66","3307916","co39571","norming","","","","","","",""
"4231.660000019474","","","post_mooney1_questions","survey-likert","470","1779086","0.0-6.0-2.66","3307916","co39571","norming","","","{""curiosity"":5,""confidence"":1}","[0,1]","../img/tt/405tt.jpg","",""
"3866.4699999790173","","","recognition","survey-text","471","1782955","0.0-6.0-3.66","3307916","co39571","norming","","","{""guess"":""Leguaan""}","","../img/tt/405tt.jpg","",""
"null","../img/gs/405gs.jpg","null","reveal","image-keyboard-response","472","1784957","0.0-6.0-4.66","3307916","co39571","norming","","","","","","",""
"null","../img/tt/405tt.jpg","null","mooney2","image-keyboard-response","473","1786960","0.0-6.0-5.66","3307916","co39571","norming","","","","","","",""
"2481.3499999872874","","","post_reveal_questions","survey-likert","474","1789444","0.0-6.0-6.66","3307916","co39571","norming","","","{""aha"":6}","[0]","../img/tt/405tt.jpg","",""
"null","<div style=""font-size:60px;""> </div>","null","fixation","html-keyboard-response","475","1789648","0.0-6.0-0.67","3307916","co39571","norming","","","","","","",""
"null","../img/tt/1251tt.jpg","null","mooney1","image-keyboard-response","476","1792651","0.0-6.0-1.67","3307916","co39571","norming","","","","","","",""
"4672.105000005104","","","post_mooney1_questions","survey-likert","477","1797325","0.0-6.0-2.67","3307916","co39571","norming","","","{""curiosity"":4,""confidence"":4}","[0,1]","../img/tt/1251tt.jpg","",""
"1239.9100000038743","","","recognition","survey-text","478","1798568","0.0-6.0-3.67","3307916","co39571","norming","","","{""guess"":""Beer""}","","../img/tt/1251tt.jpg","",""
"null","../img/gs/1251gs.jpg","null","reveal","image-keyboard-response","479","1800571","0.0-6.0-4.67","3307916","co39571","norming","","","","","","",""
"null","../img/tt/1251tt.jpg","null","mooney2","image-keyboard-response","480","1802573","0.0-6.0-5.67","3307916","co39571","norming","","","","","","",""
"3549.0699999791104","","","post_reveal_questions","survey-likert","481","1806124","0.0-6.0-6.67","3307916","co39571","norming","","","{""aha"":2}","[0]","../img/tt/1251tt.jpg","",""
"null","<div style=""font-size:60px;""> </div>","null","fixation","html-keyboard-response","482","1806329","0.0-6.0-0.68","3307916","co39571","norming","","","","","","",""
"null","../img/tt/189tt.jpg","null","mooney1","image-keyboard-response","483","1809332","0.0-6.0-1.68","3307916","co39571","norming","","","","","","",""
"6848.220000014408","","","post_mooney1_questions","survey-likert","484","1816183","0.0-6.0-2.68","3307916","co39571","norming","","","{""curiosity"":5,""confidence"":1}","[0,1]","../img/tt/189tt.jpg","",""
"1002.1600000036415","","","recognition","survey-text","485","1817189","0.0-6.0-3.68","3307916","co39571","norming","","","{""guess"":""Zaag""}","","../img/tt/189tt.jpg","",""
"null","../img/gs/189gs.jpg","null","reveal","image-keyboard-response","486","1819192","0.0-6.0-4.68","3307916","co39571","norming","","","","","","",""
"null","../img/tt/189tt.jpg","null","mooney2","image-keyboard-response","487","1821194","0.0-6.0-5.68","3307916","co39571","norming","","","","","","",""
"2136.3249999994878","","","post_reveal_questions","survey-likert","488","1823333","0.0-6.0-6.68","3307916","co39571","norming","","","{""aha"":4}","[0]","../img/tt/189tt.jpg","",""
"null","<div style=""font-size:60px;""> </div>","null","fixation","html-keyboard-response","489","1823536","0.0-6.0-0.69","3307916","co39571","norming","","","","","","",""
"null","../img/tt/112tt.jpg","null","mooney1","image-keyboard-response","490","1826539","0.0-6.0-1.69","3307916","co39571","norming","","","","","","",""
"6470.570000004955","","","post_mooney1_questions","survey-likert","491","1833013","0.0-6.0-2.69","3307916","co39571","norming","","","{""curiosity"":5,""confidence"":1}","[0,1]","../img/tt/112tt.jpg","",""
"1636.690000013914","","","recognition","survey-text","492","1834654","0.0-6.0-3.69","3307916","co39571","norming","","","{""guess"":""Zakmes""}","","../img/tt/112tt.jpg","",""
"null","../img/gs/112gs.jpg","null","reveal","image-keyboard-response","493","1836656","0.0-6.0-4.69","3307916","co39571","norming","","","","","","",""
"null","../img/tt/112tt.jpg","null","mooney2","image-keyboard-response","494","1838659","0.0-6.0-5.69","3307916","co39571","norming","","","","","","",""
"3000.5050000036135","","","post_reveal_questions","survey-likert","495","1841661","0.0-6.0-6.69","3307916","co39571","norming","","","{""aha"":6}","[0]","../img/tt/112tt.jpg","",""
"null","<div style=""font-size:60px;""> </div>","null","fixation","html-keyboard-response","496","1841864","0.0-6.0-0.70","3307916","co39571","norming","","","","","","",""
"null","../img/tt/1247tt.jpg","null","mooney1","image-keyboard-response","497","1844867","0.0-6.0-1.70","3307916","co39571","norming","","","","","","",""
"5191.720000002533","","","post_mooney1_questions","survey-likert","498","1850062","0.0-6.0-2.70","3307916","co39571","norming","","","{""curiosity"":6,""confidence"":1}","[0,1]","../img/tt/1247tt.jpg","",""
"4823.875000001863","","","recognition","survey-text","499","1854891","0.0-6.0-3.70","3307916","co39571","norming","","","{""guess"":""Bananen""}","","../img/tt/1247tt.jpg","",""
"null","../img/gs/1247gs.jpg","null","reveal","image-keyboard-response","500","1856893","0.0-6.0-4.70","3307916","co39571","norming","","","","","","",""
"null","../img/tt/1247tt.jpg","null","mooney2","image-keyboard-response","501","1858896","0.0-6.0-5.70","3307916","co39571","norming","","","","","","",""
"3086.844999983441","","","post_reveal_questions","survey-likert","502","1861985","0.0-6.0-6.70","3307916","co39571","norming","","","{""aha"":6}","[0]","../img/tt/1247tt.jpg","",""
"null","<div style=""font-size:60px;""> </div>","null","fixation","html-keyboard-response","503","1862188","0.0-6.0-0.71","3307916","co39571","norming","","","","","","",""
"null","../img/tt/1004tt.jpg","null","mooney1","image-keyboard-response","504","1865191","0.0-6.0-1.71","3307916","co39571","norming","","","","","","",""
"4808.614999987185","","","post_mooney1_questions","survey-likert","505","1870002","0.0-6.0-2.71","3307916","co39571","norming","","","{""curiosity"":6,""confidence"":2}","[0,1]","../img/tt/1004tt.jpg","",""
"1715.4850000224542","","","recognition","survey-text","506","1871720","0.0-6.0-3.71","3307916","co39571","norming","","","{""guess"":""Cheeta""}","","../img/tt/1004tt.jpg","",""
"null","../img/gs/1004gs.jpg","null","reveal","image-keyboard-response","507","1873722","0.0-6.0-4.71","3307916","co39571","norming","","","","","","",""
"null","../img/tt/1004tt.jpg","null","mooney2","image-keyboard-response","508","1875725","0.0-6.0-5.71","3307916","co39571","norming","","","","","","",""
"3588.7449999863748","","","post_reveal_questions","survey-likert","509","1879315","0.0-6.0-6.71","3307916","co39571","norming","","","{""aha"":1}","[0]","../img/tt/1004tt.jpg","",""
"null","<div style=""font-size:60px;""> </div>","null","fixation","html-keyboard-response","510","1879518","0.0-6.0-0.72","3307916","co39571","norming","","","","","","",""
"null","../img/tt/1125tt.jpg","null","mooney1","image-keyboard-response","511","1882522","0.0-6.0-1.72","3307916","co39571","norming","","","","","","",""
"4157.330000016373","","","post_mooney1_questions","survey-likert","512","1886681","0.0-6.0-2.72","3307916","co39571","norming","","","{""curiosity"":6,""confidence"":0}","[0,1]","../img/tt/1125tt.jpg","",""
"2316.354999988107","","","recognition","survey-text","513","1889000","0.0-6.0-3.72","3307916","co39571","norming","","","{""guess"":""""}","","../img/tt/1125tt.jpg","",""
"null","../img/gs/1125gs.jpg","null","reveal","image-keyboard-response","514","1891001","0.0-6.0-4.72","3307916","co39571","norming","","","","","","",""
"null","../img/tt/1125tt.jpg","null","mooney2","image-keyboard-response","515","1893005","0.0-6.0-5.72","3307916","co39571","norming","","","","","","",""
"2728.9599999785423","","","post_reveal_questions","survey-likert","516","1895736","0.0-6.0-6.72","3307916","co39571","norming","","","{""aha"":4}","[0]","../img/tt/1125tt.jpg","",""
"null","<div style=""font-size:60px;""> </div>","null","fixation","html-keyboard-response","517","1895938","0.0-6.0-0.73","3307916","co39571","norming","","","","","","",""
"null","../img/tt/1236tt.jpg","null","mooney1","image-keyboard-response","518","1898941","0.0-6.0-1.73","3307916","co39571","norming","","","","","","",""
"5185.855000017909","","","post_mooney1_questions","survey-likert","519","1904130","0.0-6.0-2.73","3307916","co39571","norming","","","{""curiosity"":6,""confidence"":2}","[0,1]","../img/tt/1236tt.jpg","",""
"2455.0250000029337","","","recognition","survey-text","520","1906589","0.0-6.0-3.73","3307916","co39571","norming","","","{""guess"":""Vrouw met hoed""}","","../img/tt/1236tt.jpg","",""
"null","../img/gs/1236gs.jpg","null","reveal","image-keyboard-response","521","1908591","0.0-6.0-4.73","3307916","co39571","norming","","","","","","",""
"null","../img/tt/1236tt.jpg","null","mooney2","image-keyboard-response","522","1910594","0.0-6.0-5.73","3307916","co39571","norming","","","","","","",""
"2528.390000021318","","","post_reveal_questions","survey-likert","523","1913125","0.0-6.0-6.73","3307916","co39571","norming","","","{""aha"":4}","[0]","../img/tt/1236tt.jpg","",""
"null","<div style=""font-size:60px;""> </div>","null","fixation","html-keyboard-response","524","1913329","0.0-6.0-0.74","3307916","co39571","norming","","","","","","",""
"null","../img/tt/353tt.jpg","null","mooney1","image-keyboard-response","525","1916332","0.0-6.0-1.74","3307916","co39571","norming","","","","","","",""
"5877.355000004172","","","post_mooney1_questions","survey-likert","526","1922212","0.0-6.0-2.74","3307916","co39571","norming","","","{""curiosity"":5,""confidence"":1}","[0,1]","../img/tt/353tt.jpg","",""
"1704.0799999958836","","","recognition","survey-text","527","1923918","0.0-6.0-3.74","3307916","co39571","norming","","","{""guess"":""Penguin""}","","../img/tt/353tt.jpg","",""
"null","../img/gs/353gs.jpg","null","reveal","image-keyboard-response","528","1925920","0.0-6.0-4.74","3307916","co39571","norming","","","","","","",""
"null","../img/tt/353tt.jpg","null","mooney2","image-keyboard-response","529","1927922","0.0-6.0-5.74","3307916","co39571","norming","","","","","","",""
"3941.240000014659","","","post_reveal_questions","survey-likert","530","1931865","0.0-6.0-6.74","3307916","co39571","norming","","","{""aha"":4}","[0]","../img/tt/353tt.jpg","",""
"null","<div style=""font-size:60px;""> </div>","null","fixation","html-keyboard-response","531","1932068","0.0-6.0-0.75","3307916","co39571","norming","","","","","","",""
"null","../img/tt/1283tt.jpg","null","mooney1","image-keyboard-response","532","1935071","0.0-6.0-1.75","3307916","co39571","norming","","","","","","",""
"5706.3299999863375","","","post_mooney1_questions","survey-likert","533","1940781","0.0-6.0-2.75","3307916","co39571","norming","","","{""curiosity"":6,""confidence"":0}","[0,1]","../img/tt/1283tt.jpg","",""
"3204.475000005914","","","recognition","survey-text","534","1943990","0.0-6.0-3.75","3307916","co39571","norming","","","{""guess"":""Tijger""}","","../img/tt/1283tt.jpg","",""
"null","../img/gs/1283gs.jpg","null","reveal","image-keyboard-response","535","1945993","0.0-6.0-4.75","3307916","co39571","norming","","","","","","",""
"null","../img/tt/1283tt.jpg","null","mooney2","image-keyboard-response","536","1947995","0.0-6.0-5.75","3307916","co39571","norming","","","","","","",""
"6537.209999980405","","","post_reveal_questions","survey-likert","537","1954535","0.0-6.0-6.75","3307916","co39571","norming","","","{""aha"":5}","[0]","../img/tt/1283tt.jpg","",""
"null","<div style=""font-size:60px;""> </div>","null","fixation","html-keyboard-response","538","1954738","0.0-6.0-0.76","3307916","co39571","norming","","","","","","",""
"null","../img/tt/301tt.jpg","null","mooney1","image-keyboard-response","539","1957741","0.0-6.0-1.76","3307916","co39571","norming","","","","","","",""
"4329.105000011623","","","post_mooney1_questions","survey-likert","540","1962073","0.0-6.0-2.76","3307916","co39571","norming","","","{""curiosity"":6,""confidence"":0}","[0,1]","../img/tt/301tt.jpg","",""
"1927.1549999830313","","","recognition","survey-text","541","1964003","0.0-6.0-3.76","3307916","co39571","norming","","","{""guess"":""Trappen""}","","../img/tt/301tt.jpg","",""
"null","../img/gs/301gs.jpg","null","reveal","image-keyboard-response","542","1966006","0.0-6.0-4.76","3307916","co39571","norming","","","","","","",""
"null","../img/tt/301tt.jpg","null","mooney2","image-keyboard-response","543","1968008","0.0-6.0-5.76","3307916","co39571","norming","","","","","","",""
"2138.8300000107847","","","post_reveal_questions","survey-likert","544","1970150","0.0-6.0-6.76","3307916","co39571","norming","","","{""aha"":4}","[0]","../img/tt/301tt.jpg","",""
"null","<div style=""font-size:60px;""> </div>","null","fixation","html-keyboard-response","545","1970353","0.0-6.0-0.77","3307916","co39571","norming","","","","","","",""
"null","../img/tt/1006tt.jpg","null","mooney1","image-keyboard-response","546","1973356","0.0-6.0-1.77","3307916","co39571","norming","","","","","","",""
"4258.224999997765","","","post_mooney1_questions","survey-likert","547","1977617","0.0-6.0-2.77","3307916","co39571","norming","","","{""curiosity"":6,""confidence"":3}","[0,1]","../img/tt/1006tt.jpg","",""
"11373.495000007097","","","recognition","survey-text","548","1988995","0.0-6.0-3.77","3307916","co39571","norming","","","{""guess"":""Hooibergjes in weide""}","","../img/tt/1006tt.jpg","",""
"null","../img/gs/1006gs.jpg","null","reveal","image-keyboard-response","549","1990999","0.0-6.0-4.77","3307916","co39571","norming","","","","","","",""
"null","../img/tt/1006tt.jpg","null","mooney2","image-keyboard-response","550","1993000","0.0-6.0-5.77","3307916","co39571","norming","","","","","","",""
"1638.6399999901187","","","post_reveal_questions","survey-likert","551","1994641","0.0-6.0-6.77","3307916","co39571","norming","","","{""aha"":5}","[0]","../img/tt/1006tt.jpg","",""
