"rt","stimulus","key_press","test_part","trial_type","trial_index","time_elapsed","internal_node_id","totalTime","subject","experiment_name","button_pressed","success","responses","question_order","currentStim","old","correct"
"8669.9","Welcome to the experiment. This is an online experiment so please don't close the tab/window until we say goodbye.  Press any key to begin.","32","instructions","html-keyboard-response","0","8676","0.0-0.0","3024488","co39877","norming","","","","","","",""
"13260.699999999998","<div style='word-wrap: break-word; width: 900px'><h3>Please consider this information carefully before deciding whether to participate in this research</h3><ul style='text-align: left; font-size: .8em;'><li><b>Purpose of the research</b>: To examine how people process images.</li><li><b>What you will do in this research</b>:  Stimuli (images) will be presented on the computer and you will be asked different questions about them.</li><li><b>Time required</b>: Participation will take between 45 and 60 minutes to complete.</li><li><b>Risks</b>:  There are no anticipated risks associated with participating in this study. The effects of participating should be comparable to those you would experience from viewing a computer monitor for 30 minutes and using a mouse or keyboard.</li><li><b>Benefits</b>:  This study provides no benefits to you individually except for the credit. The study provides important information about the nature of perception and learning.</li><li><b>Confidentiality</b>:  Your participation in this study will remain confidential. No personally identifiable information will be associated with your data. Your de-identified data may be shared with other researchers and used in future projects.</li><li><b>Participation and withdrawal</b>:  Your participation in this study is completely voluntary and you may refuse to participate or you may choose to withdraw at any time without penalty.</li><li><b>How to contact the researchers</b>: If you have questions or concerns about your participation or payment, or want to request a summary of research findings, please contact Sander Van de Cruys (KU Leuven), at sander.vandecruys@kuleuven.be.</li></ul><p>The nature and purpose of this research have been sufficiently explained and I agree to participate in this study.  I understand that I am free to withdraw at any time without incurring any penalty.</p><p>Please consent by clicking the button below to continue. Otherwise, please exit the study at this time.</p></div>","","instructions","html-button-response","1","21950","0.0-1.0","3024488","co39877","norming","0","","","","","",""
"","","","instructions","fullscreen","2","27096","0.0-2.0","3024488","co39877","norming","","true","","","","",""
"30378.9","","","sona","survey-html-form","3","57488","0.0-3.0","3024488","co39877","norming","","","[{""name"":""sonaid"",""value"":""39877""},{""name"":""debrief"",""value"":""no""},{""name"":""datajoin"",""value"":""yes""}]","","","",""
"100754.8","<div style='word-wrap: break-word; width: 900px'><h3>Instructions</h3><p>This experiment will have 3 parts. In the first part you will see a series of distorted images like the one below on the left. As you can see in the righthand image, the distorted images are derived from actual photographs. In what follows, you will <strong>briefly</strong> be presented with <strong>only</strong> the distorted image.</p> <div style='float: left; margin-right: 20px;'><img src='../img/018tt.jpg' height='250' width='250'></img></div><div style='float: right; margin-left: 20px;'><img src='../img/018gs.jpg' height='250' width='250'></img></div><p>Subsequently you will be asked a few questions about the image: One question on how <strong>curious</strong> you are about the solution and one on how <strong>confident</strong> you are that you know the solution.</p>Next, we ask you to make a guess on what is in the image. Note that it is OK to name just the <strong>basic level category</strong>. For example when you see a parrot in the image, 'parrot' will obviously be a correct answer but also correct is 'bird'. However, 'animal' will <strong>not</strong> be counted as a correct response. For the example above, 'rose' would be correct or 'flower', but not 'plant'. When soccer players are depicted, 'soccer', 'football', 'soccer players' will be correct, but not 'humans', 'outdoors', or 'sports'. You do not need to describe the image in full, just name the main object in it <strong>in one or two words</strong>. All images depict objects from one of the following broad level categories: animals, inanimate objects, plants, sports, vehicles, and food. Recognizing means knowing <strong>more</strong> than these broad labels for a given image. But we always encourage you to <strong>make a guess</strong> if you can. Note that you are allowed to use <strong>Dutch and English</strong> in your answers, whatever comes easiest for you.</p><p>Press any key to continue.</p></div>","32","instructions","html-keyboard-response","4","158247","0.0-4.0","3024488","co39877","norming","","","","","","",""
"26401","<div style='word-wrap: break-word; width: 900px'><h3>Instructions</h3> <p>Next, the solution image will be revealed to you and you'll be asked to indicate how strong your <strong>aha-experience</strong> was after seeing the solution. This describes the positive feeling of the 'click' you sometimes experience, when the pieces of the 'puzzle' fall together and you suddenly have 'insight' in the image.</p><img src='aha.jpg' height='188' width='250'></img><p>Note that there are no right or wrong answers. We are interested in what <strong>you</strong> see in the image and how <strong>you</strong> feel about it.</p><p>Press any key to start the experiment.</p></div>","32","instructions","html-keyboard-response","5","184654","0.0-5.0","3024488","co39877","norming","","","","","","",""
"null","<div style=""font-size:60px;""> </div>","null","fixation","html-keyboard-response","6","184859","0.0-6.0-0.0","3024488","co39877","norming","","","","","","",""
"null","../img/tt/1227tt.jpg","null","mooney1","image-keyboard-response","7","187873","0.0-6.0-1.0","3024488","co39877","norming","","","","","","",""
"15138.399999999994","","","post_mooney1_questions","survey-likert","8","203015","0.0-6.0-2.0","3024488","co39877","norming","","","{""curiosity"":5,""confidence"":1}","[0,1]","../img/tt/1227tt.jpg","",""
"14272.5","","","recognition","survey-text","9","217295","0.0-6.0-3.0","3024488","co39877","norming","","","{""guess"":""bloemenhaag""}","","../img/tt/1227tt.jpg","",""
"null","../img/gs/1227gs.jpg","null","reveal","image-keyboard-response","10","219304","0.0-6.0-4.0","3024488","co39877","norming","","","","","","",""
"null","../img/tt/1227tt.jpg","null","mooney2","image-keyboard-response","11","221320","0.0-6.0-5.0","3024488","co39877","norming","","","","","","",""
"4968","","","post_reveal_questions","survey-likert","12","226293","0.0-6.0-6.0","3024488","co39877","norming","","","{""aha"":3}","[0]","../img/tt/1227tt.jpg","",""
"null","<div style=""font-size:60px;""> </div>","null","fixation","html-keyboard-response","13","226521","0.0-6.0-0.1","3024488","co39877","norming","","","","","","",""
"null","../img/tt/1053tt.jpg","null","mooney1","image-keyboard-response","14","229536","0.0-6.0-1.1","3024488","co39877","norming","","","","","","",""
"5221","","","post_mooney1_questions","survey-likert","15","234764","0.0-6.0-2.1","3024488","co39877","norming","","","{""curiosity"":1,""confidence"":5}","[0,1]","../img/tt/1053tt.jpg","",""
"5829.700000000012","","","recognition","survey-text","16","240599","0.0-6.0-3.1","3024488","co39877","norming","","","{""guess"":""koeien""}","","../img/tt/1053tt.jpg","",""
"null","../img/gs/1053gs.jpg","null","reveal","image-keyboard-response","17","242598","0.0-6.0-4.1","3024488","co39877","norming","","","","","","",""
"null","../img/tt/1053tt.jpg","null","mooney2","image-keyboard-response","18","244610","0.0-6.0-5.1","3024488","co39877","norming","","","","","","",""
"2357.100000000006","","","post_reveal_questions","survey-likert","19","246972","0.0-6.0-6.1","3024488","co39877","norming","","","{""aha"":1}","[0]","../img/tt/1053tt.jpg","",""
"null","<div style=""font-size:60px;""> </div>","null","fixation","html-keyboard-response","20","247188","0.0-6.0-0.2","3024488","co39877","norming","","","","","","",""
"null","../img/tt/405tt.jpg","null","mooney1","image-keyboard-response","21","250204","0.0-6.0-1.2","3024488","co39877","norming","","","","","","",""
"4722.399999999994","","","post_mooney1_questions","survey-likert","22","254933","0.0-6.0-2.2","3024488","co39877","norming","","","{""curiosity"":4,""confidence"":2}","[0,1]","../img/tt/405tt.jpg","",""
"4550.200000000041","","","recognition","survey-text","23","259487","0.0-6.0-3.2","3024488","co39877","norming","","","{""guess"":""een baby""}","","../img/tt/405tt.jpg","",""
"null","../img/gs/405gs.jpg","null","reveal","image-keyboard-response","24","261497","0.0-6.0-4.2","3024488","co39877","norming","","","","","","",""
"null","../img/tt/405tt.jpg","null","mooney2","image-keyboard-response","25","263512","0.0-6.0-5.2","3024488","co39877","norming","","","","","","",""
"2630.7999999999883","","","post_reveal_questions","survey-likert","26","266148","0.0-6.0-6.2","3024488","co39877","norming","","","{""aha"":5}","[0]","../img/tt/405tt.jpg","",""
"null","<div style=""font-size:60px;""> </div>","null","fixation","html-keyboard-response","27","266355","0.0-6.0-0.3","3024488","co39877","norming","","","","","","",""
"null","../img/tt/1151tt.jpg","null","mooney1","image-keyboard-response","28","269380","0.0-6.0-1.3","3024488","co39877","norming","","","","","","",""
"7852","","","post_mooney1_questions","survey-likert","29","277236","0.0-6.0-2.3","3024488","co39877","norming","","","{""curiosity"":5,""confidence"":0}","[0,1]","../img/tt/1151tt.jpg","",""
"8645.400000000023","","","recognition","survey-text","30","285886","0.0-6.0-3.3","3024488","co39877","norming","","","{""guess"":""wijnfles""}","","../img/tt/1151tt.jpg","",""
"null","../img/gs/1151gs.jpg","null","reveal","image-keyboard-response","31","287910","0.0-6.0-4.3","3024488","co39877","norming","","","","","","",""
"null","../img/tt/1151tt.jpg","null","mooney2","image-keyboard-response","32","289922","0.0-6.0-5.3","3024488","co39877","norming","","","","","","",""
"2979.5999999999767","","","post_reveal_questions","survey-likert","33","292908","0.0-6.0-6.3","3024488","co39877","norming","","","{""aha"":3}","[0]","../img/tt/1151tt.jpg","",""
"null","<div style=""font-size:60px;""> </div>","null","fixation","html-keyboard-response","34","293126","0.0-6.0-0.4","3024488","co39877","norming","","","","","","",""
"null","../img/tt/1270tt.jpg","null","mooney1","image-keyboard-response","35","296155","0.0-6.0-1.4","3024488","co39877","norming","","","","","","",""
"4507.899999999965","","","post_mooney1_questions","survey-likert","36","300668","0.0-6.0-2.4","3024488","co39877","norming","","","{""curiosity"":4,""confidence"":0}","[0,1]","../img/tt/1270tt.jpg","",""
"3765.399999999965","","","recognition","survey-text","37","304439","0.0-6.0-3.4","3024488","co39877","norming","","","{""guess"":""slager""}","","../img/tt/1270tt.jpg","",""
"null","../img/gs/1270gs.jpg","null","reveal","image-keyboard-response","38","306449","0.0-6.0-4.4","3024488","co39877","norming","","","","","","",""
"null","../img/tt/1270tt.jpg","null","mooney2","image-keyboard-response","39","308448","0.0-6.0-5.4","3024488","co39877","norming","","","","","","",""
"4215.299999999988","","","post_reveal_questions","survey-likert","40","312668","0.0-6.0-6.4","3024488","co39877","norming","","","{""aha"":4}","[0]","../img/tt/1270tt.jpg","",""
"null","<div style=""font-size:60px;""> </div>","null","fixation","html-keyboard-response","41","312869","0.0-6.0-0.5","3024488","co39877","norming","","","","","","",""
"null","../img/tt/1044tt.jpg","null","mooney1","image-keyboard-response","42","315884","0.0-6.0-1.5","3024488","co39877","norming","","","","","","",""
"5738.700000000012","","","post_mooney1_questions","survey-likert","43","321628","0.0-6.0-2.5","3024488","co39877","norming","","","{""curiosity"":3,""confidence"":1}","[0,1]","../img/tt/1044tt.jpg","",""
"2912.100000000035","","","recognition","survey-text","44","324544","0.0-6.0-3.5","3024488","co39877","norming","","","{""guess"":""koe""}","","../img/tt/1044tt.jpg","",""
"null","../img/gs/1044gs.jpg","null","reveal","image-keyboard-response","45","326555","0.0-6.0-4.5","3024488","co39877","norming","","","","","","",""
"null","../img/tt/1044tt.jpg","null","mooney2","image-keyboard-response","46","328556","0.0-6.0-5.5","3024488","co39877","norming","","","","","","",""
"4220.200000000012","","","post_reveal_questions","survey-likert","47","332780","0.0-6.0-6.5","3024488","co39877","norming","","","{""aha"":2}","[0]","../img/tt/1044tt.jpg","",""
"null","<div style=""font-size:60px;""> </div>","null","fixation","html-keyboard-response","48","333008","0.0-6.0-0.6","3024488","co39877","norming","","","","","","",""
"null","../img/tt/1089tt.jpg","null","mooney1","image-keyboard-response","49","336037","0.0-6.0-1.6","3024488","co39877","norming","","","","","","",""
"4377.900000000023","","","post_mooney1_questions","survey-likert","50","340420","0.0-6.0-2.6","3024488","co39877","norming","","","{""curiosity"":3,""confidence"":3}","[0,1]","../img/tt/1089tt.jpg","",""
"11047.099999999976","","","recognition","survey-text","51","351471","0.0-6.0-3.6","3024488","co39877","norming","","","{""guess"":""olifant""}","","../img/tt/1089tt.jpg","",""
"null","../img/gs/1089gs.jpg","null","reveal","image-keyboard-response","52","353485","0.0-6.0-4.6","3024488","co39877","norming","","","","","","",""
"null","../img/tt/1089tt.jpg","null","mooney2","image-keyboard-response","53","355501","0.0-6.0-5.6","3024488","co39877","norming","","","","","","",""
"2241.899999999965","","","post_reveal_questions","survey-likert","54","357748","0.0-6.0-6.6","3024488","co39877","norming","","","{""aha"":1}","[0]","../img/tt/1089tt.jpg","",""
"null","<div style=""font-size:60px;""> </div>","null","fixation","html-keyboard-response","55","357953","0.0-6.0-0.7","3024488","co39877","norming","","","","","","",""
"null","../img/tt/1037tt.jpg","null","mooney1","image-keyboard-response","56","360984","0.0-6.0-1.7","3024488","co39877","norming","","","","","","",""
"4335.200000000012","","","post_mooney1_questions","survey-likert","57","365325","0.0-6.0-2.7","3024488","co39877","norming","","","{""curiosity"":3,""confidence"":1}","[0,1]","../img/tt/1037tt.jpg","",""
"18717.099999999976","","","recognition","survey-text","58","384046","0.0-6.0-3.7","3024488","co39877","norming","","","{""guess"":""boomstam""}","","../img/tt/1037tt.jpg","",""
"null","../img/gs/1037gs.jpg","null","reveal","image-keyboard-response","59","386071","0.0-6.0-4.7","3024488","co39877","norming","","","","","","",""
"null","../img/tt/1037tt.jpg","null","mooney2","image-keyboard-response","60","388071","0.0-6.0-5.7","3024488","co39877","norming","","","","","","",""
"3227","","","post_reveal_questions","survey-likert","61","391302","0.0-6.0-6.7","3024488","co39877","norming","","","{""aha"":2}","[0]","../img/tt/1037tt.jpg","",""
"null","<div style=""font-size:60px;""> </div>","null","fixation","html-keyboard-response","62","391522","0.0-6.0-0.8","3024488","co39877","norming","","","","","","",""
"null","../img/tt/124tt.jpg","null","mooney1","image-keyboard-response","63","394554","0.0-6.0-1.8","3024488","co39877","norming","","","","","","",""
"4361.200000000012","","","post_mooney1_questions","survey-likert","64","398925","0.0-6.0-2.8","3024488","co39877","norming","","","{""curiosity"":3,""confidence"":2}","[0,1]","../img/tt/124tt.jpg","",""
"3596","","","recognition","survey-text","65","402526","0.0-6.0-3.8","3024488","co39877","norming","","","{""guess"":""koala""}","","../img/tt/124tt.jpg","",""
"null","../img/gs/124gs.jpg","null","reveal","image-keyboard-response","66","404537","0.0-6.0-4.8","3024488","co39877","norming","","","","","","",""
"null","../img/tt/124tt.jpg","null","mooney2","image-keyboard-response","67","406551","0.0-6.0-5.8","3024488","co39877","norming","","","","","","",""
"2741.6999999999534","","","post_reveal_questions","survey-likert","68","409300","0.0-6.0-6.8","3024488","co39877","norming","","","{""aha"":2}","[0]","../img/tt/124tt.jpg","",""
"null","<div style=""font-size:60px;""> </div>","null","fixation","html-keyboard-response","69","409519","0.0-6.0-0.9","3024488","co39877","norming","","","","","","",""
"null","../img/tt/418tt.jpg","null","mooney1","image-keyboard-response","70","412550","0.0-6.0-1.9","3024488","co39877","norming","","","","","","",""
"4896","","","post_mooney1_questions","survey-likert","71","417452","0.0-6.0-2.9","3024488","co39877","norming","","","{""curiosity"":4,""confidence"":1}","[0,1]","../img/tt/418tt.jpg","",""
"6721.5","","","recognition","survey-text","72","424179","0.0-6.0-3.9","3024488","co39877","norming","","","{""guess"":""slaapzakken""}","","../img/tt/418tt.jpg","",""
"null","../img/gs/418gs.jpg","null","reveal","image-keyboard-response","73","426203","0.0-6.0-4.9","3024488","co39877","norming","","","","","","",""
"null","../img/tt/418tt.jpg","null","mooney2","image-keyboard-response","74","428203","0.0-6.0-5.9","3024488","co39877","norming","","","","","","",""
"1886.2999999999883","","","post_reveal_questions","survey-likert","75","430093","0.0-6.0-6.9","3024488","co39877","norming","","","{""aha"":4}","[0]","../img/tt/418tt.jpg","",""
"null","<div style=""font-size:60px;""> </div>","null","fixation","html-keyboard-response","76","430296","0.0-6.0-0.10","3024488","co39877","norming","","","","","","",""
"null","../img/tt/1049tt.jpg","null","mooney1","image-keyboard-response","77","433318","0.0-6.0-1.10","3024488","co39877","norming","","","","","","",""
"4899.100000000035","","","post_mooney1_questions","survey-likert","78","438220","0.0-6.0-2.10","3024488","co39877","norming","","","{""curiosity"":5,""confidence"":0}","[0,1]","../img/tt/1049tt.jpg","",""
"3042.7000000000116","","","recognition","survey-text","79","441269","0.0-6.0-3.10","3024488","co39877","norming","","","{""guess"":""""}","","../img/tt/1049tt.jpg","",""
"null","../img/gs/1049gs.jpg","null","reveal","image-keyboard-response","80","443301","0.0-6.0-4.10","3024488","co39877","norming","","","","","","",""
"null","../img/tt/1049tt.jpg","null","mooney2","image-keyboard-response","81","445285","0.0-6.0-5.10","3024488","co39877","norming","","","","","","",""
"2945.100000000035","","","post_reveal_questions","survey-likert","82","448236","0.0-6.0-6.10","3024488","co39877","norming","","","{""aha"":4}","[0]","../img/tt/1049tt.jpg","",""
"null","<div style=""font-size:60px;""> </div>","null","fixation","html-keyboard-response","83","448443","0.0-6.0-0.11","3024488","co39877","norming","","","","","","",""
"null","../img/tt/1279tt.jpg","null","mooney1","image-keyboard-response","84","451471","0.0-6.0-1.11","3024488","co39877","norming","","","","","","",""
"5263.400000000023","","","post_mooney1_questions","survey-likert","85","456740","0.0-6.0-2.11","3024488","co39877","norming","","","{""curiosity"":4,""confidence"":2}","[0,1]","../img/tt/1279tt.jpg","",""
"9348.399999999965","","","recognition","survey-text","86","466094","0.0-6.0-3.11","3024488","co39877","norming","","","{""guess"":""bergen""}","","../img/tt/1279tt.jpg","",""
"null","../img/gs/1279gs.jpg","null","reveal","image-keyboard-response","87","468122","0.0-6.0-4.11","3024488","co39877","norming","","","","","","",""
"null","../img/tt/1279tt.jpg","null","mooney2","image-keyboard-response","88","470107","0.0-6.0-5.11","3024488","co39877","norming","","","","","","",""
"4036.100000000035","","","post_reveal_questions","survey-likert","89","474148","0.0-6.0-6.11","3024488","co39877","norming","","","{""aha"":2}","[0]","../img/tt/1279tt.jpg","",""
"null","<div style=""font-size:60px;""> </div>","null","fixation","html-keyboard-response","90","474357","0.0-6.0-0.12","3024488","co39877","norming","","","","","","",""
"null","../img/tt/063tt.jpg","null","mooney1","image-keyboard-response","91","477369","0.0-6.0-1.12","3024488","co39877","norming","","","","","","",""
"5473","","","post_mooney1_questions","survey-likert","92","482844","0.0-6.0-2.12","3024488","co39877","norming","","","{""curiosity"":3,""confidence"":3}","[0,1]","../img/tt/063tt.jpg","",""
"6781.099999999977","","","recognition","survey-text","93","489630","0.0-6.0-3.12","3024488","co39877","norming","","","{""guess"":""accordeon""}","","../img/tt/063tt.jpg","",""
"null","../img/gs/063gs.jpg","null","reveal","image-keyboard-response","94","491633","0.0-6.0-4.12","3024488","co39877","norming","","","","","","",""
"null","../img/tt/063tt.jpg","null","mooney2","image-keyboard-response","95","493635","0.0-6.0-5.12","3024488","co39877","norming","","","","","","",""
"1999.2999999999883","","","post_reveal_questions","survey-likert","96","495638","0.0-6.0-6.12","3024488","co39877","norming","","","{""aha"":1}","[0]","../img/tt/063tt.jpg","",""
"null","<div style=""font-size:60px;""> </div>","null","fixation","html-keyboard-response","97","495849","0.0-6.0-0.13","3024488","co39877","norming","","","","","","",""
"null","../img/tt/1146tt.jpg","null","mooney1","image-keyboard-response","98","498866","0.0-6.0-1.13","3024488","co39877","norming","","","","","","",""
"4780.5","","","post_mooney1_questions","survey-likert","99","503652","0.0-6.0-2.13","3024488","co39877","norming","","","{""curiosity"":2,""confidence"":4}","[0,1]","../img/tt/1146tt.jpg","",""
"7197.699999999953","","","recognition","survey-text","100","510854","0.0-6.0-3.13","3024488","co39877","norming","","","{""guess"":""boogschieter""}","","../img/tt/1146tt.jpg","",""
"null","../img/gs/1146gs.jpg","null","reveal","image-keyboard-response","101","512878","0.0-6.0-4.13","3024488","co39877","norming","","","","","","",""
"null","../img/tt/1146tt.jpg","null","mooney2","image-keyboard-response","102","514878","0.0-6.0-5.13","3024488","co39877","norming","","","","","","",""
"3163","","","post_reveal_questions","survey-likert","103","518044","0.0-6.0-6.13","3024488","co39877","norming","","","{""aha"":0}","[0]","../img/tt/1146tt.jpg","",""
"null","<div style=""font-size:60px;""> </div>","null","fixation","html-keyboard-response","104","518267","0.0-6.0-0.14","3024488","co39877","norming","","","","","","",""
"null","../img/tt/049tt.jpg","null","mooney1","image-keyboard-response","105","521299","0.0-6.0-1.14","3024488","co39877","norming","","","","","","",""
"5429.600000000093","","","post_mooney1_questions","survey-likert","106","526735","0.0-6.0-2.14","3024488","co39877","norming","","","{""curiosity"":3,""confidence"":1}","[0,1]","../img/tt/049tt.jpg","",""
"3049.9000000000233","","","recognition","survey-text","107","529789","0.0-6.0-3.14","3024488","co39877","norming","","","{""guess"":""steen""}","","../img/tt/049tt.jpg","",""
"null","../img/gs/049gs.jpg","null","reveal","image-keyboard-response","108","531811","0.0-6.0-4.14","3024488","co39877","norming","","","","","","",""
"null","../img/tt/049tt.jpg","null","mooney2","image-keyboard-response","109","533796","0.0-6.0-5.14","3024488","co39877","norming","","","","","","",""
"4108.599999999977","","","post_reveal_questions","survey-likert","110","537908","0.0-6.0-6.14","3024488","co39877","norming","","","{""aha"":4}","[0]","../img/tt/049tt.jpg","",""
"null","<div style=""font-size:60px;""> </div>","null","fixation","html-keyboard-response","111","538137","0.0-6.0-0.15","3024488","co39877","norming","","","","","","",""
"null","../img/tt/1255tt.jpg","null","mooney1","image-keyboard-response","112","541153","0.0-6.0-1.15","3024488","co39877","norming","","","","","","",""
"4999.399999999907","","","post_mooney1_questions","survey-likert","113","546156","0.0-6.0-2.15","3024488","co39877","norming","","","{""curiosity"":4,""confidence"":2}","[0,1]","../img/tt/1255tt.jpg","",""
"11795.79999999993","","","recognition","survey-text","114","557958","0.0-6.0-3.15","3024488","co39877","norming","","","{""guess"":""struisvogel""}","","../img/tt/1255tt.jpg","",""
"null","../img/gs/1255gs.jpg","null","reveal","image-keyboard-response","115","559961","0.0-6.0-4.15","3024488","co39877","norming","","","","","","",""
"null","../img/tt/1255tt.jpg","null","mooney2","image-keyboard-response","116","561961","0.0-6.0-5.15","3024488","co39877","norming","","","","","","",""
"2519.5","","","post_reveal_questions","survey-likert","117","564484","0.0-6.0-6.15","3024488","co39877","norming","","","{""aha"":5}","[0]","../img/tt/1255tt.jpg","",""
"null","<div style=""font-size:60px;""> </div>","null","fixation","html-keyboard-response","118","564711","0.0-6.0-0.16","3024488","co39877","norming","","","","","","",""
"null","../img/tt/046tt.jpg","null","mooney1","image-keyboard-response","119","567739","0.0-6.0-1.16","3024488","co39877","norming","","","","","","",""
"4461.20000000007","","","post_mooney1_questions","survey-likert","120","572205","0.0-6.0-2.16","3024488","co39877","norming","","","{""curiosity"":4,""confidence"":0}","[0,1]","../img/tt/046tt.jpg","",""
"5045.5","","","recognition","survey-text","121","577255","0.0-6.0-3.16","3024488","co39877","norming","","","{""guess"":""berg""}","","../img/tt/046tt.jpg","",""
"null","../img/gs/046gs.jpg","null","reveal","image-keyboard-response","122","579289","0.0-6.0-4.16","3024488","co39877","norming","","","","","","",""
"null","../img/tt/046tt.jpg","null","mooney2","image-keyboard-response","123","581282","0.0-6.0-5.16","3024488","co39877","norming","","","","","","",""
"3615.0999999999767","","","post_reveal_questions","survey-likert","124","584901","0.0-6.0-6.16","3024488","co39877","norming","","","{""aha"":5}","[0]","../img/tt/046tt.jpg","",""
"null","<div style=""font-size:60px;""> </div>","null","fixation","html-keyboard-response","125","585109","0.0-6.0-0.17","3024488","co39877","norming","","","","","","",""
"null","../img/tt/1275tt.jpg","null","mooney1","image-keyboard-response","126","588139","0.0-6.0-1.17","3024488","co39877","norming","","","","","","",""
"5653.199999999953","","","post_mooney1_questions","survey-likert","127","593796","0.0-6.0-2.17","3024488","co39877","norming","","","{""curiosity"":1,""confidence"":5}","[0,1]","../img/tt/1275tt.jpg","",""
"3917.20000000007","","","recognition","survey-text","128","597717","0.0-6.0-3.17","3024488","co39877","norming","","","{""guess"":""varken""}","","../img/tt/1275tt.jpg","",""
"null","../img/gs/1275gs.jpg","null","reveal","image-keyboard-response","129","599762","0.0-6.0-4.17","3024488","co39877","norming","","","","","","",""
"null","../img/tt/1275tt.jpg","null","mooney2","image-keyboard-response","130","601762","0.0-6.0-5.17","3024488","co39877","norming","","","","","","",""
"4766.70000000007","","","post_reveal_questions","survey-likert","131","606533","0.0-6.0-6.17","3024488","co39877","norming","","","{""aha"":1}","[0]","../img/tt/1275tt.jpg","",""
"null","<div style=""font-size:60px;""> </div>","null","fixation","html-keyboard-response","132","606760","0.0-6.0-0.18","3024488","co39877","norming","","","","","","",""
"null","../img/tt/580tt.jpg","null","mooney1","image-keyboard-response","133","609790","0.0-6.0-1.18","3024488","co39877","norming","","","","","","",""
"4869.5","","","post_mooney1_questions","survey-likert","134","614661","0.0-6.0-2.18","3024488","co39877","norming","","","{""curiosity"":5,""confidence"":0}","[0,1]","../img/tt/580tt.jpg","",""
"979.2000000000698","","","recognition","survey-text","135","615644","0.0-6.0-3.18","3024488","co39877","norming","","","{""guess"":""""}","","../img/tt/580tt.jpg","",""
"null","../img/gs/580gs.jpg","null","reveal","image-keyboard-response","136","617648","0.0-6.0-4.18","3024488","co39877","norming","","","","","","",""
"null","../img/tt/580tt.jpg","null","mooney2","image-keyboard-response","137","619647","0.0-6.0-5.18","3024488","co39877","norming","","","","","","",""
"2929.399999999907","","","post_reveal_questions","survey-likert","138","622580","0.0-6.0-6.18","3024488","co39877","norming","","","{""aha"":3}","[0]","../img/tt/580tt.jpg","",""
"null","<div style=""font-size:60px;""> </div>","null","fixation","html-keyboard-response","139","622804","0.0-6.0-0.19","3024488","co39877","norming","","","","","","",""
"null","../img/tt/1061tt.jpg","null","mooney1","image-keyboard-response","140","625817","0.0-6.0-1.19","3024488","co39877","norming","","","","","","",""
"5067.900000000023","","","post_mooney1_questions","survey-likert","141","630892","0.0-6.0-2.19","3024488","co39877","norming","","","{""curiosity"":2,""confidence"":4}","[0,1]","../img/tt/1061tt.jpg","",""
"3965.29999999993","","","recognition","survey-text","142","634862","0.0-6.0-3.19","3024488","co39877","norming","","","{""guess"":""surfers""}","","../img/tt/1061tt.jpg","",""
"null","../img/gs/1061gs.jpg","null","reveal","image-keyboard-response","143","636894","0.0-6.0-4.19","3024488","co39877","norming","","","","","","",""
"null","../img/tt/1061tt.jpg","null","mooney2","image-keyboard-response","144","638911","0.0-6.0-5.19","3024488","co39877","norming","","","","","","",""
"2979.100000000093","","","post_reveal_questions","survey-likert","145","641893","0.0-6.0-6.19","3024488","co39877","norming","","","{""aha"":4}","[0]","../img/tt/1061tt.jpg","",""
"null","<div style=""font-size:60px;""> </div>","null","fixation","html-keyboard-response","146","642096","0.0-6.0-0.20","3024488","co39877","norming","","","","","","",""
"null","../img/tt/1143tt.jpg","null","mooney1","image-keyboard-response","147","645125","0.0-6.0-1.20","3024488","co39877","norming","","","","","","",""
"5746.70000000007","","","post_mooney1_questions","survey-likert","148","650876","0.0-6.0-2.20","3024488","co39877","norming","","","{""curiosity"":2,""confidence"":3}","[0,1]","../img/tt/1143tt.jpg","",""
"9845.20000000007","","","recognition","survey-text","149","660725","0.0-6.0-3.20","3024488","co39877","norming","","","{""guess"":""binnenkant vliegtuig""}","","../img/tt/1143tt.jpg","",""
"null","../img/gs/1143gs.jpg","null","reveal","image-keyboard-response","150","662747","0.0-6.0-4.20","3024488","co39877","norming","","","","","","",""
"null","../img/tt/1143tt.jpg","null","mooney2","image-keyboard-response","151","664731","0.0-6.0-5.20","3024488","co39877","norming","","","","","","",""
"2133.6999999999534","","","post_reveal_questions","survey-likert","152","666868","0.0-6.0-6.20","3024488","co39877","norming","","","{""aha"":5}","[0]","../img/tt/1143tt.jpg","",""
"null","<div style=""font-size:60px;""> </div>","null","fixation","html-keyboard-response","153","667073","0.0-6.0-0.21","3024488","co39877","norming","","","","","","",""
"null","../img/tt/524tt.jpg","null","mooney1","image-keyboard-response","154","670080","0.0-6.0-1.21","3024488","co39877","norming","","","","","","",""
"3936.0999999999767","","","post_mooney1_questions","survey-likert","155","674020","0.0-6.0-2.21","3024488","co39877","norming","","","{""curiosity"":1,""confidence"":4}","[0,1]","../img/tt/524tt.jpg","",""
"3909.4000000000233","","","recognition","survey-text","156","677934","0.0-6.0-3.21","3024488","co39877","norming","","","{""guess"":""olifant""}","","../img/tt/524tt.jpg","",""
"null","../img/gs/524gs.jpg","null","reveal","image-keyboard-response","157","679951","0.0-6.0-4.21","3024488","co39877","norming","","","","","","",""
"null","../img/tt/524tt.jpg","null","mooney2","image-keyboard-response","158","681936","0.0-6.0-5.21","3024488","co39877","norming","","","","","","",""
"4224.399999999907","","","post_reveal_questions","survey-likert","159","686164","0.0-6.0-6.21","3024488","co39877","norming","","","{""aha"":4}","[0]","../img/tt/524tt.jpg","",""
"null","<div style=""font-size:60px;""> </div>","null","fixation","html-keyboard-response","160","686372","0.0-6.0-0.22","3024488","co39877","norming","","","","","","",""
"null","../img/tt/096tt.jpg","null","mooney1","image-keyboard-response","161","689404","0.0-6.0-1.22","3024488","co39877","norming","","","","","","",""
"4165","","","post_mooney1_questions","survey-likert","162","693572","0.0-6.0-2.22","3024488","co39877","norming","","","{""curiosity"":1,""confidence"":5}","[0,1]","../img/tt/096tt.jpg","",""
"3221.0999999999767","","","recognition","survey-text","163","696798","0.0-6.0-3.22","3024488","co39877","norming","","","{""guess"":""piano""}","","../img/tt/096tt.jpg","",""
"null","../img/gs/096gs.jpg","null","reveal","image-keyboard-response","164","698823","0.0-6.0-4.22","3024488","co39877","norming","","","","","","",""
"null","../img/tt/096tt.jpg","null","mooney2","image-keyboard-response","165","700822","0.0-6.0-5.22","3024488","co39877","norming","","","","","","",""
"2787.5","","","post_reveal_questions","survey-likert","166","703613","0.0-6.0-6.22","3024488","co39877","norming","","","{""aha"":0}","[0]","../img/tt/096tt.jpg","",""
"null","<div style=""font-size:60px;""> </div>","null","fixation","html-keyboard-response","167","703836","0.0-6.0-0.23","3024488","co39877","norming","","","","","","",""
"null","../img/tt/019tt.jpg","null","mooney1","image-keyboard-response","168","706852","0.0-6.0-1.23","3024488","co39877","norming","","","","","","",""
"3813.4000000000233","","","post_mooney1_questions","survey-likert","169","710669","0.0-6.0-2.23","3024488","co39877","norming","","","{""curiosity"":2,""confidence"":4}","[0,1]","../img/tt/019tt.jpg","",""
"4420.400000000023","","","recognition","survey-text","170","715094","0.0-6.0-3.23","3024488","co39877","norming","","","{""guess"":""vliegtuig""}","","../img/tt/019tt.jpg","",""
"null","../img/gs/019gs.jpg","null","reveal","image-keyboard-response","171","717100","0.0-6.0-4.23","3024488","co39877","norming","","","","","","",""
"null","../img/tt/019tt.jpg","null","mooney2","image-keyboard-response","172","719114","0.0-6.0-5.23","3024488","co39877","norming","","","","","","",""
"2390.9000000000233","","","post_reveal_questions","survey-likert","173","721508","0.0-6.0-6.23","3024488","co39877","norming","","","{""aha"":2}","[0]","../img/tt/019tt.jpg","",""
"null","<div style=""font-size:60px;""> </div>","null","fixation","html-keyboard-response","174","721723","0.0-6.0-0.24","3024488","co39877","norming","","","","","","",""
"null","../img/tt/1084tt.jpg","null","mooney1","image-keyboard-response","175","724754","0.0-6.0-1.24","3024488","co39877","norming","","","","","","",""
"3862.4000000000233","","","post_mooney1_questions","survey-likert","176","728620","0.0-6.0-2.24","3024488","co39877","norming","","","{""curiosity"":1,""confidence"":4}","[0,1]","../img/tt/1084tt.jpg","",""
"3341","","","recognition","survey-text","177","731965","0.0-6.0-3.24","3024488","co39877","norming","","","{""guess"":""taart""}","","../img/tt/1084tt.jpg","",""
"null","../img/gs/1084gs.jpg","null","reveal","image-keyboard-response","178","733986","0.0-6.0-4.24","3024488","co39877","norming","","","","","","",""
"null","../img/tt/1084tt.jpg","null","mooney2","image-keyboard-response","179","735970","0.0-6.0-5.24","3024488","co39877","norming","","","","","","",""
"3782.5","","","post_reveal_questions","survey-likert","180","739756","0.0-6.0-6.24","3024488","co39877","norming","","","{""aha"":1}","[0]","../img/tt/1084tt.jpg","",""
"null","<div style=""font-size:60px;""> </div>","null","fixation","html-keyboard-response","181","739985","0.0-6.0-0.25","3024488","co39877","norming","","","","","","",""
"null","../img/tt/1069tt.jpg","null","mooney1","image-keyboard-response","182","742991","0.0-6.0-1.25","3024488","co39877","norming","","","","","","",""
"4048.79999999993","","","post_mooney1_questions","survey-likert","183","747045","0.0-6.0-2.25","3024488","co39877","norming","","","{""curiosity"":4,""confidence"":1}","[0,1]","../img/tt/1069tt.jpg","",""
"3142","","","recognition","survey-text","184","750191","0.0-6.0-3.25","3024488","co39877","norming","","","{""guess"":""stal""}","","../img/tt/1069tt.jpg","",""
"null","../img/gs/1069gs.jpg","null","reveal","image-keyboard-response","185","752209","0.0-6.0-4.25","3024488","co39877","norming","","","","","","",""
"null","../img/tt/1069tt.jpg","null","mooney2","image-keyboard-response","186","754208","0.0-6.0-5.25","3024488","co39877","norming","","","","","","",""
"1920.8999999999068","","","post_reveal_questions","survey-likert","187","756133","0.0-6.0-6.25","3024488","co39877","norming","","","{""aha"":4}","[0]","../img/tt/1069tt.jpg","",""
"null","<div style=""font-size:60px;""> </div>","null","fixation","html-keyboard-response","188","756349","0.0-6.0-0.26","3024488","co39877","norming","","","","","","",""
"null","../img/tt/1205tt.jpg","null","mooney1","image-keyboard-response","189","759367","0.0-6.0-1.26","3024488","co39877","norming","","","","","","",""
"3625.20000000007","","","post_mooney1_questions","survey-likert","190","762997","0.0-6.0-2.26","3024488","co39877","norming","","","{""curiosity"":4,""confidence"":2}","[0,1]","../img/tt/1205tt.jpg","",""
"3859.5","","","recognition","survey-text","191","766862","0.0-6.0-3.26","3024488","co39877","norming","","","{""guess"":""concert""}","","../img/tt/1205tt.jpg","",""
"null","../img/gs/1205gs.jpg","null","reveal","image-keyboard-response","192","768882","0.0-6.0-4.26","3024488","co39877","norming","","","","","","",""
"null","../img/tt/1205tt.jpg","null","mooney2","image-keyboard-response","193","770881","0.0-6.0-5.26","3024488","co39877","norming","","","","","","",""
"7440.699999999953","","","post_reveal_questions","survey-likert","194","778325","0.0-6.0-6.26","3024488","co39877","norming","","","{""aha"":4}","[0]","../img/tt/1205tt.jpg","",""
"null","<div style=""font-size:60px;""> </div>","null","fixation","html-keyboard-response","195","778536","0.0-6.0-0.27","3024488","co39877","norming","","","","","","",""
"null","../img/tt/1004tt.jpg","null","mooney1","image-keyboard-response","196","781567","0.0-6.0-1.27","3024488","co39877","norming","","","","","","",""
"7513.900000000023","","","post_mooney1_questions","survey-likert","197","789085","0.0-6.0-2.27","3024488","co39877","norming","","","{""curiosity"":4,""confidence"":0}","[0,1]","../img/tt/1004tt.jpg","",""
"955.0999999999767","","","recognition","survey-text","198","790044","0.0-6.0-3.27","3024488","co39877","norming","","","{""guess"":""""}","","../img/tt/1004tt.jpg","",""
"null","../img/gs/1004gs.jpg","null","reveal","image-keyboard-response","199","792049","0.0-6.0-4.27","3024488","co39877","norming","","","","","","",""
"null","../img/tt/1004tt.jpg","null","mooney2","image-keyboard-response","200","794048","0.0-6.0-5.27","3024488","co39877","norming","","","","","","",""
"5665.099999999977","","","post_reveal_questions","survey-likert","201","799718","0.0-6.0-6.27","3024488","co39877","norming","","","{""aha"":4}","[0]","../img/tt/1004tt.jpg","",""
"null","<div style=""font-size:60px;""> </div>","null","fixation","html-keyboard-response","202","799922","0.0-6.0-0.28","3024488","co39877","norming","","","","","","",""
"null","../img/tt/135tt.jpg","null","mooney1","image-keyboard-response","203","802938","0.0-6.0-1.28","3024488","co39877","norming","","","","","","",""
"6124.099999999977","","","post_mooney1_questions","survey-likert","204","809068","0.0-6.0-2.28","3024488","co39877","norming","","","{""curiosity"":0,""confidence"":5}","[0,1]","../img/tt/135tt.jpg","",""
"3574.3000000000465","","","recognition","survey-text","205","812646","0.0-6.0-3.28","3024488","co39877","norming","","","{""guess"":""wc""}","","../img/tt/135tt.jpg","",""
"null","../img/gs/135gs.jpg","null","reveal","image-keyboard-response","206","814652","0.0-6.0-4.28","3024488","co39877","norming","","","","","","",""
"null","../img/tt/135tt.jpg","null","mooney2","image-keyboard-response","207","816652","0.0-6.0-5.28","3024488","co39877","norming","","","","","","",""
"2173.3000000000465","","","post_reveal_questions","survey-likert","208","818828","0.0-6.0-6.28","3024488","co39877","norming","","","{""aha"":0}","[0]","../img/tt/135tt.jpg","",""
"null","<div style=""font-size:60px;""> </div>","null","fixation","html-keyboard-response","209","819041","0.0-6.0-0.29","3024488","co39877","norming","","","","","","",""
"null","../img/tt/001tt.jpg","null","mooney1","image-keyboard-response","210","822071","0.0-6.0-1.29","3024488","co39877","norming","","","","","","",""
"3835.79999999993","","","post_mooney1_questions","survey-likert","211","825911","0.0-6.0-2.29","3024488","co39877","norming","","","{""curiosity"":2,""confidence"":4}","[0,1]","../img/tt/001tt.jpg","",""
"3577.79999999993","","","recognition","survey-text","212","829494","0.0-6.0-3.29","3024488","co39877","norming","","","{""guess"":""hond""}","","../img/tt/001tt.jpg","",""
"null","../img/gs/001gs.jpg","null","reveal","image-keyboard-response","213","831522","0.0-6.0-4.29","3024488","co39877","norming","","","","","","",""
"null","../img/tt/001tt.jpg","null","mooney2","image-keyboard-response","214","833506","0.0-6.0-5.29","3024488","co39877","norming","","","","","","",""
"3350.4000000000233","","","post_reveal_questions","survey-likert","215","836860","0.0-6.0-6.29","3024488","co39877","norming","","","{""aha"":5}","[0]","../img/tt/001tt.jpg","",""
"null","<div style=""font-size:60px;""> </div>","null","fixation","html-keyboard-response","216","837084","0.0-6.0-0.30","3024488","co39877","norming","","","","","","",""
"null","../img/tt/584tt.jpg","null","mooney1","image-keyboard-response","217","840099","0.0-6.0-1.30","3024488","co39877","norming","","","","","","",""
"7253.5","","","post_mooney1_questions","survey-likert","218","847357","0.0-6.0-2.30","3024488","co39877","norming","","","{""curiosity"":2,""confidence"":3}","[0,1]","../img/tt/584tt.jpg","",""
"3201.29999999993","","","recognition","survey-text","219","850565","0.0-6.0-3.30","3024488","co39877","norming","","","{""guess"":""bloem""}","","../img/tt/584tt.jpg","",""
"null","../img/gs/584gs.jpg","null","reveal","image-keyboard-response","220","852595","0.0-6.0-4.30","3024488","co39877","norming","","","","","","",""
"null","../img/tt/584tt.jpg","null","mooney2","image-keyboard-response","221","854581","0.0-6.0-5.30","3024488","co39877","norming","","","","","","",""
"1411.0999999999767","","","post_reveal_questions","survey-likert","222","855997","0.0-6.0-6.30","3024488","co39877","norming","","","{""aha"":0}","[0]","../img/tt/584tt.jpg","",""
"null","<div style=""font-size:60px;""> </div>","null","fixation","html-keyboard-response","223","856204","0.0-6.0-0.31","3024488","co39877","norming","","","","","","",""
"null","../img/tt/1078tt.jpg","null","mooney1","image-keyboard-response","224","859218","0.0-6.0-1.31","3024488","co39877","norming","","","","","","",""
"3888.4000000000233","","","post_mooney1_questions","survey-likert","225","863108","0.0-6.0-2.31","3024488","co39877","norming","","","{""curiosity"":1,""confidence"":3}","[0,1]","../img/tt/1078tt.jpg","",""
"6833.900000000023","","","recognition","survey-text","226","869951","0.0-6.0-3.31","3024488","co39877","norming","","","{""guess"":""schaatsers""}","","../img/tt/1078tt.jpg","",""
"null","../img/gs/1078gs.jpg","null","reveal","image-keyboard-response","227","871967","0.0-6.0-4.31","3024488","co39877","norming","","","","","","",""
"null","../img/tt/1078tt.jpg","null","mooney2","image-keyboard-response","228","873966","0.0-6.0-5.31","3024488","co39877","norming","","","","","","",""
"2947.3000000000465","","","post_reveal_questions","survey-likert","229","876916","0.0-6.0-6.31","3024488","co39877","norming","","","{""aha"":2}","[0]","../img/tt/1078tt.jpg","",""
"null","<div style=""font-size:60px;""> </div>","null","fixation","html-keyboard-response","230","877120","0.0-6.0-0.32","3024488","co39877","norming","","","","","","",""
"null","../img/tt/1181tt.jpg","null","mooney1","image-keyboard-response","231","880123","0.0-6.0-1.32","3024488","co39877","norming","","","","","","",""
"5263.29999999993","","","post_mooney1_questions","survey-likert","232","885389","0.0-6.0-2.32","3024488","co39877","norming","","","{""curiosity"":3,""confidence"":2}","[0,1]","../img/tt/1181tt.jpg","",""
"7949.099999999977","","","recognition","survey-text","233","893342","0.0-6.0-3.32","3024488","co39877","norming","","","{""guess"":""gitaarspelers""}","","../img/tt/1181tt.jpg","",""
"null","../img/gs/1181gs.jpg","null","reveal","image-keyboard-response","234","895367","0.0-6.0-4.32","3024488","co39877","norming","","","","","","",""
"null","../img/tt/1181tt.jpg","null","mooney2","image-keyboard-response","235","897351","0.0-6.0-5.32","3024488","co39877","norming","","","","","","",""
"1457.9000000000232","","","post_reveal_questions","survey-likert","236","898812","0.0-6.0-6.32","3024488","co39877","norming","","","{""aha"":1}","[0]","../img/tt/1181tt.jpg","",""
"null","<div style=""font-size:60px;""> </div>","null","fixation","html-keyboard-response","237","899021","0.0-6.0-0.33","3024488","co39877","norming","","","","","","",""
"null","../img/tt/412tt.jpg","null","mooney1","image-keyboard-response","238","902056","0.0-6.0-1.33","3024488","co39877","norming","","","","","","",""
"4696.900000000023","","","post_mooney1_questions","survey-likert","239","906757","0.0-6.0-2.33","3024488","co39877","norming","","","{""curiosity"":4,""confidence"":0}","[0,1]","../img/tt/412tt.jpg","",""
"835.3000000000466","","","recognition","survey-text","240","907596","0.0-6.0-3.33","3024488","co39877","norming","","","{""guess"":""""}","","../img/tt/412tt.jpg","",""
"null","../img/gs/412gs.jpg","null","reveal","image-keyboard-response","241","909613","0.0-6.0-4.33","3024488","co39877","norming","","","","","","",""
"null","../img/tt/412tt.jpg","null","mooney2","image-keyboard-response","242","911597","0.0-6.0-5.33","3024488","co39877","norming","","","","","","",""
"4523.099999999977","","","post_reveal_questions","survey-likert","243","916124","0.0-6.0-6.33","3024488","co39877","norming","","","{""aha"":0}","[0]","../img/tt/412tt.jpg","",""
"null","<div style=""font-size:60px;""> </div>","null","fixation","html-keyboard-response","244","916330","0.0-6.0-0.34","3024488","co39877","norming","","","","","","",""
"null","../img/tt/055tt.jpg","null","mooney1","image-keyboard-response","245","919344","0.0-6.0-1.34","3024488","co39877","norming","","","","","","",""
"3249.6999999999534","","","post_mooney1_questions","survey-likert","246","922597","0.0-6.0-2.34","3024488","co39877","norming","","","{""curiosity"":2,""confidence"":1}","[0,1]","../img/tt/055tt.jpg","",""
"4333.400000000023","","","recognition","survey-text","247","926934","0.0-6.0-3.34","3024488","co39877","norming","","","{""guess"":""bokser""}","","../img/tt/055tt.jpg","",""
"null","../img/gs/055gs.jpg","null","reveal","image-keyboard-response","248","928938","0.0-6.0-4.34","3024488","co39877","norming","","","","","","",""
"null","../img/tt/055tt.jpg","null","mooney2","image-keyboard-response","249","930938","0.0-6.0-5.34","3024488","co39877","norming","","","","","","",""
"2824.5","","","post_reveal_questions","survey-likert","250","933766","0.0-6.0-6.34","3024488","co39877","norming","","","{""aha"":2}","[0]","../img/tt/055tt.jpg","",""
"null","<div style=""font-size:60px;""> </div>","null","fixation","html-keyboard-response","251","933983","0.0-6.0-0.35","3024488","co39877","norming","","","","","","",""
"null","../img/tt/1366tt.jpg","null","mooney1","image-keyboard-response","252","936998","0.0-6.0-1.35","3024488","co39877","norming","","","","","","",""
"5520.300000000047","","","post_mooney1_questions","survey-likert","253","942524","0.0-6.0-2.35","3024488","co39877","norming","","","{""curiosity"":3,""confidence"":1}","[0,1]","../img/tt/1366tt.jpg","",""
"8390.100000000093","","","recognition","survey-text","254","950918","0.0-6.0-3.35","3024488","co39877","norming","","","{""guess"":""bed""}","","../img/tt/1366tt.jpg","",""
"null","../img/gs/1366gs.jpg","null","reveal","image-keyboard-response","255","952947","0.0-6.0-4.35","3024488","co39877","norming","","","","","","",""
"null","../img/tt/1366tt.jpg","null","mooney2","image-keyboard-response","256","954931","0.0-6.0-5.35","3024488","co39877","norming","","","","","","",""
"3741.1999999999534","","","post_reveal_questions","survey-likert","257","958676","0.0-6.0-6.35","3024488","co39877","norming","","","{""aha"":4}","[0]","../img/tt/1366tt.jpg","",""
"null","<div style=""font-size:60px;""> </div>","null","fixation","html-keyboard-response","258","958884","0.0-6.0-0.36","3024488","co39877","norming","","","","","","",""
"null","../img/tt/1188tt.jpg","null","mooney1","image-keyboard-response","259","961914","0.0-6.0-1.36","3024488","co39877","norming","","","","","","",""
"4207.400000000023","","","post_mooney1_questions","survey-likert","260","966125","0.0-6.0-2.36","3024488","co39877","norming","","","{""curiosity"":2,""confidence"":1}","[0,1]","../img/tt/1188tt.jpg","",""
"24814.20000000007","","","recognition","survey-text","261","990944","0.0-6.0-3.36","3024488","co39877","norming","","","{""guess"":""man""}","","../img/tt/1188tt.jpg","",""
"null","../img/gs/1188gs.jpg","null","reveal","image-keyboard-response","262","992954","0.0-6.0-4.36","3024488","co39877","norming","","","","","","",""
"null","../img/tt/1188tt.jpg","null","mooney2","image-keyboard-response","263","994954","0.0-6.0-5.36","3024488","co39877","norming","","","","","","",""
"1662.7000000000698","","","post_reveal_questions","survey-likert","264","996620","0.0-6.0-6.36","3024488","co39877","norming","","","{""aha"":4}","[0]","../img/tt/1188tt.jpg","",""
"null","<div style=""font-size:60px;""> </div>","null","fixation","html-keyboard-response","265","996828","0.0-6.0-0.37","3024488","co39877","norming","","","","","","",""
"null","../img/tt/1211tt.jpg","null","mooney1","image-keyboard-response","266","999842","0.0-6.0-1.37","3024488","co39877","norming","","","","","","",""
"4317.400000000023","","","post_mooney1_questions","survey-likert","267","1004164","0.0-6.0-2.37","3024488","co39877","norming","","","{""curiosity"":1,""confidence"":3}","[0,1]","../img/tt/1211tt.jpg","",""
"3765.20000000007","","","recognition","survey-text","268","1007933","0.0-6.0-3.37","3024488","co39877","norming","","","{""guess"":""waterval""}","","../img/tt/1211tt.jpg","",""
"null","../img/gs/1211gs.jpg","null","reveal","image-keyboard-response","269","1009934","0.0-6.0-4.37","3024488","co39877","norming","","","","","","",""
"null","../img/tt/1211tt.jpg","null","mooney2","image-keyboard-response","270","1011949","0.0-6.0-5.37","3024488","co39877","norming","","","","","","",""
"2522.4000000000233","","","post_reveal_questions","survey-likert","271","1014477","0.0-6.0-6.37","3024488","co39877","norming","","","{""aha"":4}","[0]","../img/tt/1211tt.jpg","",""
"null","<div style=""font-size:60px;""> </div>","null","fixation","html-keyboard-response","272","1014682","0.0-6.0-0.38","3024488","co39877","norming","","","","","","",""
"null","../img/tt/357tt.jpg","null","mooney1","image-keyboard-response","273","1017698","0.0-6.0-1.38","3024488","co39877","norming","","","","","","",""
"5062.599999999977","","","post_mooney1_questions","survey-likert","274","1022764","0.0-6.0-2.38","3024488","co39877","norming","","","{""curiosity"":2,""confidence"":1}","[0,1]","../img/tt/357tt.jpg","",""
"2981.9000000000233","","","recognition","survey-text","275","1025751","0.0-6.0-3.38","3024488","co39877","norming","","","{""guess"":""bloem""}","","../img/tt/357tt.jpg","",""
"null","../img/gs/357gs.jpg","null","reveal","image-keyboard-response","276","1027774","0.0-6.0-4.38","3024488","co39877","norming","","","","","","",""
"null","../img/tt/357tt.jpg","null","mooney2","image-keyboard-response","277","1029774","0.0-6.0-5.38","3024488","co39877","norming","","","","","","",""
"3132","","","post_reveal_questions","survey-likert","278","1032910","0.0-6.0-6.38","3024488","co39877","norming","","","{""aha"":3}","[0]","../img/tt/357tt.jpg","",""
"null","<div style=""font-size:60px;""> </div>","null","fixation","html-keyboard-response","279","1033132","0.0-6.0-0.39","3024488","co39877","norming","","","","","","",""
"null","../img/tt/1235tt.jpg","null","mooney1","image-keyboard-response","280","1036162","0.0-6.0-1.39","3024488","co39877","norming","","","","","","",""
"4991.400000000023","","","post_mooney1_questions","survey-likert","281","1041157","0.0-6.0-2.39","3024488","co39877","norming","","","{""curiosity"":3,""confidence"":4}","[0,1]","../img/tt/1235tt.jpg","",""
"3251.79999999993","","","recognition","survey-text","282","1044414","0.0-6.0-3.39","3024488","co39877","norming","","","{""guess"":""paard""}","","../img/tt/1235tt.jpg","",""
"null","../img/gs/1235gs.jpg","null","reveal","image-keyboard-response","283","1046433","0.0-6.0-4.39","3024488","co39877","norming","","","","","","",""
"null","../img/tt/1235tt.jpg","null","mooney2","image-keyboard-response","284","1048448","0.0-6.0-5.39","3024488","co39877","norming","","","","","","",""
"10249.100000000093","","","post_reveal_questions","survey-likert","285","1058702","0.0-6.0-6.39","3024488","co39877","norming","","","{""aha"":2}","[0]","../img/tt/1235tt.jpg","",""
"null","<div style=""font-size:60px;""> </div>","null","fixation","html-keyboard-response","286","1058919","0.0-6.0-0.40","3024488","co39877","norming","","","","","","",""
"null","../img/tt/1173tt.jpg","null","mooney1","image-keyboard-response","287","1061920","0.0-6.0-1.40","3024488","co39877","norming","","","","","","",""
"4744.90000000014","","","post_mooney1_questions","survey-likert","288","1066670","0.0-6.0-2.40","3024488","co39877","norming","","","{""curiosity"":2,""confidence"":4}","[0,1]","../img/tt/1173tt.jpg","",""
"3788.5","","","recognition","survey-text","289","1070462","0.0-6.0-3.40","3024488","co39877","norming","","","{""guess"":""volleybal""}","","../img/tt/1173tt.jpg","",""
"null","../img/gs/1173gs.jpg","null","reveal","image-keyboard-response","290","1072491","0.0-6.0-4.40","3024488","co39877","norming","","","","","","",""
"null","../img/tt/1173tt.jpg","null","mooney2","image-keyboard-response","291","1074475","0.0-6.0-5.40","3024488","co39877","norming","","","","","","",""
"3389","","","post_reveal_questions","survey-likert","292","1077869","0.0-6.0-6.40","3024488","co39877","norming","","","{""aha"":2}","[0]","../img/tt/1173tt.jpg","",""
"null","<div style=""font-size:60px;""> </div>","null","fixation","html-keyboard-response","293","1078073","0.0-6.0-0.41","3024488","co39877","norming","","","","","","",""
"null","../img/tt/1161tt.jpg","null","mooney1","image-keyboard-response","294","1081085","0.0-6.0-1.41","3024488","co39877","norming","","","","","","",""
"6066.800000000047","","","post_mooney1_questions","survey-likert","295","1087156","0.0-6.0-2.41","3024488","co39877","norming","","","{""curiosity"":2,""confidence"":3}","[0,1]","../img/tt/1161tt.jpg","",""
"6428.800000000047","","","recognition","survey-text","296","1093589","0.0-6.0-3.41","3024488","co39877","norming","","","{""guess"":""bergbeklimmer""}","","../img/tt/1161tt.jpg","",""
"null","../img/gs/1161gs.jpg","null","reveal","image-keyboard-response","297","1095595","0.0-6.0-4.41","3024488","co39877","norming","","","","","","",""
"null","../img/tt/1161tt.jpg","null","mooney2","image-keyboard-response","298","1097595","0.0-6.0-5.41","3024488","co39877","norming","","","","","","",""
"1780.8999999999068","","","post_reveal_questions","survey-likert","299","1099380","0.0-6.0-6.41","3024488","co39877","norming","","","{""aha"":2}","[0]","../img/tt/1161tt.jpg","",""
"null","<div style=""font-size:60px;""> </div>","null","fixation","html-keyboard-response","300","1099594","0.0-6.0-0.42","3024488","co39877","norming","","","","","","",""
"null","../img/tt/1261tt.jpg","null","mooney1","image-keyboard-response","301","1102609","0.0-6.0-1.42","3024488","co39877","norming","","","","","","",""
"4695.799999999814","","","post_mooney1_questions","survey-likert","302","1107309","0.0-6.0-2.42","3024488","co39877","norming","","","{""curiosity"":3,""confidence"":2}","[0,1]","../img/tt/1261tt.jpg","",""
"5444.600000000093","","","recognition","survey-text","303","1112757","0.0-6.0-3.42","3024488","co39877","norming","","","{""guess"":""hamsterkooi""}","","../img/tt/1261tt.jpg","",""
"null","../img/gs/1261gs.jpg","null","reveal","image-keyboard-response","304","1114779","0.0-6.0-4.42","3024488","co39877","norming","","","","","","",""
"null","../img/tt/1261tt.jpg","null","mooney2","image-keyboard-response","305","1116765","0.0-6.0-5.42","3024488","co39877","norming","","","","","","",""
"2331.5999999998603","","","post_reveal_questions","survey-likert","306","1119100","0.0-6.0-6.42","3024488","co39877","norming","","","{""aha"":3}","[0]","../img/tt/1261tt.jpg","",""
"null","<div style=""font-size:60px;""> </div>","null","fixation","html-keyboard-response","307","1119324","0.0-6.0-0.43","3024488","co39877","norming","","","","","","",""
"null","../img/tt/1237tt.jpg","null","mooney1","image-keyboard-response","308","1122338","0.0-6.0-1.43","3024488","co39877","norming","","","","","","",""
"6126.199999999953","","","post_mooney1_questions","survey-likert","309","1128468","0.0-6.0-2.43","3024488","co39877","norming","","","{""curiosity"":4,""confidence"":2}","[0,1]","../img/tt/1237tt.jpg","",""
"5526.699999999953","","","recognition","survey-text","310","1133999","0.0-6.0-3.43","3024488","co39877","norming","","","{""guess"":""vliegtuig""}","","../img/tt/1237tt.jpg","",""
"null","../img/gs/1237gs.jpg","null","reveal","image-keyboard-response","311","1136008","0.0-6.0-4.43","3024488","co39877","norming","","","","","","",""
"null","../img/tt/1237tt.jpg","null","mooney2","image-keyboard-response","312","1138007","0.0-6.0-5.43","3024488","co39877","norming","","","","","","",""
"2291.4000000001397","","","post_reveal_questions","survey-likert","313","1140301","0.0-6.0-6.43","3024488","co39877","norming","","","{""aha"":3}","[0]","../img/tt/1237tt.jpg","",""
"null","<div style=""font-size:60px;""> </div>","null","fixation","html-keyboard-response","314","1140507","0.0-6.0-0.44","3024488","co39877","norming","","","","","","",""
"null","../img/tt/1272tt.jpg","null","mooney1","image-keyboard-response","315","1143537","0.0-6.0-1.44","3024488","co39877","norming","","","","","","",""
"4759.09999999986","","","post_mooney1_questions","survey-likert","316","1148300","0.0-6.0-2.44","3024488","co39877","norming","","","{""curiosity"":4,""confidence"":0}","[0,1]","../img/tt/1272tt.jpg","",""
"899.2999999998137","","","recognition","survey-text","317","1149205","0.0-6.0-3.44","3024488","co39877","norming","","","{""guess"":""""}","","../img/tt/1272tt.jpg","",""
"null","../img/gs/1272gs.jpg","null","reveal","image-keyboard-response","318","1151223","0.0-6.0-4.44","3024488","co39877","norming","","","","","","",""
"null","../img/tt/1272tt.jpg","null","mooney2","image-keyboard-response","319","1153222","0.0-6.0-5.44","3024488","co39877","norming","","","","","","",""
"2210.6999999999534","","","post_reveal_questions","survey-likert","320","1155436","0.0-6.0-6.44","3024488","co39877","norming","","","{""aha"":5}","[0]","../img/tt/1272tt.jpg","",""
"null","<div style=""font-size:60px;""> </div>","null","fixation","html-keyboard-response","321","1155645","0.0-6.0-0.45","3024488","co39877","norming","","","","","","",""
"null","../img/tt/273tt.jpg","null","mooney1","image-keyboard-response","322","1158658","0.0-6.0-1.45","3024488","co39877","norming","","","","","","",""
"6639.5","","","post_mooney1_questions","survey-likert","323","1165301","0.0-6.0-2.45","3024488","co39877","norming","","","{""curiosity"":0,""confidence"":6}","[0,1]","../img/tt/273tt.jpg","",""
"3565.100000000093","","","recognition","survey-text","324","1168870","0.0-6.0-3.45","3024488","co39877","norming","","","{""guess"":""beugel""}","","../img/tt/273tt.jpg","",""
"null","../img/gs/273gs.jpg","null","reveal","image-keyboard-response","325","1170890","0.0-6.0-4.45","3024488","co39877","norming","","","","","","",""
"null","../img/tt/273tt.jpg","null","mooney2","image-keyboard-response","326","1172873","0.0-6.0-5.45","3024488","co39877","norming","","","","","","",""
"4185.40000000014","","","post_reveal_questions","survey-likert","327","1177061","0.0-6.0-6.45","3024488","co39877","norming","","","{""aha"":0}","[0]","../img/tt/273tt.jpg","",""
"null","<div style=""font-size:60px;""> </div>","null","fixation","html-keyboard-response","328","1177278","0.0-6.0-0.46","3024488","co39877","norming","","","","","","",""
"null","../img/tt/534tt.jpg","null","mooney1","image-keyboard-response","329","1180311","0.0-6.0-1.46","3024488","co39877","norming","","","","","","",""
"5280.199999999953","","","post_mooney1_questions","survey-likert","330","1185596","0.0-6.0-2.46","3024488","co39877","norming","","","{""curiosity"":2,""confidence"":3}","[0,1]","../img/tt/534tt.jpg","",""
"3502","","","recognition","survey-text","331","1189102","0.0-6.0-3.46","3024488","co39877","norming","","","{""guess"":""cactus""}","","../img/tt/534tt.jpg","",""
"null","../img/gs/534gs.jpg","null","reveal","image-keyboard-response","332","1191135","0.0-6.0-4.46","3024488","co39877","norming","","","","","","",""
"null","../img/tt/534tt.jpg","null","mooney2","image-keyboard-response","333","1193134","0.0-6.0-5.46","3024488","co39877","norming","","","","","","",""
"2807.899999999907","","","post_reveal_questions","survey-likert","334","1195948","0.0-6.0-6.46","3024488","co39877","norming","","","{""aha"":1}","[0]","../img/tt/534tt.jpg","",""
"null","<div style=""font-size:60px;""> </div>","null","fixation","html-keyboard-response","335","1196168","0.0-6.0-0.47","3024488","co39877","norming","","","","","","",""
"null","../img/tt/436tt.jpg","null","mooney1","image-keyboard-response","336","1199172","0.0-6.0-1.47","3024488","co39877","norming","","","","","","",""
"9949","","","post_mooney1_questions","survey-likert","337","1209125","0.0-6.0-2.47","3024488","co39877","norming","","","{""curiosity"":1,""confidence"":4}","[0,1]","../img/tt/436tt.jpg","",""
"5163.100000000093","","","recognition","survey-text","338","1214294","0.0-6.0-3.47","3024488","co39877","norming","","","{""guess"":""leguaan""}","","../img/tt/436tt.jpg","",""
"null","../img/gs/436gs.jpg","null","reveal","image-keyboard-response","339","1216323","0.0-6.0-4.47","3024488","co39877","norming","","","","","","",""
"null","../img/tt/436tt.jpg","null","mooney2","image-keyboard-response","340","1218308","0.0-6.0-5.47","3024488","co39877","norming","","","","","","",""
"3564.6999999999534","","","post_reveal_questions","survey-likert","341","1221876","0.0-6.0-6.47","3024488","co39877","norming","","","{""aha"":0}","[0]","../img/tt/436tt.jpg","",""
"null","<div style=""font-size:60px;""> </div>","null","fixation","html-keyboard-response","342","1222104","0.0-6.0-0.48","3024488","co39877","norming","","","","","","",""
"null","../img/tt/1243tt.jpg","null","mooney1","image-keyboard-response","343","1225134","0.0-6.0-1.48","3024488","co39877","norming","","","","","","",""
"4771.700000000186","","","post_mooney1_questions","survey-likert","344","1229910","0.0-6.0-2.48","3024488","co39877","norming","","","{""curiosity"":1,""confidence"":4}","[0,1]","../img/tt/1243tt.jpg","",""
"4027.5","","","recognition","survey-text","345","1233942","0.0-6.0-3.48","3024488","co39877","norming","","","{""guess"":""gorilla""}","","../img/tt/1243tt.jpg","",""
"null","../img/gs/1243gs.jpg","null","reveal","image-keyboard-response","346","1235976","0.0-6.0-4.48","3024488","co39877","norming","","","","","","",""
"null","../img/tt/1243tt.jpg","null","mooney2","image-keyboard-response","347","1237975","0.0-6.0-5.48","3024488","co39877","norming","","","","","","",""
"4217.800000000047","","","post_reveal_questions","survey-likert","348","1242196","0.0-6.0-6.48","3024488","co39877","norming","","","{""aha"":4}","[0]","../img/tt/1243tt.jpg","",""
"null","<div style=""font-size:60px;""> </div>","null","fixation","html-keyboard-response","349","1242411","0.0-6.0-0.49","3024488","co39877","norming","","","","","","",""
"null","../img/tt/1125tt.jpg","null","mooney1","image-keyboard-response","350","1245426","0.0-6.0-1.49","3024488","co39877","norming","","","","","","",""
"8589.800000000046","","","post_mooney1_questions","survey-likert","351","1254020","0.0-6.0-2.49","3024488","co39877","norming","","","{""curiosity"":4,""confidence"":2}","[0,1]","../img/tt/1125tt.jpg","",""
"3565.3000000000465","","","recognition","survey-text","352","1257590","0.0-6.0-3.49","3024488","co39877","norming","","","{""guess"":""kindje""}","","../img/tt/1125tt.jpg","",""
"null","../img/gs/1125gs.jpg","null","reveal","image-keyboard-response","353","1259611","0.0-6.0-4.49","3024488","co39877","norming","","","","","","",""
"null","../img/tt/1125tt.jpg","null","mooney2","image-keyboard-response","354","1261595","0.0-6.0-5.49","3024488","co39877","norming","","","","","","",""
"4413.699999999953","","","post_reveal_questions","survey-likert","355","1266012","0.0-6.0-6.49","3024488","co39877","norming","","","{""aha"":3}","[0]","../img/tt/1125tt.jpg","",""
"null","<div style=""font-size:60px;""> </div>","null","fixation","html-keyboard-response","356","1266222","0.0-6.0-0.50","3024488","co39877","norming","","","","","","",""
"null","../img/tt/060tt.jpg","null","mooney1","image-keyboard-response","357","1269225","0.0-6.0-1.50","3024488","co39877","norming","","","","","","",""
"5654.199999999953","","","post_mooney1_questions","survey-likert","358","1274884","0.0-6.0-2.50","3024488","co39877","norming","","","{""curiosity"":4,""confidence"":1}","[0,1]","../img/tt/060tt.jpg","",""
"5205.800000000047","","","recognition","survey-text","359","1280094","0.0-6.0-3.50","3024488","co39877","norming","","","{""guess"":""autospiegel""}","","../img/tt/060tt.jpg","",""
"null","../img/gs/060gs.jpg","null","reveal","image-keyboard-response","360","1282114","0.0-6.0-4.50","3024488","co39877","norming","","","","","","",""
"null","../img/tt/060tt.jpg","null","mooney2","image-keyboard-response","361","1284097","0.0-6.0-5.50","3024488","co39877","norming","","","","","","",""
"2734.7000000001862","","","post_reveal_questions","survey-likert","362","1286837","0.0-6.0-6.50","3024488","co39877","norming","","","{""aha"":2}","[0]","../img/tt/060tt.jpg","",""
"null","<div style=""font-size:60px;""> </div>","null","fixation","html-keyboard-response","363","1287065","0.0-6.0-0.51","3024488","co39877","norming","","","","","","",""
"null","../img/tt/358tt.jpg","null","mooney1","image-keyboard-response","364","1290116","0.0-6.0-1.51","3024488","co39877","norming","","","","","","",""
"4156.600000000093","","","post_mooney1_questions","survey-likert","365","1294277","0.0-6.0-2.51","3024488","co39877","norming","","","{""curiosity"":1,""confidence"":5}","[0,1]","../img/tt/358tt.jpg","",""
"3260.0999999998603","","","recognition","survey-text","366","1297542","0.0-6.0-3.51","3024488","co39877","norming","","","{""guess"":""hond""}","","../img/tt/358tt.jpg","",""
"null","../img/gs/358gs.jpg","null","reveal","image-keyboard-response","367","1299568","0.0-6.0-4.51","3024488","co39877","norming","","","","","","",""
"null","../img/tt/358tt.jpg","null","mooney2","image-keyboard-response","368","1301550","0.0-6.0-5.51","3024488","co39877","norming","","","","","","",""
"2282.899999999907","","","post_reveal_questions","survey-likert","369","1303837","0.0-6.0-6.51","3024488","co39877","norming","","","{""aha"":5}","[0]","../img/tt/358tt.jpg","",""
"null","<div style=""font-size:60px;""> </div>","null","fixation","html-keyboard-response","370","1304065","0.0-6.0-0.52","3024488","co39877","norming","","","","","","",""
"null","../img/tt/189tt.jpg","null","mooney1","image-keyboard-response","371","1307096","0.0-6.0-1.52","3024488","co39877","norming","","","","","","",""
"6071.800000000047","","","post_mooney1_questions","survey-likert","372","1313173","0.0-6.0-2.52","3024488","co39877","norming","","","{""curiosity"":3,""confidence"":2}","[0,1]","../img/tt/189tt.jpg","",""
"3779.899999999907","","","recognition","survey-text","373","1316958","0.0-6.0-3.52","3024488","co39877","norming","","","{""guess"":""vogel""}","","../img/tt/189tt.jpg","",""
"null","../img/gs/189gs.jpg","null","reveal","image-keyboard-response","374","1318983","0.0-6.0-4.52","3024488","co39877","norming","","","","","","",""
"null","../img/tt/189tt.jpg","null","mooney2","image-keyboard-response","375","1320967","0.0-6.0-5.52","3024488","co39877","norming","","","","","","",""
"1512.8000000000465","","","post_reveal_questions","survey-likert","376","1322484","0.0-6.0-6.52","3024488","co39877","norming","","","{""aha"":3}","[0]","../img/tt/189tt.jpg","",""
"null","<div style=""font-size:60px;""> </div>","null","fixation","html-keyboard-response","377","1322700","0.0-6.0-0.53","3024488","co39877","norming","","","","","","",""
"null","../img/tt/112tt.jpg","null","mooney1","image-keyboard-response","378","1325731","0.0-6.0-1.53","3024488","co39877","norming","","","","","","",""
"5927.699999999953","","","post_mooney1_questions","survey-likert","379","1331661","0.0-6.0-2.53","3024488","co39877","norming","","","{""curiosity"":4,""confidence"":2}","[0,1]","../img/tt/112tt.jpg","",""
"4125.5","","","recognition","survey-text","380","1335791","0.0-6.0-3.53","3024488","co39877","norming","","","{""guess"":""pinguin""}","","../img/tt/112tt.jpg","",""
"null","../img/gs/112gs.jpg","null","reveal","image-keyboard-response","381","1337824","0.0-6.0-4.53","3024488","co39877","norming","","","","","","",""
"null","../img/tt/112tt.jpg","null","mooney2","image-keyboard-response","382","1339823","0.0-6.0-5.53","3024488","co39877","norming","","","","","","",""
"4146.399999999907","","","post_reveal_questions","survey-likert","383","1343973","0.0-6.0-6.53","3024488","co39877","norming","","","{""aha"":3}","[0]","../img/tt/112tt.jpg","",""
"null","<div style=""font-size:60px;""> </div>","null","fixation","html-keyboard-response","384","1344196","0.0-6.0-0.54","3024488","co39877","norming","","","","","","",""
"null","../img/tt/1126tt.jpg","null","mooney1","image-keyboard-response","385","1347205","0.0-6.0-1.54","3024488","co39877","norming","","","","","","",""
"3973.7999999998137","","","post_mooney1_questions","survey-likert","386","1351181","0.0-6.0-2.54","3024488","co39877","norming","","","{""curiosity"":4,""confidence"":3}","[0,1]","../img/tt/1126tt.jpg","",""
"3373.399999999907","","","recognition","survey-text","387","1354558","0.0-6.0-3.54","3024488","co39877","norming","","","{""guess"":""berg""}","","../img/tt/1126tt.jpg","",""
"null","../img/gs/1126gs.jpg","null","reveal","image-keyboard-response","388","1356563","0.0-6.0-4.54","3024488","co39877","norming","","","","","","",""
"null","../img/tt/1126tt.jpg","null","mooney2","image-keyboard-response","389","1358565","0.0-6.0-5.54","3024488","co39877","norming","","","","","","",""
"2747.3000000000465","","","post_reveal_questions","survey-likert","390","1361316","0.0-6.0-6.54","3024488","co39877","norming","","","{""aha"":2}","[0]","../img/tt/1126tt.jpg","",""
"null","<div style=""font-size:60px;""> </div>","null","fixation","html-keyboard-response","391","1361531","0.0-6.0-0.55","3024488","co39877","norming","","","","","","",""
"null","../img/tt/1234tt.jpg","null","mooney1","image-keyboard-response","392","1364546","0.0-6.0-1.55","3024488","co39877","norming","","","","","","",""
"4974.899999999907","","","post_mooney1_questions","survey-likert","393","1369524","0.0-6.0-2.55","3024488","co39877","norming","","","{""curiosity"":4,""confidence"":1}","[0,1]","../img/tt/1234tt.jpg","",""
"909.5","","","recognition","survey-text","394","1370439","0.0-6.0-3.55","3024488","co39877","norming","","","{""guess"":""""}","","../img/tt/1234tt.jpg","",""
"null","../img/gs/1234gs.jpg","null","reveal","image-keyboard-response","395","1372466","0.0-6.0-4.55","3024488","co39877","norming","","","","","","",""
"null","../img/tt/1234tt.jpg","null","mooney2","image-keyboard-response","396","1374449","0.0-6.0-5.55","3024488","co39877","norming","","","","","","",""
"4224.09999999986","","","post_reveal_questions","survey-likert","397","1378676","0.0-6.0-6.55","3024488","co39877","norming","","","{""aha"":4}","[0]","../img/tt/1234tt.jpg","",""
"null","<div style=""font-size:60px;""> </div>","null","fixation","html-keyboard-response","398","1378886","0.0-6.0-0.56","3024488","co39877","norming","","","","","","",""
"null","../img/tt/140tt.jpg","null","mooney1","image-keyboard-response","399","1381917","0.0-6.0-1.56","3024488","co39877","norming","","","","","","",""
"4098.399999999907","","","post_mooney1_questions","survey-likert","400","1386021","0.0-6.0-2.56","3024488","co39877","norming","","","{""curiosity"":0,""confidence"":6}","[0,1]","../img/tt/140tt.jpg","",""
"4346.59999999986","","","recognition","survey-text","401","1390374","0.0-6.0-3.56","3024488","co39877","norming","","","{""guess"":""vork""}","","../img/tt/140tt.jpg","",""
"null","../img/gs/140gs.jpg","null","reveal","image-keyboard-response","402","1392399","0.0-6.0-4.56","3024488","co39877","norming","","","","","","",""
"null","../img/tt/140tt.jpg","null","mooney2","image-keyboard-response","403","1394383","0.0-6.0-5.56","3024488","co39877","norming","","","","","","",""
"2151.600000000093","","","post_reveal_questions","survey-likert","404","1396540","0.0-6.0-6.56","3024488","co39877","norming","","","{""aha"":0}","[0]","../img/tt/140tt.jpg","",""
"null","<div style=""font-size:60px;""> </div>","null","fixation","html-keyboard-response","405","1396757","0.0-6.0-0.57","3024488","co39877","norming","","","","","","",""
"null","../img/tt/300tt.jpg","null","mooney1","image-keyboard-response","406","1399772","0.0-6.0-1.57","3024488","co39877","norming","","","","","","",""
"17500.600000000093","","","post_mooney1_questions","survey-likert","407","1417277","0.0-6.0-2.57","3024488","co39877","norming","","","{""curiosity"":4,""confidence"":0}","[0,1]","../img/tt/300tt.jpg","",""
"834.7999999998137","","","recognition","survey-text","408","1418116","0.0-6.0-3.57","3024488","co39877","norming","","","{""guess"":""""}","","../img/tt/300tt.jpg","",""
"null","../img/gs/300gs.jpg","null","reveal","image-keyboard-response","409","1420126","0.0-6.0-4.57","3024488","co39877","norming","","","","","","",""
"null","../img/tt/300tt.jpg","null","mooney2","image-keyboard-response","410","1422142","0.0-6.0-5.57","3024488","co39877","norming","","","","","","",""
"1667.1000000000931","","","post_reveal_questions","survey-likert","411","1423812","0.0-6.0-6.57","3024488","co39877","norming","","","{""aha"":4}","[0]","../img/tt/300tt.jpg","",""
"null","<div style=""font-size:60px;""> </div>","null","fixation","html-keyboard-response","412","1424031","0.0-6.0-0.58","3024488","co39877","norming","","","","","","",""
"null","../img/tt/1048tt.jpg","null","mooney1","image-keyboard-response","413","1427052","0.0-6.0-1.58","3024488","co39877","norming","","","","","","",""
"3971.8000000000465","","","post_mooney1_questions","survey-likert","414","1431029","0.0-6.0-2.58","3024488","co39877","norming","","","{""curiosity"":2,""confidence"":4}","[0,1]","../img/tt/1048tt.jpg","",""
"4523.899999999907","","","recognition","survey-text","415","1435558","0.0-6.0-3.58","3024488","co39877","norming","","","{""guess"":""palmboom""}","","../img/tt/1048tt.jpg","",""
"null","../img/gs/1048gs.jpg","null","reveal","image-keyboard-response","416","1437566","0.0-6.0-4.58","3024488","co39877","norming","","","","","","",""
"null","../img/tt/1048tt.jpg","null","mooney2","image-keyboard-response","417","1439565","0.0-6.0-5.58","3024488","co39877","norming","","","","","","",""
"3683.1999999999534","","","post_reveal_questions","survey-likert","418","1443253","0.0-6.0-6.58","3024488","co39877","norming","","","{""aha"":2}","[0]","../img/tt/1048tt.jpg","",""
"null","<div style=""font-size:60px;""> </div>","null","fixation","html-keyboard-response","419","1443477","0.0-6.0-0.59","3024488","co39877","norming","","","","","","",""
"null","../img/tt/1353tt.jpg","null","mooney1","image-keyboard-response","420","1446501","0.0-6.0-1.59","3024488","co39877","norming","","","","","","",""
"3915.100000000093","","","post_mooney1_questions","survey-likert","421","1450421","0.0-6.0-2.59","3024488","co39877","norming","","","{""curiosity"":2,""confidence"":4}","[0,1]","../img/tt/1353tt.jpg","",""
"2564.5","","","recognition","survey-text","422","1452990","0.0-6.0-3.59","3024488","co39877","norming","","","{""guess"":""ring""}","","../img/tt/1353tt.jpg","",""
"null","../img/gs/1353gs.jpg","null","reveal","image-keyboard-response","423","1455015","0.0-6.0-4.59","3024488","co39877","norming","","","","","","",""
"null","../img/tt/1353tt.jpg","null","mooney2","image-keyboard-response","424","1456994","0.0-6.0-5.59","3024488","co39877","norming","","","","","","",""
"5686.100000000093","","","post_reveal_questions","survey-likert","425","1462685","0.0-6.0-6.59","3024488","co39877","norming","","","{""aha"":4}","[0]","../img/tt/1353tt.jpg","",""
"null","<div style=""font-size:60px;""> </div>","null","fixation","html-keyboard-response","426","1462906","0.0-6.0-0.60","3024488","co39877","norming","","","","","","",""
"null","../img/tt/1232tt.jpg","null","mooney1","image-keyboard-response","427","1465919","0.0-6.0-1.60","3024488","co39877","norming","","","","","","",""
"8160.40000000014","","","post_mooney1_questions","survey-likert","428","1474085","0.0-6.0-2.60","3024488","co39877","norming","","","{""curiosity"":4,""confidence"":0}","[0,1]","../img/tt/1232tt.jpg","",""
"1114","","","recognition","survey-text","429","1475205","0.0-6.0-3.60","3024488","co39877","norming","","","{""guess"":""""}","","../img/tt/1232tt.jpg","",""
"null","../img/gs/1232gs.jpg","null","reveal","image-keyboard-response","430","1477229","0.0-6.0-4.60","3024488","co39877","norming","","","","","","",""
"null","../img/tt/1232tt.jpg","null","mooney2","image-keyboard-response","431","1479228","0.0-6.0-5.60","3024488","co39877","norming","","","","","","",""
"3572","","","post_reveal_questions","survey-likert","432","1482804","0.0-6.0-6.60","3024488","co39877","norming","","","{""aha"":4}","[0]","../img/tt/1232tt.jpg","",""
"null","<div style=""font-size:60px;""> </div>","null","fixation","html-keyboard-response","433","1483025","0.0-6.0-0.61","3024488","co39877","norming","","","","","","",""
"null","../img/tt/094tt.jpg","null","mooney1","image-keyboard-response","434","1486055","0.0-6.0-1.61","3024488","co39877","norming","","","","","","",""
"5072.40000000014","","","post_mooney1_questions","survey-likert","435","1491133","0.0-6.0-2.61","3024488","co39877","norming","","","{""curiosity"":3,""confidence"":1}","[0,1]","../img/tt/094tt.jpg","",""
"3149.3000000000465","","","recognition","survey-text","436","1494286","0.0-6.0-3.61","3024488","co39877","norming","","","{""guess"":""leeuw""}","","../img/tt/094tt.jpg","",""
"null","../img/gs/094gs.jpg","null","reveal","image-keyboard-response","437","1496287","0.0-6.0-4.61","3024488","co39877","norming","","","","","","",""
"null","../img/tt/094tt.jpg","null","mooney2","image-keyboard-response","438","1498304","0.0-6.0-5.61","3024488","co39877","norming","","","","","","",""
"3808.1999999999534","","","post_reveal_questions","survey-likert","439","1502116","0.0-6.0-6.61","3024488","co39877","norming","","","{""aha"":3}","[0]","../img/tt/094tt.jpg","",""
"null","<div style=""font-size:60px;""> </div>","null","fixation","html-keyboard-response","440","1502333","0.0-6.0-0.62","3024488","co39877","norming","","","","","","",""
"null","../img/tt/549tt.jpg","null","mooney1","image-keyboard-response","441","1505355","0.0-6.0-1.62","3024488","co39877","norming","","","","","","",""
"5029.100000000093","","","post_mooney1_questions","survey-likert","442","1510388","0.0-6.0-2.62","3024488","co39877","norming","","","{""curiosity"":4,""confidence"":1}","[0,1]","../img/tt/549tt.jpg","",""
"4528.40000000014","","","recognition","survey-text","443","1514920","0.0-6.0-3.62","3024488","co39877","norming","","","{""guess"":""kraan""}","","../img/tt/549tt.jpg","",""
"null","../img/gs/549gs.jpg","null","reveal","image-keyboard-response","444","1516931","0.0-6.0-4.62","3024488","co39877","norming","","","","","","",""
"null","../img/tt/549tt.jpg","null","mooney2","image-keyboard-response","445","1518947","0.0-6.0-5.62","3024488","co39877","norming","","","","","","",""
"3653.7000000001862","","","post_reveal_questions","survey-likert","446","1522605","0.0-6.0-6.62","3024488","co39877","norming","","","{""aha"":2}","[0]","../img/tt/549tt.jpg","",""
"null","<div style=""font-size:60px;""> </div>","null","fixation","html-keyboard-response","447","1522837","0.0-6.0-0.63","3024488","co39877","norming","","","","","","",""
"null","../img/tt/515tt.jpg","null","mooney1","image-keyboard-response","448","1525852","0.0-6.0-1.63","3024488","co39877","norming","","","","","","",""
"4644.90000000014","","","post_mooney1_questions","survey-likert","449","1530501","0.0-6.0-2.63","3024488","co39877","norming","","","{""curiosity"":4,""confidence"":0}","[0,1]","../img/tt/515tt.jpg","",""
"4221.90000000014","","","recognition","survey-text","450","1534727","0.0-6.0-3.63","3024488","co39877","norming","","","{""guess"":""skibril""}","","../img/tt/515tt.jpg","",""
"null","../img/gs/515gs.jpg","null","reveal","image-keyboard-response","451","1536739","0.0-6.0-4.63","3024488","co39877","norming","","","","","","",""
"null","../img/tt/515tt.jpg","null","mooney2","image-keyboard-response","452","1538738","0.0-6.0-5.63","3024488","co39877","norming","","","","","","",""
"4127.899999999907","","","post_reveal_questions","survey-likert","453","1542868","0.0-6.0-6.63","3024488","co39877","norming","","","{""aha"":2}","[0]","../img/tt/515tt.jpg","",""
"null","<div style=""font-size:60px;""> </div>","null","fixation","html-keyboard-response","454","1543082","0.0-6.0-0.64","3024488","co39877","norming","","","","","","",""
"null","../img/tt/1276tt.jpg","null","mooney1","image-keyboard-response","455","1546111","0.0-6.0-1.64","3024488","co39877","norming","","","","","","",""
"3657.0999999998603","","","post_mooney1_questions","survey-likert","456","1549773","0.0-6.0-2.64","3024488","co39877","norming","","","{""curiosity"":4,""confidence"":0}","[0,1]","../img/tt/1276tt.jpg","",""
"821","","","recognition","survey-text","457","1550599","0.0-6.0-3.64","3024488","co39877","norming","","","{""guess"":""""}","","../img/tt/1276tt.jpg","",""
"null","../img/gs/1276gs.jpg","null","reveal","image-keyboard-response","458","1552609","0.0-6.0-4.64","3024488","co39877","norming","","","","","","",""
"null","../img/tt/1276tt.jpg","null","mooney2","image-keyboard-response","459","1554609","0.0-6.0-5.64","3024488","co39877","norming","","","","","","",""
"3527.2999999998137","","","post_reveal_questions","survey-likert","460","1558140","0.0-6.0-6.64","3024488","co39877","norming","","","{""aha"":5}","[0]","../img/tt/1276tt.jpg","",""
"null","<div style=""font-size:60px;""> </div>","null","fixation","html-keyboard-response","461","1558343","0.0-6.0-0.65","3024488","co39877","norming","","","","","","",""
"null","../img/tt/1309tt.jpg","null","mooney1","image-keyboard-response","462","1561373","0.0-6.0-1.65","3024488","co39877","norming","","","","","","",""
"5739.09999999986","","","post_mooney1_questions","survey-likert","463","1567117","0.0-6.0-2.65","3024488","co39877","norming","","","{""curiosity"":3,""confidence"":2}","[0,1]","../img/tt/1309tt.jpg","",""
"4677.600000000093","","","recognition","survey-text","464","1571798","0.0-6.0-3.65","3024488","co39877","norming","","","{""guess"":""auto""}","","../img/tt/1309tt.jpg","",""
"null","../img/gs/1309gs.jpg","null","reveal","image-keyboard-response","465","1573807","0.0-6.0-4.65","3024488","co39877","norming","","","","","","",""
"null","../img/tt/1309tt.jpg","null","mooney2","image-keyboard-response","466","1575822","0.0-6.0-5.65","3024488","co39877","norming","","","","","","",""
"9210.800000000046","","","post_reveal_questions","survey-likert","467","1585040","0.0-6.0-6.65","3024488","co39877","norming","","","{""aha"":3}","[0]","../img/tt/1309tt.jpg","",""
"null","<div style=""font-size:60px;""> </div>","null","fixation","html-keyboard-response","468","1585270","0.0-6.0-0.66","3024488","co39877","norming","","","","","","",""
"null","../img/tt/1066tt.jpg","null","mooney1","image-keyboard-response","469","1588296","0.0-6.0-1.66","3024488","co39877","norming","","","","","","",""
"6735.90000000014","","","post_mooney1_questions","survey-likert","470","1595036","0.0-6.0-2.66","3024488","co39877","norming","","","{""curiosity"":1,""confidence"":4}","[0,1]","../img/tt/1066tt.jpg","",""
"2174.5","","","recognition","survey-text","471","1597216","0.0-6.0-3.66","3024488","co39877","norming","","","{""guess"":""bus""}","","../img/tt/1066tt.jpg","",""
"null","../img/gs/1066gs.jpg","null","reveal","image-keyboard-response","472","1599243","0.0-6.0-4.66","3024488","co39877","norming","","","","","","",""
"null","../img/tt/1066tt.jpg","null","mooney2","image-keyboard-response","473","1601230","0.0-6.0-5.66","3024488","co39877","norming","","","","","","",""
"2418.4000000001397","","","post_reveal_questions","survey-likert","474","1603653","0.0-6.0-6.66","3024488","co39877","norming","","","{""aha"":1}","[0]","../img/tt/1066tt.jpg","",""
"null","<div style=""font-size:60px;""> </div>","null","fixation","html-keyboard-response","475","1603867","0.0-6.0-0.67","3024488","co39877","norming","","","","","","",""
"null","../img/tt/1159tt.jpg","null","mooney1","image-keyboard-response","476","1606881","0.0-6.0-1.67","3024488","co39877","norming","","","","","","",""
"4112.600000000093","","","post_mooney1_questions","survey-likert","477","1610999","0.0-6.0-2.67","3024488","co39877","norming","","","{""curiosity"":3,""confidence"":2}","[0,1]","../img/tt/1159tt.jpg","",""
"2329","","","recognition","survey-text","478","1613332","0.0-6.0-3.67","3024488","co39877","norming","","","{""guess"":""trein""}","","../img/tt/1159tt.jpg","",""
"null","../img/gs/1159gs.jpg","null","reveal","image-keyboard-response","479","1615349","0.0-6.0-4.67","3024488","co39877","norming","","","","","","",""
"null","../img/tt/1159tt.jpg","null","mooney2","image-keyboard-response","480","1617364","0.0-6.0-5.67","3024488","co39877","norming","","","","","","",""
"3788.399999999907","","","post_reveal_questions","survey-likert","481","1621156","0.0-6.0-6.67","3024488","co39877","norming","","","{""aha"":4}","[0]","../img/tt/1159tt.jpg","",""
"null","<div style=""font-size:60px;""> </div>","null","fixation","html-keyboard-response","482","1621362","0.0-6.0-0.68","3024488","co39877","norming","","","","","","",""
"null","../img/tt/1283tt.jpg","null","mooney1","image-keyboard-response","483","1624377","0.0-6.0-1.68","3024488","co39877","norming","","","","","","",""
"4041.6999999999534","","","post_mooney1_questions","survey-likert","484","1628421","0.0-6.0-2.68","3024488","co39877","norming","","","{""curiosity"":2,""confidence"":2}","[0,1]","../img/tt/1283tt.jpg","",""
"3341","","","recognition","survey-text","485","1631766","0.0-6.0-3.68","3024488","co39877","norming","","","{""guess"":""bos""}","","../img/tt/1283tt.jpg","",""
"null","../img/gs/1283gs.jpg","null","reveal","image-keyboard-response","486","1633797","0.0-6.0-4.68","3024488","co39877","norming","","","","","","",""
"null","../img/tt/1283tt.jpg","null","mooney2","image-keyboard-response","487","1635781","0.0-6.0-5.68","3024488","co39877","norming","","","","","","",""
"2107.2999999998137","","","post_reveal_questions","survey-likert","488","1637892","0.0-6.0-6.68","3024488","co39877","norming","","","{""aha"":3}","[0]","../img/tt/1283tt.jpg","",""
"null","<div style=""font-size:60px;""> </div>","null","fixation","html-keyboard-response","489","1638125","0.0-6.0-0.69","3024488","co39877","norming","","","","","","",""
"null","../img/tt/1097tt.jpg","null","mooney1","image-keyboard-response","490","1641140","0.0-6.0-1.69","3024488","co39877","norming","","","","","","",""
"6147.09999999986","","","post_mooney1_questions","survey-likert","491","1647293","0.0-6.0-2.69","3024488","co39877","norming","","","{""curiosity"":2,""confidence"":5}","[0,1]","../img/tt/1097tt.jpg","",""
"5211.5","","","recognition","survey-text","492","1652509","0.0-6.0-3.69","3024488","co39877","norming","","","{""guess"":""surfer""}","","../img/tt/1097tt.jpg","",""
"null","../img/gs/1097gs.jpg","null","reveal","image-keyboard-response","493","1654511","0.0-6.0-4.69","3024488","co39877","norming","","","","","","",""
"null","../img/tt/1097tt.jpg","null","mooney2","image-keyboard-response","494","1656527","0.0-6.0-5.69","3024488","co39877","norming","","","","","","",""
"3825.100000000093","","","post_reveal_questions","survey-likert","495","1660355","0.0-6.0-6.69","3024488","co39877","norming","","","{""aha"":1}","[0]","../img/tt/1097tt.jpg","",""
"null","<div style=""font-size:60px;""> </div>","null","fixation","html-keyboard-response","496","1660574","0.0-6.0-0.70","3024488","co39877","norming","","","","","","",""
"null","../img/tt/1127tt.jpg","null","mooney1","image-keyboard-response","497","1663585","0.0-6.0-1.70","3024488","co39877","norming","","","","","","",""
"4053","","","post_mooney1_questions","survey-likert","498","1667645","0.0-6.0-2.70","3024488","co39877","norming","","","{""curiosity"":2,""confidence"":3}","[0,1]","../img/tt/1127tt.jpg","",""
"3793.399999999907","","","recognition","survey-text","499","1671442","0.0-6.0-3.70","3024488","co39877","norming","","","{""guess"":""schoollokaal""}","","../img/tt/1127tt.jpg","",""
"null","../img/gs/1127gs.jpg","null","reveal","image-keyboard-response","500","1673472","0.0-6.0-4.70","3024488","co39877","norming","","","","","","",""
"null","../img/tt/1127tt.jpg","null","mooney2","image-keyboard-response","501","1675473","0.0-6.0-5.70","3024488","co39877","norming","","","","","","",""
"10959.800000000046","","","post_reveal_questions","survey-likert","502","1686436","0.0-6.0-6.70","3024488","co39877","norming","","","{""aha"":3}","[0]","../img/tt/1127tt.jpg","",""
"null","<div style=""font-size:60px;""> </div>","null","fixation","html-keyboard-response","503","1686657","0.0-6.0-0.71","3024488","co39877","norming","","","","","","",""
"null","../img/tt/438tt.jpg","null","mooney1","image-keyboard-response","504","1689687","0.0-6.0-1.71","3024488","co39877","norming","","","","","","",""
"5234","","","post_mooney1_questions","survey-likert","505","1694925","0.0-6.0-2.71","3024488","co39877","norming","","","{""curiosity"":2,""confidence"":3}","[0,1]","../img/tt/438tt.jpg","",""
"3267.3000000000465","","","recognition","survey-text","506","1698197","0.0-6.0-3.71","3024488","co39877","norming","","","{""guess"":""hagedis""}","","../img/tt/438tt.jpg","",""
"null","../img/gs/438gs.jpg","null","reveal","image-keyboard-response","507","1700217","0.0-6.0-4.71","3024488","co39877","norming","","","","","","",""
"null","../img/tt/438tt.jpg","null","mooney2","image-keyboard-response","508","1702217","0.0-6.0-5.71","3024488","co39877","norming","","","","","","",""
"5110.700000000186","","","post_reveal_questions","survey-likert","509","1707333","0.0-6.0-6.71","3024488","co39877","norming","","","{""aha"":4}","[0]","../img/tt/438tt.jpg","",""
"null","<div style=""font-size:60px;""> </div>","null","fixation","html-keyboard-response","510","1707546","0.0-6.0-0.72","3024488","co39877","norming","","","","","","",""
"null","../img/tt/1189tt.jpg","null","mooney1","image-keyboard-response","511","1710561","0.0-6.0-1.72","3024488","co39877","norming","","","","","","",""
"7175.600000000093","","","post_mooney1_questions","survey-likert","512","1717742","0.0-6.0-2.72","3024488","co39877","norming","","","{""curiosity"":5,""confidence"":0}","[0,1]","../img/tt/1189tt.jpg","",""
"806.1999999999534","","","recognition","survey-text","513","1718557","0.0-6.0-3.72","3024488","co39877","norming","","","{""guess"":""""}","","../img/tt/1189tt.jpg","",""
"null","../img/gs/1189gs.jpg","null","reveal","image-keyboard-response","514","1720561","0.0-6.0-4.72","3024488","co39877","norming","","","","","","",""
"null","../img/tt/1189tt.jpg","null","mooney2","image-keyboard-response","515","1722577","0.0-6.0-5.72","3024488","co39877","norming","","","","","","",""
"4262.300000000047","","","post_reveal_questions","survey-likert","516","1726845","0.0-6.0-6.72","3024488","co39877","norming","","","{""aha"":0}","[0]","../img/tt/1189tt.jpg","",""
"null","<div style=""font-size:60px;""> </div>","null","fixation","html-keyboard-response","517","1727045","0.0-6.0-0.73","3024488","co39877","norming","","","","","","",""
"null","../img/tt/567tt.jpg","null","mooney1","image-keyboard-response","518","1730058","0.0-6.0-1.73","3024488","co39877","norming","","","","","","",""
"5351.800000000047","","","post_mooney1_questions","survey-likert","519","1735414","0.0-6.0-2.73","3024488","co39877","norming","","","{""curiosity"":3,""confidence"":1}","[0,1]","../img/tt/567tt.jpg","",""
"7426.800000000047","","","recognition","survey-text","520","1742846","0.0-6.0-3.73","3024488","co39877","norming","","","{""guess"":""autospiegel""}","","../img/tt/567tt.jpg","",""
"null","../img/gs/567gs.jpg","null","reveal","image-keyboard-response","521","1744852","0.0-6.0-4.73","3024488","co39877","norming","","","","","","",""
"null","../img/tt/567tt.jpg","null","mooney2","image-keyboard-response","522","1746851","0.0-6.0-5.73","3024488","co39877","norming","","","","","","",""
"5764.699999999953","","","post_reveal_questions","survey-likert","523","1752620","0.0-6.0-6.73","3024488","co39877","norming","","","{""aha"":2}","[0]","../img/tt/567tt.jpg","",""
"null","<div style=""font-size:60px;""> </div>","null","fixation","html-keyboard-response","524","1752850","0.0-6.0-0.74","3024488","co39877","norming","","","","","","",""
"null","../img/tt/1055tt.jpg","null","mooney1","image-keyboard-response","525","1755870","0.0-6.0-1.74","3024488","co39877","norming","","","","","","",""
"4481.59999999986","","","post_mooney1_questions","survey-likert","526","1760356","0.0-6.0-2.74","3024488","co39877","norming","","","{""curiosity"":3,""confidence"":1}","[0,1]","../img/tt/1055tt.jpg","",""
"2000.1999999999534","","","recognition","survey-text","527","1762362","0.0-6.0-3.74","3024488","co39877","norming","","","{""guess"":""water""}","","../img/tt/1055tt.jpg","",""
"null","../img/gs/1055gs.jpg","null","reveal","image-keyboard-response","528","1764385","0.0-6.0-4.74","3024488","co39877","norming","","","","","","",""
"null","../img/tt/1055tt.jpg","null","mooney2","image-keyboard-response","529","1766384","0.0-6.0-5.74","3024488","co39877","norming","","","","","","",""
"5544","","","post_reveal_questions","survey-likert","530","1771932","0.0-6.0-6.74","3024488","co39877","norming","","","{""aha"":2}","[0]","../img/tt/1055tt.jpg","",""
"null","<div style=""font-size:60px;""> </div>","null","fixation","html-keyboard-response","531","1772148","0.0-6.0-0.75","3024488","co39877","norming","","","","","","",""
"null","../img/tt/416tt.jpg","null","mooney1","image-keyboard-response","532","1775178","0.0-6.0-1.75","3024488","co39877","norming","","","","","","",""
"3889.3000000000465","","","post_mooney1_questions","survey-likert","533","1779073","0.0-6.0-2.75","3024488","co39877","norming","","","{""curiosity"":1,""confidence"":6}","[0,1]","../img/tt/416tt.jpg","",""
"4229.90000000014","","","recognition","survey-text","534","1783309","0.0-6.0-3.75","3024488","co39877","norming","","","{""guess"":""struisvogels""}","","../img/tt/416tt.jpg","",""
"null","../img/gs/416gs.jpg","null","reveal","image-keyboard-response","535","1785333","0.0-6.0-4.75","3024488","co39877","norming","","","","","","",""
"null","../img/tt/416tt.jpg","null","mooney2","image-keyboard-response","536","1787317","0.0-6.0-5.75","3024488","co39877","norming","","","","","","",""
"3642.100000000093","","","post_reveal_questions","survey-likert","537","1790964","0.0-6.0-6.75","3024488","co39877","norming","","","{""aha"":0}","[0]","../img/tt/416tt.jpg","",""
"null","<div style=""font-size:60px;""> </div>","null","fixation","html-keyboard-response","538","1791178","0.0-6.0-0.76","3024488","co39877","norming","","","","","","",""
"null","../img/tt/1122tt.jpg","null","mooney1","image-keyboard-response","539","1794190","0.0-6.0-1.76","3024488","co39877","norming","","","","","","",""
"3337.6999999999534","","","post_mooney1_questions","survey-likert","540","1797533","0.0-6.0-2.76","3024488","co39877","norming","","","{""curiosity"":1,""confidence"":6}","[0,1]","../img/tt/1122tt.jpg","",""
"2287","","","recognition","survey-text","541","1799825","0.0-6.0-3.76","3024488","co39877","norming","","","{""guess"":""boten""}","","../img/tt/1122tt.jpg","",""
"null","../img/gs/1122gs.jpg","null","reveal","image-keyboard-response","542","1801844","0.0-6.0-4.76","3024488","co39877","norming","","","","","","",""
"null","../img/tt/1122tt.jpg","null","mooney2","image-keyboard-response","543","1803844","0.0-6.0-5.76","3024488","co39877","norming","","","","","","",""
"3556.1999999999534","","","post_reveal_questions","survey-likert","544","1807405","0.0-6.0-6.76","3024488","co39877","norming","","","{""aha"":0}","[0]","../img/tt/1122tt.jpg","",""
"null","<div style=""font-size:60px;""> </div>","null","fixation","html-keyboard-response","545","1807625","0.0-6.0-0.77","3024488","co39877","norming","","","","","","",""
"null","../img/tt/1362tt.jpg","null","mooney1","image-keyboard-response","546","1810639","0.0-6.0-1.77","3024488","co39877","norming","","","","","","",""
"4336.90000000014","","","post_mooney1_questions","survey-likert","547","1814980","0.0-6.0-2.77","3024488","co39877","norming","","","{""curiosity"":1,""confidence"":5}","[0,1]","../img/tt/1362tt.jpg","",""
"4389.899999999907","","","recognition","survey-text","548","1819379","0.0-6.0-3.77","3024488","co39877","norming","","","{""guess"":""kookvuur""}","","../img/tt/1362tt.jpg","",""
"null","../img/gs/1362gs.jpg","null","reveal","image-keyboard-response","549","1821388","0.0-6.0-4.77","3024488","co39877","norming","","","","","","",""
"null","../img/tt/1362tt.jpg","null","mooney2","image-keyboard-response","550","1823402","0.0-6.0-5.77","3024488","co39877","norming","","","","","","",""
"3844.1999999999534","","","post_reveal_questions","survey-likert","551","1827253","0.0-6.0-6.77","3024488","co39877","norming","","","{""aha"":0}","[0]","../img/tt/1362tt.jpg","",""
"null","<div style=""font-size:60px;""> </div>","null","fixation","html-keyboard-response","552","1827464","0.0-6.0-0.78","3024488","co39877","norming","","","","","","",""
"null","../img/tt/082tt.jpg","null","mooney1","image-keyboard-response","553","1830496","0.0-6.0-1.78","3024488","co39877","norming","","","","","","",""
"5663.399999999907","","","post_mooney1_questions","survey-likert","554","1836164","0.0-6.0-2.78","3024488","co39877","norming","","","{""curiosity"":0,""confidence"":6}","[0,1]","../img/tt/082tt.jpg","",""
