"rt","stimulus","key_press","test_part","trial_type","trial_index","time_elapsed","internal_node_id","totalTime","subject","experiment_name","button_pressed","success","responses","question_order","currentStim","old","correct"
"5514","Welcome to the experiment. This is an online experiment so please don't close the tab/window until we say goodbye.  Press any key to begin.","32","instructions","html-keyboard-response","0","5522","0.0-0.0","2774393","co39202","norming","","","","","","",""
"37582","<div style='word-wrap: break-word; width: 900px'><h3>Please consider this information carefully before deciding whether to participate in this research</h3><ul style='text-align: left; font-size: .8em;'><li><b>Purpose of the research</b>: To examine how people process images.</li><li><b>What you will do in this research</b>:  Stimuli (images) will be presented on the computer and you will be asked different questions about them.</li><li><b>Time required</b>: Participation will take between 45 and 60 minutes to complete.</li><li><b>Risks</b>:  There are no anticipated risks associated with participating in this study. The effects of participating should be comparable to those you would experience from viewing a computer monitor for 30 minutes and using a mouse or keyboard.</li><li><b>Benefits</b>:  This study provides no benefits to you individually except for the credit. The study provides important information about the nature of perception and learning.</li><li><b>Confidentiality</b>:  Your participation in this study will remain confidential. No personally identifiable information will be associated with your data. Your de-identified data may be shared with other researchers and used in future projects.</li><li><b>Participation and withdrawal</b>:  Your participation in this study is completely voluntary and you may refuse to participate or you may choose to withdraw at any time without penalty.</li><li><b>How to contact the researchers</b>: If you have questions or concerns about your participation or payment, or want to request a summary of research findings, please contact Sander Van de Cruys (KU Leuven), at sander.vandecruys@kuleuven.be.</li></ul><p>The nature and purpose of this research have been sufficiently explained and I agree to participate in this study.  I understand that I am free to withdraw at any time without incurring any penalty.</p><p>Please consent by clicking the button below to continue. Otherwise, please exit the study at this time.</p></div>","","instructions","html-button-response","1","43107","0.0-1.0","2774393","co39202","norming","0","","","","","",""
"","","","instructions","fullscreen","2","48084","0.0-2.0","2774393","co39202","norming","","true","","","","",""
"23482","","","sona","survey-html-form","3","71569","0.0-3.0","2774393","co39202","norming","","","[{""name"":""sonaid"",""value"":""39202""},{""name"":""debrief"",""value"":""yes""},{""name"":""datajoin"",""value"":""yes""}]","","","",""
"74369","<div style='word-wrap: break-word; width: 900px'><h3>Instructions</h3><p>This experiment will have 3 parts. In the first part you will see a series of distorted images like the one below on the left. As you can see in the righthand image, the distorted images are derived from actual photographs. In what follows, you will <strong>briefly</strong> be presented with <strong>only</strong> the distorted image.</p> <div style='float: left; margin-right: 20px;'><img src='../img/018tt.jpg' height='250' width='250'></img></div><div style='float: right; margin-left: 20px;'><img src='../img/018gs.jpg' height='250' width='250'></img></div><p>Subsequently you will be asked a few questions about the image: One question on how <strong>curious</strong> you are about the solution and one on how <strong>confident</strong> you are that you know the solution.</p>Next, we ask you to make a guess on what is in the image. Note that it is OK to name just the <strong>basic level category</strong>. For example when you see a parrot in the image, 'parrot' will obviously be a correct answer but also correct is 'bird'. However, 'animal' will <strong>not</strong> be counted as a correct response. For the example above, 'rose' would be correct or 'flower', but not 'plant'. When soccer players are depicted, 'soccer', 'football', 'soccer players' will be correct, but not 'humans', 'outdoors', or 'sports'. You do not need to describe the image in full, just name the main object in it <strong>in one or two words</strong>. All images depict objects from one of the following broad level categories: animals, inanimate objects, plants, sports, vehicles, and food. Recognizing means knowing <strong>more</strong> than these broad labels for a given image. But we always encourage you to <strong>make a guess</strong> if you can. Note that you are allowed to use <strong>Dutch and English</strong> in your answers, whatever comes easiest for you.</p><p>Press any key to continue.</p></div>","32","instructions","html-keyboard-response","4","145939","0.0-4.0","2774393","co39202","norming","","","","","","",""
"18503","<div style='word-wrap: break-word; width: 900px'><h3>Instructions</h3> <p>Next, the solution image will be revealed to you and you'll be asked to indicate how strong your <strong>aha-experience</strong> was after seeing the solution. This describes the positive feeling of the 'click' you sometimes experience, when the pieces of the 'puzzle' fall together and you suddenly have 'insight' in the image.</p><img src='aha.jpg' height='188' width='250'></img><p>Note that there are no right or wrong answers. We are interested in what <strong>you</strong> see in the image and how <strong>you</strong> feel about it.</p><p>Press any key to start the experiment.</p></div>","32","instructions","html-keyboard-response","5","164445","0.0-5.0","2774393","co39202","norming","","","","","","",""
"null","<div style=""font-size:60px;""> </div>","null","fixation","html-keyboard-response","6","164651","0.0-6.0-0.0","2774393","co39202","norming","","","","","","",""
"null","../img/tt/1102tt.jpg","null","mooney1","image-keyboard-response","7","167658","0.0-6.0-1.0","2774393","co39202","norming","","","","","","",""
"12540","","","post_mooney1_questions","survey-likert","8","180202","0.0-6.0-2.0","2774393","co39202","norming","","","{""curiosity"":5,""confidence"":0}","[0,1]","../img/tt/1102tt.jpg","",""
"14636","","","recognition","survey-text","9","194843","0.0-6.0-3.0","2774393","co39202","norming","","","{""guess"":""een landschap""}","","../img/tt/1102tt.jpg","",""
"null","../img/gs/1102gs.jpg","null","reveal","image-keyboard-response","10","196846","0.0-6.0-4.0","2774393","co39202","norming","","","","","","",""
"null","../img/tt/1102tt.jpg","null","mooney2","image-keyboard-response","11","198850","0.0-6.0-5.0","2774393","co39202","norming","","","","","","",""
"5487","","","post_reveal_questions","survey-likert","12","204341","0.0-6.0-6.0","2774393","co39202","norming","","","{""aha"":6}","[0]","../img/tt/1102tt.jpg","",""
"null","<div style=""font-size:60px;""> </div>","null","fixation","html-keyboard-response","13","204547","0.0-6.0-0.1","2774393","co39202","norming","","","","","","",""
"null","../img/tt/019tt.jpg","null","mooney1","image-keyboard-response","14","207549","0.0-6.0-1.1","2774393","co39202","norming","","","","","","",""
"7418","","","post_mooney1_questions","survey-likert","15","214971","0.0-6.0-2.1","2774393","co39202","norming","","","{""curiosity"":5,""confidence"":1}","[0,1]","../img/tt/019tt.jpg","",""
"4319","","","recognition","survey-text","16","219295","0.0-6.0-3.1","2774393","co39202","norming","","","{""guess"":""skipiste""}","","../img/tt/019tt.jpg","",""
"null","../img/gs/019gs.jpg","null","reveal","image-keyboard-response","17","221300","0.0-6.0-4.1","2774393","co39202","norming","","","","","","",""
"null","../img/tt/019tt.jpg","null","mooney2","image-keyboard-response","18","223303","0.0-6.0-5.1","2774393","co39202","norming","","","","","","",""
"4047","","","post_reveal_questions","survey-likert","19","227351","0.0-6.0-6.1","2774393","co39202","norming","","","{""aha"":5}","[0]","../img/tt/019tt.jpg","",""
"null","<div style=""font-size:60px;""> </div>","null","fixation","html-keyboard-response","20","227558","0.0-6.0-0.2","2774393","co39202","norming","","","","","","",""
"null","../img/tt/1278tt.jpg","null","mooney1","image-keyboard-response","21","230565","0.0-6.0-1.2","2774393","co39202","norming","","","","","","",""
"7732","","","post_mooney1_questions","survey-likert","22","238300","0.0-6.0-2.2","2774393","co39202","norming","","","{""curiosity"":6,""confidence"":0}","[0,1]","../img/tt/1278tt.jpg","",""
"5434","","","recognition","survey-text","23","243739","0.0-6.0-3.2","2774393","co39202","norming","","","{""guess"":""priester""}","","../img/tt/1278tt.jpg","",""
"null","../img/gs/1278gs.jpg","null","reveal","image-keyboard-response","24","245744","0.0-6.0-4.2","2774393","co39202","norming","","","","","","",""
"null","../img/tt/1278tt.jpg","null","mooney2","image-keyboard-response","25","247747","0.0-6.0-5.2","2774393","co39202","norming","","","","","","",""
"4030","","","post_reveal_questions","survey-likert","26","251780","0.0-6.0-6.2","2774393","co39202","norming","","","{""aha"":5}","[0]","../img/tt/1278tt.jpg","",""
"null","<div style=""font-size:60px;""> </div>","null","fixation","html-keyboard-response","27","251983","0.0-6.0-0.3","2774393","co39202","norming","","","","","","",""
"null","../img/tt/1070tt.jpg","null","mooney1","image-keyboard-response","28","254985","0.0-6.0-1.3","2774393","co39202","norming","","","","","","",""
"7700","","","post_mooney1_questions","survey-likert","29","262688","0.0-6.0-2.3","2774393","co39202","norming","","","{""curiosity"":3,""confidence"":1}","[0,1]","../img/tt/1070tt.jpg","",""
"3958","","","recognition","survey-text","30","266650","0.0-6.0-3.3","2774393","co39202","norming","","","{""guess"":""watermeloen""}","","../img/tt/1070tt.jpg","",""
"null","../img/gs/1070gs.jpg","null","reveal","image-keyboard-response","31","268651","0.0-6.0-4.3","2774393","co39202","norming","","","","","","",""
"null","../img/tt/1070tt.jpg","null","mooney2","image-keyboard-response","32","270653","0.0-6.0-5.3","2774393","co39202","norming","","","","","","",""
"2987","","","post_reveal_questions","survey-likert","33","273642","0.0-6.0-6.3","2774393","co39202","norming","","","{""aha"":4}","[0]","../img/tt/1070tt.jpg","",""
"null","<div style=""font-size:60px;""> </div>","null","fixation","html-keyboard-response","34","273846","0.0-6.0-0.4","2774393","co39202","norming","","","","","","",""
"null","../img/tt/1279tt.jpg","null","mooney1","image-keyboard-response","35","276852","0.0-6.0-1.4","2774393","co39202","norming","","","","","","",""
"8910","","","post_mooney1_questions","survey-likert","36","285767","0.0-6.0-2.4","2774393","co39202","norming","","","{""curiosity"":3,""confidence"":1}","[0,1]","../img/tt/1279tt.jpg","",""
"2251","","","recognition","survey-text","37","288022","0.0-6.0-3.4","2774393","co39202","norming","","","{""guess"":""geit""}","","../img/tt/1279tt.jpg","",""
"null","../img/gs/1279gs.jpg","null","reveal","image-keyboard-response","38","290027","0.0-6.0-4.4","2774393","co39202","norming","","","","","","",""
"null","../img/tt/1279tt.jpg","null","mooney2","image-keyboard-response","39","292032","0.0-6.0-5.4","2774393","co39202","norming","","","","","","",""
"3316","","","post_reveal_questions","survey-likert","40","295350","0.0-6.0-6.4","2774393","co39202","norming","","","{""aha"":2}","[0]","../img/tt/1279tt.jpg","",""
"null","<div style=""font-size:60px;""> </div>","null","fixation","html-keyboard-response","41","295556","0.0-6.0-0.5","2774393","co39202","norming","","","","","","",""
"null","../img/tt/013tt.jpg","null","mooney1","image-keyboard-response","42","298562","0.0-6.0-1.5","2774393","co39202","norming","","","","","","",""
"6874","","","post_mooney1_questions","survey-likert","43","305438","0.0-6.0-2.5","2774393","co39202","norming","","","{""curiosity"":3,""confidence"":0}","[0,1]","../img/tt/013tt.jpg","",""
"2564","","","recognition","survey-text","44","308006","0.0-6.0-3.5","2774393","co39202","norming","","","{""guess"":""bed ""}","","../img/tt/013tt.jpg","",""
"null","../img/gs/013gs.jpg","null","reveal","image-keyboard-response","45","310009","0.0-6.0-4.5","2774393","co39202","norming","","","","","","",""
"null","../img/tt/013tt.jpg","null","mooney2","image-keyboard-response","46","312012","0.0-6.0-5.5","2774393","co39202","norming","","","","","","",""
"3860","","","post_reveal_questions","survey-likert","47","315873","0.0-6.0-6.5","2774393","co39202","norming","","","{""aha"":4}","[0]","../img/tt/013tt.jpg","",""
"null","<div style=""font-size:60px;""> </div>","null","fixation","html-keyboard-response","48","316076","0.0-6.0-0.6","2774393","co39202","norming","","","","","","",""
"null","../img/tt/118tt.jpg","null","mooney1","image-keyboard-response","49","319083","0.0-6.0-1.6","2774393","co39202","norming","","","","","","",""
"6555","","","post_mooney1_questions","survey-likert","50","325642","0.0-6.0-2.6","2774393","co39202","norming","","","{""curiosity"":4,""confidence"":1}","[0,1]","../img/tt/118tt.jpg","",""
"2595","","","recognition","survey-text","51","328240","0.0-6.0-3.6","2774393","co39202","norming","","","{""guess"":""zebra""}","","../img/tt/118tt.jpg","",""
"null","../img/gs/118gs.jpg","null","reveal","image-keyboard-response","52","330244","0.0-6.0-4.6","2774393","co39202","norming","","","","","","",""
"null","../img/tt/118tt.jpg","null","mooney2","image-keyboard-response","53","332247","0.0-6.0-5.6","2774393","co39202","norming","","","","","","",""
"4277","","","post_reveal_questions","survey-likert","54","336527","0.0-6.0-6.6","2774393","co39202","norming","","","{""aha"":2}","[0]","../img/tt/118tt.jpg","",""
"null","<div style=""font-size:60px;""> </div>","null","fixation","html-keyboard-response","55","336729","0.0-6.0-0.7","2774393","co39202","norming","","","","","","",""
"null","../img/tt/082tt.jpg","null","mooney1","image-keyboard-response","56","339733","0.0-6.0-1.7","2774393","co39202","norming","","","","","","",""
"9780","","","post_mooney1_questions","survey-likert","57","349517","0.0-6.0-2.7","2774393","co39202","norming","","","{""curiosity"":4,""confidence"":0}","[0,1]","../img/tt/082tt.jpg","",""
"2476","","","recognition","survey-text","58","351997","0.0-6.0-3.7","2774393","co39202","norming","","","{""guess"":""paard""}","","../img/tt/082tt.jpg","",""
"null","../img/gs/082gs.jpg","null","reveal","image-keyboard-response","59","354004","0.0-6.0-4.7","2774393","co39202","norming","","","","","","",""
"null","../img/tt/082tt.jpg","null","mooney2","image-keyboard-response","60","356007","0.0-6.0-5.7","2774393","co39202","norming","","","","","","",""
"3375","","","post_reveal_questions","survey-likert","61","359383","0.0-6.0-6.7","2774393","co39202","norming","","","{""aha"":4}","[0]","../img/tt/082tt.jpg","",""
"null","<div style=""font-size:60px;""> </div>","null","fixation","html-keyboard-response","62","359588","0.0-6.0-0.8","2774393","co39202","norming","","","","","","",""
"null","../img/tt/1363tt.jpg","null","mooney1","image-keyboard-response","63","362591","0.0-6.0-1.8","2774393","co39202","norming","","","","","","",""
"6374","","","post_mooney1_questions","survey-likert","64","368967","0.0-6.0-2.8","2774393","co39202","norming","","","{""curiosity"":3,""confidence"":1}","[0,1]","../img/tt/1363tt.jpg","",""
"2557","","","recognition","survey-text","65","371527","0.0-6.0-3.8","2774393","co39202","norming","","","{""guess"":""boot""}","","../img/tt/1363tt.jpg","",""
"null","../img/gs/1363gs.jpg","null","reveal","image-keyboard-response","66","373532","0.0-6.0-4.8","2774393","co39202","norming","","","","","","",""
"null","../img/tt/1363tt.jpg","null","mooney2","image-keyboard-response","67","375536","0.0-6.0-5.8","2774393","co39202","norming","","","","","","",""
"3014","","","post_reveal_questions","survey-likert","68","378553","0.0-6.0-6.8","2774393","co39202","norming","","","{""aha"":3}","[0]","../img/tt/1363tt.jpg","",""
"null","<div style=""font-size:60px;""> </div>","null","fixation","html-keyboard-response","69","378756","0.0-6.0-0.9","2774393","co39202","norming","","","","","","",""
"null","../img/tt/1211tt.jpg","null","mooney1","image-keyboard-response","70","381762","0.0-6.0-1.9","2774393","co39202","norming","","","","","","",""
"6181","","","post_mooney1_questions","survey-likert","71","387946","0.0-6.0-2.9","2774393","co39202","norming","","","{""curiosity"":3,""confidence"":0}","[0,1]","../img/tt/1211tt.jpg","",""
"7325","","","recognition","survey-text","72","395275","0.0-6.0-3.9","2774393","co39202","norming","","","{""guess"":""gras""}","","../img/tt/1211tt.jpg","",""
"null","../img/gs/1211gs.jpg","null","reveal","image-keyboard-response","73","397280","0.0-6.0-4.9","2774393","co39202","norming","","","","","","",""
"null","../img/tt/1211tt.jpg","null","mooney2","image-keyboard-response","74","399282","0.0-6.0-5.9","2774393","co39202","norming","","","","","","",""
"3290","","","post_reveal_questions","survey-likert","75","402574","0.0-6.0-6.9","2774393","co39202","norming","","","{""aha"":3}","[0]","../img/tt/1211tt.jpg","",""
"null","<div style=""font-size:60px;""> </div>","null","fixation","html-keyboard-response","76","402776","0.0-6.0-0.10","2774393","co39202","norming","","","","","","",""
"null","../img/tt/085tt.jpg","null","mooney1","image-keyboard-response","77","405783","0.0-6.0-1.10","2774393","co39202","norming","","","","","","",""
"6829","","","post_mooney1_questions","survey-likert","78","412616","0.0-6.0-2.10","2774393","co39202","norming","","","{""curiosity"":4,""confidence"":1}","[0,1]","../img/tt/085tt.jpg","",""
"2470","","","recognition","survey-text","79","415090","0.0-6.0-3.10","2774393","co39202","norming","","","{""guess"":""vogel""}","","../img/tt/085tt.jpg","",""
"null","../img/gs/085gs.jpg","null","reveal","image-keyboard-response","80","417096","0.0-6.0-4.10","2774393","co39202","norming","","","","","","",""
"null","../img/tt/085tt.jpg","null","mooney2","image-keyboard-response","81","419100","0.0-6.0-5.10","2774393","co39202","norming","","","","","","",""
"2638","","","post_reveal_questions","survey-likert","82","421740","0.0-6.0-6.10","2774393","co39202","norming","","","{""aha"":2}","[0]","../img/tt/085tt.jpg","",""
"null","<div style=""font-size:60px;""> </div>","null","fixation","html-keyboard-response","83","421944","0.0-6.0-0.11","2774393","co39202","norming","","","","","","",""
"null","../img/tt/1118tt.jpg","null","mooney1","image-keyboard-response","84","424946","0.0-6.0-1.11","2774393","co39202","norming","","","","","","",""
"7278","","","post_mooney1_questions","survey-likert","85","432226","0.0-6.0-2.11","2774393","co39202","norming","","","{""curiosity"":4,""confidence"":0}","[0,1]","../img/tt/1118tt.jpg","",""
"2245","","","recognition","survey-text","86","434474","0.0-6.0-3.11","2774393","co39202","norming","","","{""guess"":""boot""}","","../img/tt/1118tt.jpg","",""
"null","../img/gs/1118gs.jpg","null","reveal","image-keyboard-response","87","436479","0.0-6.0-4.11","2774393","co39202","norming","","","","","","",""
"null","../img/tt/1118tt.jpg","null","mooney2","image-keyboard-response","88","438481","0.0-6.0-5.11","2774393","co39202","norming","","","","","","",""
"2112","","","post_reveal_questions","survey-likert","89","440595","0.0-6.0-6.11","2774393","co39202","norming","","","{""aha"":2}","[0]","../img/tt/1118tt.jpg","",""
"null","<div style=""font-size:60px;""> </div>","null","fixation","html-keyboard-response","90","440798","0.0-6.0-0.12","2774393","co39202","norming","","","","","","",""
"null","../img/tt/1040tt.jpg","null","mooney1","image-keyboard-response","91","443799","0.0-6.0-1.12","2774393","co39202","norming","","","","","","",""
"7328","","","post_mooney1_questions","survey-likert","92","448107","0.0-6.0-2.12","2774393","co39202","norming","","","{""curiosity"":4,""confidence"":0}","[0,1]","../img/tt/1040tt.jpg","",""
"4455","","","recognition","survey-text","93","452566","0.0-6.0-3.12","2774393","co39202","norming","","","{""guess"":""nijlpaard""}","","../img/tt/1040tt.jpg","",""
"null","../img/gs/1040gs.jpg","null","reveal","image-keyboard-response","94","454567","0.0-6.0-4.12","2774393","co39202","norming","","","","","","",""
"null","../img/tt/1040tt.jpg","null","mooney2","image-keyboard-response","95","456570","0.0-6.0-5.12","2774393","co39202","norming","","","","","","",""
"2273","","","post_reveal_questions","survey-likert","96","458846","0.0-6.0-6.12","2774393","co39202","norming","","","{""aha"":1}","[0]","../img/tt/1040tt.jpg","",""
"null","<div style=""font-size:60px;""> </div>","null","fixation","html-keyboard-response","97","459050","0.0-6.0-0.13","2774393","co39202","norming","","","","","","",""
"null","../img/tt/1096tt.jpg","null","mooney1","image-keyboard-response","98","462056","0.0-6.0-1.13","2774393","co39202","norming","","","","","","",""
"7045","","","post_mooney1_questions","survey-likert","99","469103","0.0-6.0-2.13","2774393","co39202","norming","","","{""curiosity"":4,""confidence"":0}","[0,1]","../img/tt/1096tt.jpg","",""
"2288","","","recognition","survey-text","100","471394","0.0-6.0-3.13","2774393","co39202","norming","","","{""guess"":""aap""}","","../img/tt/1096tt.jpg","",""
"null","../img/gs/1096gs.jpg","null","reveal","image-keyboard-response","101","473395","0.0-6.0-4.13","2774393","co39202","norming","","","","","","",""
"null","../img/tt/1096tt.jpg","null","mooney2","image-keyboard-response","102","475401","0.0-6.0-5.13","2774393","co39202","norming","","","","","","",""
"2329","","","post_reveal_questions","survey-likert","103","477732","0.0-6.0-6.13","2774393","co39202","norming","","","{""aha"":3}","[0]","../img/tt/1096tt.jpg","",""
"null","<div style=""font-size:60px;""> </div>","null","fixation","html-keyboard-response","104","477938","0.0-6.0-0.14","2774393","co39202","norming","","","","","","",""
"null","../img/tt/184tt.jpg","null","mooney1","image-keyboard-response","105","480940","0.0-6.0-1.14","2774393","co39202","norming","","","","","","",""
"5446","","","post_mooney1_questions","survey-likert","106","486387","0.0-6.0-2.14","2774393","co39202","norming","","","{""curiosity"":4,""confidence"":0}","[0,1]","../img/tt/184tt.jpg","",""
"3271","","","recognition","survey-text","107","489663","0.0-6.0-3.14","2774393","co39202","norming","","","{""guess"":""tortilla""}","","../img/tt/184tt.jpg","",""
"null","../img/gs/184gs.jpg","null","reveal","image-keyboard-response","108","491667","0.0-6.0-4.14","2774393","co39202","norming","","","","","","",""
"null","../img/tt/184tt.jpg","null","mooney2","image-keyboard-response","109","493669","0.0-6.0-5.14","2774393","co39202","norming","","","","","","",""
"1632","","","post_reveal_questions","survey-likert","110","495305","0.0-6.0-6.14","2774393","co39202","norming","","","{""aha"":2}","[0]","../img/tt/184tt.jpg","",""
"null","<div style=""font-size:60px;""> </div>","null","fixation","html-keyboard-response","111","495508","0.0-6.0-0.15","2774393","co39202","norming","","","","","","",""
"null","../img/tt/1186tt.jpg","null","mooney1","image-keyboard-response","112","498514","0.0-6.0-1.15","2774393","co39202","norming","","","","","","",""
"7402","","","post_mooney1_questions","survey-likert","113","505920","0.0-6.0-2.15","2774393","co39202","norming","","","{""curiosity"":3,""confidence"":1}","[0,1]","../img/tt/1186tt.jpg","",""
"3961","","","recognition","survey-text","114","509884","0.0-6.0-3.15","2774393","co39202","norming","","","{""guess"":""wandelaar""}","","../img/tt/1186tt.jpg","",""
"null","../img/gs/1186gs.jpg","null","reveal","image-keyboard-response","115","511889","0.0-6.0-4.15","2774393","co39202","norming","","","","","","",""
"null","../img/tt/1186tt.jpg","null","mooney2","image-keyboard-response","116","513892","0.0-6.0-5.15","2774393","co39202","norming","","","","","","",""
"1815","","","post_reveal_questions","survey-likert","117","515710","0.0-6.0-6.15","2774393","co39202","norming","","","{""aha"":1}","[0]","../img/tt/1186tt.jpg","",""
"null","<div style=""font-size:60px;""> </div>","null","fixation","html-keyboard-response","118","515914","0.0-6.0-0.16","2774393","co39202","norming","","","","","","",""
"null","../img/tt/1307tt.jpg","null","mooney1","image-keyboard-response","119","518917","0.0-6.0-1.16","2774393","co39202","norming","","","","","","",""
"5210","","","post_mooney1_questions","survey-likert","120","524130","0.0-6.0-2.16","2774393","co39202","norming","","","{""curiosity"":4,""confidence"":1}","[0,1]","../img/tt/1307tt.jpg","",""
"4558","","","recognition","survey-text","121","528691","0.0-6.0-3.16","2774393","co39202","norming","","","{""guess"":""buikdanseres""}","","../img/tt/1307tt.jpg","",""
"null","../img/gs/1307gs.jpg","null","reveal","image-keyboard-response","122","530698","0.0-6.0-4.16","2774393","co39202","norming","","","","","","",""
"null","../img/tt/1307tt.jpg","null","mooney2","image-keyboard-response","123","532701","0.0-6.0-5.16","2774393","co39202","norming","","","","","","",""
"2012","","","post_reveal_questions","survey-likert","124","534714","0.0-6.0-6.16","2774393","co39202","norming","","","{""aha"":4}","[0]","../img/tt/1307tt.jpg","",""
"null","<div style=""font-size:60px;""> </div>","null","fixation","html-keyboard-response","125","534918","0.0-6.0-0.17","2774393","co39202","norming","","","","","","",""
"null","../img/tt/020tt.jpg","null","mooney1","image-keyboard-response","126","537920","0.0-6.0-1.17","2774393","co39202","norming","","","","","","",""
"5778","","","post_mooney1_questions","survey-likert","127","543702","0.0-6.0-2.17","2774393","co39202","norming","","","{""curiosity"":3,""confidence"":0}","[0,1]","../img/tt/020tt.jpg","",""
"6375","","","recognition","survey-text","128","550080","0.0-6.0-3.17","2774393","co39202","norming","","","{""guess"":""vrouw ""}","","../img/tt/020tt.jpg","",""
"null","../img/gs/020gs.jpg","null","reveal","image-keyboard-response","129","552082","0.0-6.0-4.17","2774393","co39202","norming","","","","","","",""
"null","../img/tt/020tt.jpg","null","mooney2","image-keyboard-response","130","554086","0.0-6.0-5.17","2774393","co39202","norming","","","","","","",""
"3145","","","post_reveal_questions","survey-likert","131","557232","0.0-6.0-6.17","2774393","co39202","norming","","","{""aha"":2}","[0]","../img/tt/020tt.jpg","",""
"null","<div style=""font-size:60px;""> </div>","null","fixation","html-keyboard-response","132","557435","0.0-6.0-0.18","2774393","co39202","norming","","","","","","",""
"null","../img/tt/1044tt.jpg","null","mooney1","image-keyboard-response","133","560437","0.0-6.0-1.18","2774393","co39202","norming","","","","","","",""
"5687","","","post_mooney1_questions","survey-likert","134","566129","0.0-6.0-2.18","2774393","co39202","norming","","","{""curiosity"":3,""confidence"":0}","[0,1]","../img/tt/1044tt.jpg","",""
"5140","","","recognition","survey-text","135","571273","0.0-6.0-3.18","2774393","co39202","norming","","","{""guess"":""""}","","../img/tt/1044tt.jpg","",""
"null","../img/gs/1044gs.jpg","null","reveal","image-keyboard-response","136","573277","0.0-6.0-4.18","2774393","co39202","norming","","","","","","",""
"null","../img/tt/1044tt.jpg","null","mooney2","image-keyboard-response","137","575279","0.0-6.0-5.18","2774393","co39202","norming","","","","","","",""
"3294","","","post_reveal_questions","survey-likert","138","578576","0.0-6.0-6.18","2774393","co39202","norming","","","{""aha"":3}","[0]","../img/tt/1044tt.jpg","",""
"null","<div style=""font-size:60px;""> </div>","null","fixation","html-keyboard-response","139","578779","0.0-6.0-0.19","2774393","co39202","norming","","","","","","",""
"null","../img/tt/412tt.jpg","null","mooney1","image-keyboard-response","140","581786","0.0-6.0-1.19","2774393","co39202","norming","","","","","","",""
"6897","","","post_mooney1_questions","survey-likert","141","588686","0.0-6.0-2.19","2774393","co39202","norming","","","{""curiosity"":4,""confidence"":5}","[0,1]","../img/tt/412tt.jpg","",""
"4617","","","recognition","survey-text","142","593307","0.0-6.0-3.19","2774393","co39202","norming","","","{""guess"":""man met geweer""}","","../img/tt/412tt.jpg","",""
"null","../img/gs/412gs.jpg","null","reveal","image-keyboard-response","143","595311","0.0-6.0-4.19","2774393","co39202","norming","","","","","","",""
"null","../img/tt/412tt.jpg","null","mooney2","image-keyboard-response","144","597317","0.0-6.0-5.19","2774393","co39202","norming","","","","","","",""
"3280","","","post_reveal_questions","survey-likert","145","600598","0.0-6.0-6.19","2774393","co39202","norming","","","{""aha"":6}","[0]","../img/tt/412tt.jpg","",""
"null","<div style=""font-size:60px;""> </div>","null","fixation","html-keyboard-response","146","600803","0.0-6.0-0.20","2774393","co39202","norming","","","","","","",""
"null","../img/tt/1217tt.jpg","null","mooney1","image-keyboard-response","147","603805","0.0-6.0-1.20","2774393","co39202","norming","","","","","","",""
"12465","","","post_mooney1_questions","survey-likert","148","616272","0.0-6.0-2.20","2774393","co39202","norming","","","{""curiosity"":4,""confidence"":1}","[0,1]","../img/tt/1217tt.jpg","",""
"6315","","","recognition","survey-text","149","622591","0.0-6.0-3.20","2774393","co39202","norming","","","{""guess"":""koor""}","","../img/tt/1217tt.jpg","",""
"null","../img/gs/1217gs.jpg","null","reveal","image-keyboard-response","150","624596","0.0-6.0-4.20","2774393","co39202","norming","","","","","","",""
"null","../img/tt/1217tt.jpg","null","mooney2","image-keyboard-response","151","626600","0.0-6.0-5.20","2774393","co39202","norming","","","","","","",""
"3769","","","post_reveal_questions","survey-likert","152","630371","0.0-6.0-6.20","2774393","co39202","norming","","","{""aha"":5}","[0]","../img/tt/1217tt.jpg","",""
"null","<div style=""font-size:60px;""> </div>","null","fixation","html-keyboard-response","153","630577","0.0-6.0-0.21","2774393","co39202","norming","","","","","","",""
"null","../img/tt/1202tt.jpg","null","mooney1","image-keyboard-response","154","633583","0.0-6.0-1.21","2774393","co39202","norming","","","","","","",""
"6374","","","post_mooney1_questions","survey-likert","155","639960","0.0-6.0-2.21","2774393","co39202","norming","","","{""curiosity"":3,""confidence"":0}","[0,1]","../img/tt/1202tt.jpg","",""
"932","","","recognition","survey-text","156","640896","0.0-6.0-3.21","2774393","co39202","norming","","","{""guess"":""""}","","../img/tt/1202tt.jpg","",""
"null","../img/gs/1202gs.jpg","null","reveal","image-keyboard-response","157","642900","0.0-6.0-4.21","2774393","co39202","norming","","","","","","",""
"null","../img/tt/1202tt.jpg","null","mooney2","image-keyboard-response","158","644903","0.0-6.0-5.21","2774393","co39202","norming","","","","","","",""
"4629","","","post_reveal_questions","survey-likert","159","649534","0.0-6.0-6.21","2774393","co39202","norming","","","{""aha"":3}","[0]","../img/tt/1202tt.jpg","",""
"null","<div style=""font-size:60px;""> </div>","null","fixation","html-keyboard-response","160","649738","0.0-6.0-0.22","2774393","co39202","norming","","","","","","",""
"null","../img/tt/1006tt.jpg","null","mooney1","image-keyboard-response","161","652743","0.0-6.0-1.22","2774393","co39202","norming","","","","","","",""
"4781","","","post_mooney1_questions","survey-likert","162","657524","0.0-6.0-2.22","2774393","co39202","norming","","","{""curiosity"":5,""confidence"":1}","[0,1]","../img/tt/1006tt.jpg","",""
"2442","","","recognition","survey-text","163","659971","0.0-6.0-3.22","2774393","co39202","norming","","","{""guess"":""geiten""}","","../img/tt/1006tt.jpg","",""
"null","../img/gs/1006gs.jpg","null","reveal","image-keyboard-response","164","661975","0.0-6.0-4.22","2774393","co39202","norming","","","","","","",""
"null","../img/tt/1006tt.jpg","null","mooney2","image-keyboard-response","165","663977","0.0-6.0-5.22","2774393","co39202","norming","","","","","","",""
"2164","","","post_reveal_questions","survey-likert","166","666143","0.0-6.0-6.22","2774393","co39202","norming","","","{""aha"":0}","[0]","../img/tt/1006tt.jpg","",""
"null","<div style=""font-size:60px;""> </div>","null","fixation","html-keyboard-response","167","666347","0.0-6.0-0.23","2774393","co39202","norming","","","","","","",""
"null","../img/tt/481tt.jpg","null","mooney1","image-keyboard-response","168","669352","0.0-6.0-1.23","2774393","co39202","norming","","","","","","",""
"4954","","","post_mooney1_questions","survey-likert","169","674310","0.0-6.0-2.23","2774393","co39202","norming","","","{""curiosity"":4,""confidence"":1}","[0,1]","../img/tt/481tt.jpg","",""
"1975","","","recognition","survey-text","170","676289","0.0-6.0-3.23","2774393","co39202","norming","","","{""guess"":""koe""}","","../img/tt/481tt.jpg","",""
"null","../img/gs/481gs.jpg","null","reveal","image-keyboard-response","171","678291","0.0-6.0-4.23","2774393","co39202","norming","","","","","","",""
"null","../img/tt/481tt.jpg","null","mooney2","image-keyboard-response","172","680295","0.0-6.0-5.23","2774393","co39202","norming","","","","","","",""
"2114","","","post_reveal_questions","survey-likert","173","682411","0.0-6.0-6.23","2774393","co39202","norming","","","{""aha"":2}","[0]","../img/tt/481tt.jpg","",""
"null","<div style=""font-size:60px;""> </div>","null","fixation","html-keyboard-response","174","682616","0.0-6.0-0.24","2774393","co39202","norming","","","","","","",""
"null","../img/tt/1033tt.jpg","null","mooney1","image-keyboard-response","175","685620","0.0-6.0-1.24","2774393","co39202","norming","","","","","","",""
"8983","","","post_mooney1_questions","survey-likert","176","694604","0.0-6.0-2.24","2774393","co39202","norming","","","{""curiosity"":6,""confidence"":1}","[0,1]","../img/tt/1033tt.jpg","",""
"3909","","","recognition","survey-text","177","698517","0.0-6.0-3.24","2774393","co39202","norming","","","{""guess"":""speerwerper""}","","../img/tt/1033tt.jpg","",""
"null","../img/gs/1033gs.jpg","null","reveal","image-keyboard-response","178","700519","0.0-6.0-4.24","2774393","co39202","norming","","","","","","",""
"null","../img/tt/1033tt.jpg","null","mooney2","image-keyboard-response","179","702521","0.0-6.0-5.24","2774393","co39202","norming","","","","","","",""
"2282","","","post_reveal_questions","survey-likert","180","704805","0.0-6.0-6.24","2774393","co39202","norming","","","{""aha"":2}","[0]","../img/tt/1033tt.jpg","",""
"null","<div style=""font-size:60px;""> </div>","null","fixation","html-keyboard-response","181","705011","0.0-6.0-0.25","2774393","co39202","norming","","","","","","",""
"null","../img/tt/1066tt.jpg","null","mooney1","image-keyboard-response","182","708013","0.0-6.0-1.25","2774393","co39202","norming","","","","","","",""
"3840","","","post_mooney1_questions","survey-likert","183","711856","0.0-6.0-2.25","2774393","co39202","norming","","","{""curiosity"":5,""confidence"":3}","[0,1]","../img/tt/1066tt.jpg","",""
"1849","","","recognition","survey-text","184","713709","0.0-6.0-3.25","2774393","co39202","norming","","","{""guess"":""bus""}","","../img/tt/1066tt.jpg","",""
"null","../img/gs/1066gs.jpg","null","reveal","image-keyboard-response","185","715714","0.0-6.0-4.25","2774393","co39202","norming","","","","","","",""
"null","../img/tt/1066tt.jpg","null","mooney2","image-keyboard-response","186","717718","0.0-6.0-5.25","2774393","co39202","norming","","","","","","",""
"2032","","","post_reveal_questions","survey-likert","187","719754","0.0-6.0-6.25","2774393","co39202","norming","","","{""aha"":0}","[0]","../img/tt/1066tt.jpg","",""
"null","<div style=""font-size:60px;""> </div>","null","fixation","html-keyboard-response","188","719959","0.0-6.0-0.26","2774393","co39202","norming","","","","","","",""
"null","../img/tt/064tt.jpg","null","mooney1","image-keyboard-response","189","722962","0.0-6.0-1.26","2774393","co39202","norming","","","","","","",""
"3891","","","post_mooney1_questions","survey-likert","190","726856","0.0-6.0-2.26","2774393","co39202","norming","","","{""curiosity"":5,""confidence"":0}","[0,1]","../img/tt/064tt.jpg","",""
"980","","","recognition","survey-text","191","727839","0.0-6.0-3.26","2774393","co39202","norming","","","{""guess"":""""}","","../img/tt/064tt.jpg","",""
"null","../img/gs/064gs.jpg","null","reveal","image-keyboard-response","192","729844","0.0-6.0-4.26","2774393","co39202","norming","","","","","","",""
"null","../img/tt/064tt.jpg","null","mooney2","image-keyboard-response","193","731848","0.0-6.0-5.26","2774393","co39202","norming","","","","","","",""
"2215","","","post_reveal_questions","survey-likert","194","734065","0.0-6.0-6.26","2774393","co39202","norming","","","{""aha"":2}","[0]","../img/tt/064tt.jpg","",""
"null","<div style=""font-size:60px;""> </div>","null","fixation","html-keyboard-response","195","734268","0.0-6.0-0.27","2774393","co39202","norming","","","","","","",""
"null","../img/tt/060tt.jpg","null","mooney1","image-keyboard-response","196","737274","0.0-6.0-1.27","2774393","co39202","norming","","","","","","",""
"6996","","","post_mooney1_questions","survey-likert","197","744273","0.0-6.0-2.27","2774393","co39202","norming","","","{""curiosity"":4,""confidence"":1}","[0,1]","../img/tt/060tt.jpg","",""
"3861","","","recognition","survey-text","198","748139","0.0-6.0-3.27","2774393","co39202","norming","","","{""guess"":""paddestoel""}","","../img/tt/060tt.jpg","",""
"null","../img/gs/060gs.jpg","null","reveal","image-keyboard-response","199","750144","0.0-6.0-4.27","2774393","co39202","norming","","","","","","",""
"null","../img/tt/060tt.jpg","null","mooney2","image-keyboard-response","200","752146","0.0-6.0-5.27","2774393","co39202","norming","","","","","","",""
"2545","","","post_reveal_questions","survey-likert","201","754693","0.0-6.0-6.27","2774393","co39202","norming","","","{""aha"":2}","[0]","../img/tt/060tt.jpg","",""
"null","<div style=""font-size:60px;""> </div>","null","fixation","html-keyboard-response","202","754899","0.0-6.0-0.28","2774393","co39202","norming","","","","","","",""
"null","../img/tt/126tt.jpg","null","mooney1","image-keyboard-response","203","757903","0.0-6.0-1.28","2774393","co39202","norming","","","","","","",""
"5035","","","post_mooney1_questions","survey-likert","204","762941","0.0-6.0-2.28","2774393","co39202","norming","","","{""curiosity"":3,""confidence"":0}","[0,1]","../img/tt/126tt.jpg","",""
"973","","","recognition","survey-text","205","763918","0.0-6.0-3.28","2774393","co39202","norming","","","{""guess"":""""}","","../img/tt/126tt.jpg","",""
"null","../img/gs/126gs.jpg","null","reveal","image-keyboard-response","206","765922","0.0-6.0-4.28","2774393","co39202","norming","","","","","","",""
"null","../img/tt/126tt.jpg","null","mooney2","image-keyboard-response","207","767925","0.0-6.0-5.28","2774393","co39202","norming","","","","","","",""
"2841","","","post_reveal_questions","survey-likert","208","770768","0.0-6.0-6.28","2774393","co39202","norming","","","{""aha"":2}","[0]","../img/tt/126tt.jpg","",""
"null","<div style=""font-size:60px;""> </div>","null","fixation","html-keyboard-response","209","770974","0.0-6.0-0.29","2774393","co39202","norming","","","","","","",""
"null","../img/tt/1107tt.jpg","null","mooney1","image-keyboard-response","210","773977","0.0-6.0-1.29","2774393","co39202","norming","","","","","","",""
"6226","","","post_mooney1_questions","survey-likert","211","780207","0.0-6.0-2.29","2774393","co39202","norming","","","{""curiosity"":3,""confidence"":0}","[0,1]","../img/tt/1107tt.jpg","",""
"1015","","","recognition","survey-text","212","781226","0.0-6.0-3.29","2774393","co39202","norming","","","{""guess"":""""}","","../img/tt/1107tt.jpg","",""
"null","../img/gs/1107gs.jpg","null","reveal","image-keyboard-response","213","783226","0.0-6.0-4.29","2774393","co39202","norming","","","","","","",""
"null","../img/tt/1107tt.jpg","null","mooney2","image-keyboard-response","214","785229","0.0-6.0-5.29","2774393","co39202","norming","","","","","","",""
"2876","","","post_reveal_questions","survey-likert","215","788107","0.0-6.0-6.29","2774393","co39202","norming","","","{""aha"":4}","[0]","../img/tt/1107tt.jpg","",""
"null","<div style=""font-size:60px;""> </div>","null","fixation","html-keyboard-response","216","788310","0.0-6.0-0.30","2774393","co39202","norming","","","","","","",""
"null","../img/tt/112tt.jpg","null","mooney1","image-keyboard-response","217","791314","0.0-6.0-1.30","2774393","co39202","norming","","","","","","",""
"3942","","","post_mooney1_questions","survey-likert","218","795259","0.0-6.0-2.30","2774393","co39202","norming","","","{""curiosity"":5,""confidence"":1}","[0,1]","../img/tt/112tt.jpg","",""
"2965","","","recognition","survey-text","219","798228","0.0-6.0-3.30","2774393","co39202","norming","","","{""guess"":""fles wijn""}","","../img/tt/112tt.jpg","",""
"null","../img/gs/112gs.jpg","null","reveal","image-keyboard-response","220","800233","0.0-6.0-4.30","2774393","co39202","norming","","","","","","",""
"null","../img/tt/112tt.jpg","null","mooney2","image-keyboard-response","221","802236","0.0-6.0-5.30","2774393","co39202","norming","","","","","","",""
"2584","","","post_reveal_questions","survey-likert","222","804823","0.0-6.0-6.30","2774393","co39202","norming","","","{""aha"":4}","[0]","../img/tt/112tt.jpg","",""
"null","<div style=""font-size:60px;""> </div>","null","fixation","html-keyboard-response","223","805029","0.0-6.0-0.31","2774393","co39202","norming","","","","","","",""
"null","../img/tt/055tt.jpg","null","mooney1","image-keyboard-response","224","808032","0.0-6.0-1.31","2774393","co39202","norming","","","","","","",""
"3971","","","post_mooney1_questions","survey-likert","225","812006","0.0-6.0-2.31","2774393","co39202","norming","","","{""curiosity"":4,""confidence"":0}","[0,1]","../img/tt/055tt.jpg","",""
"987","","","recognition","survey-text","226","812996","0.0-6.0-3.31","2774393","co39202","norming","","","{""guess"":""""}","","../img/tt/055tt.jpg","",""
"null","../img/gs/055gs.jpg","null","reveal","image-keyboard-response","227","815003","0.0-6.0-4.31","2774393","co39202","norming","","","","","","",""
"null","../img/tt/055tt.jpg","null","mooney2","image-keyboard-response","228","817005","0.0-6.0-5.31","2774393","co39202","norming","","","","","","",""
"3708","","","post_reveal_questions","survey-likert","229","820716","0.0-6.0-6.31","2774393","co39202","norming","","","{""aha"":2}","[0]","../img/tt/055tt.jpg","",""
"null","<div style=""font-size:60px;""> </div>","null","fixation","html-keyboard-response","230","820922","0.0-6.0-0.32","2774393","co39202","norming","","","","","","",""
"null","../img/tt/094tt.jpg","null","mooney1","image-keyboard-response","231","823928","0.0-6.0-1.32","2774393","co39202","norming","","","","","","",""
"4459","","","post_mooney1_questions","survey-likert","232","828389","0.0-6.0-2.32","2774393","co39202","norming","","","{""curiosity"":2,""confidence"":0}","[0,1]","../img/tt/094tt.jpg","",""
"956","","","recognition","survey-text","233","829350","0.0-6.0-3.32","2774393","co39202","norming","","","{""guess"":""""}","","../img/tt/094tt.jpg","",""
"null","../img/gs/094gs.jpg","null","reveal","image-keyboard-response","234","831354","0.0-6.0-4.32","2774393","co39202","norming","","","","","","",""
"null","../img/tt/094tt.jpg","null","mooney2","image-keyboard-response","235","833356","0.0-6.0-5.32","2774393","co39202","norming","","","","","","",""
"4045","","","post_reveal_questions","survey-likert","236","837403","0.0-6.0-6.32","2774393","co39202","norming","","","{""aha"":2}","[0]","../img/tt/094tt.jpg","",""
"null","<div style=""font-size:60px;""> </div>","null","fixation","html-keyboard-response","237","837606","0.0-6.0-0.33","2774393","co39202","norming","","","","","","",""
"null","../img/tt/1063tt.jpg","null","mooney1","image-keyboard-response","238","840612","0.0-6.0-1.33","2774393","co39202","norming","","","","","","",""
"4365","","","post_mooney1_questions","survey-likert","239","844981","0.0-6.0-2.33","2774393","co39202","norming","","","{""curiosity"":5,""confidence"":1}","[0,1]","../img/tt/1063tt.jpg","",""
"1951","","","recognition","survey-text","240","846937","0.0-6.0-3.33","2774393","co39202","norming","","","{""guess"":""paard""}","","../img/tt/1063tt.jpg","",""
"null","../img/gs/1063gs.jpg","null","reveal","image-keyboard-response","241","848942","0.0-6.0-4.33","2774393","co39202","norming","","","","","","",""
"null","../img/tt/1063tt.jpg","null","mooney2","image-keyboard-response","242","850944","0.0-6.0-5.33","2774393","co39202","norming","","","","","","",""
"2055","","","post_reveal_questions","survey-likert","243","853001","0.0-6.0-6.33","2774393","co39202","norming","","","{""aha"":0}","[0]","../img/tt/1063tt.jpg","",""
"null","<div style=""font-size:60px;""> </div>","null","fixation","html-keyboard-response","244","853203","0.0-6.0-0.34","2774393","co39202","norming","","","","","","",""
"null","../img/tt/603tt.jpg","null","mooney1","image-keyboard-response","245","856210","0.0-6.0-1.34","2774393","co39202","norming","","","","","","",""
"6867","","","post_mooney1_questions","survey-likert","246","863080","0.0-6.0-2.34","2774393","co39202","norming","","","{""curiosity"":3,""confidence"":0}","[0,1]","../img/tt/603tt.jpg","",""
"1229","","","recognition","survey-text","247","864314","0.0-6.0-3.34","2774393","co39202","norming","","","{""guess"":""""}","","../img/tt/603tt.jpg","",""
"null","../img/gs/603gs.jpg","null","reveal","image-keyboard-response","248","866319","0.0-6.0-4.34","2774393","co39202","norming","","","","","","",""
"null","../img/tt/603tt.jpg","null","mooney2","image-keyboard-response","249","868324","0.0-6.0-5.34","2774393","co39202","norming","","","","","","",""
"3145","","","post_reveal_questions","survey-likert","250","871472","0.0-6.0-6.34","2774393","co39202","norming","","","{""aha"":3}","[0]","../img/tt/603tt.jpg","",""
"null","<div style=""font-size:60px;""> </div>","null","fixation","html-keyboard-response","251","871676","0.0-6.0-0.35","2774393","co39202","norming","","","","","","",""
"null","../img/tt/559tt.jpg","null","mooney1","image-keyboard-response","252","874681","0.0-6.0-1.35","2774393","co39202","norming","","","","","","",""
"4388","","","post_mooney1_questions","survey-likert","253","879071","0.0-6.0-2.35","2774393","co39202","norming","","","{""curiosity"":4,""confidence"":0}","[0,1]","../img/tt/559tt.jpg","",""
"717","","","recognition","survey-text","254","879793","0.0-6.0-3.35","2774393","co39202","norming","","","{""guess"":""""}","","../img/tt/559tt.jpg","",""
"null","../img/gs/559gs.jpg","null","reveal","image-keyboard-response","255","881798","0.0-6.0-4.35","2774393","co39202","norming","","","","","","",""
"null","../img/tt/559tt.jpg","null","mooney2","image-keyboard-response","256","883800","0.0-6.0-5.35","2774393","co39202","norming","","","","","","",""
"2372","","","post_reveal_questions","survey-likert","257","886175","0.0-6.0-6.35","2774393","co39202","norming","","","{""aha"":5}","[0]","../img/tt/559tt.jpg","",""
"null","<div style=""font-size:60px;""> </div>","null","fixation","html-keyboard-response","258","886377","0.0-6.0-0.36","2774393","co39202","norming","","","","","","",""
"null","../img/tt/1024tt.jpg","null","mooney1","image-keyboard-response","259","889379","0.0-6.0-1.36","2774393","co39202","norming","","","","","","",""
"6790","","","post_mooney1_questions","survey-likert","260","896171","0.0-6.0-2.36","2774393","co39202","norming","","","{""curiosity"":5,""confidence"":1}","[0,1]","../img/tt/1024tt.jpg","",""
"2941","","","recognition","survey-text","261","899117","0.0-6.0-3.36","2774393","co39202","norming","","","{""guess"":""iemand die zit""}","","../img/tt/1024tt.jpg","",""
"null","../img/gs/1024gs.jpg","null","reveal","image-keyboard-response","262","901122","0.0-6.0-4.36","2774393","co39202","norming","","","","","","",""
"null","../img/tt/1024tt.jpg","null","mooney2","image-keyboard-response","263","903124","0.0-6.0-5.36","2774393","co39202","norming","","","","","","",""
"3379","","","post_reveal_questions","survey-likert","264","906506","0.0-6.0-6.36","2774393","co39202","norming","","","{""aha"":5}","[0]","../img/tt/1024tt.jpg","",""
"null","<div style=""font-size:60px;""> </div>","null","fixation","html-keyboard-response","265","906712","0.0-6.0-0.37","2774393","co39202","norming","","","","","","",""
"null","../img/tt/091tt.jpg","null","mooney1","image-keyboard-response","266","909714","0.0-6.0-1.37","2774393","co39202","norming","","","","","","",""
"3668","","","post_mooney1_questions","survey-likert","267","913385","0.0-6.0-2.37","2774393","co39202","norming","","","{""curiosity"":5,""confidence"":1}","[0,1]","../img/tt/091tt.jpg","",""
"2835","","","recognition","survey-text","268","916224","0.0-6.0-3.37","2774393","co39202","norming","","","{""guess"":""krokkodil""}","","../img/tt/091tt.jpg","",""
"null","../img/gs/091gs.jpg","null","reveal","image-keyboard-response","269","918228","0.0-6.0-4.37","2774393","co39202","norming","","","","","","",""
"null","../img/tt/091tt.jpg","null","mooney2","image-keyboard-response","270","920234","0.0-6.0-5.37","2774393","co39202","norming","","","","","","",""
"2488","","","post_reveal_questions","survey-likert","271","922725","0.0-6.0-6.37","2774393","co39202","norming","","","{""aha"":5}","[0]","../img/tt/091tt.jpg","",""
"null","<div style=""font-size:60px;""> </div>","null","fixation","html-keyboard-response","272","922930","0.0-6.0-0.38","2774393","co39202","norming","","","","","","",""
"null","../img/tt/301tt.jpg","null","mooney1","image-keyboard-response","273","925937","0.0-6.0-1.38","2774393","co39202","norming","","","","","","",""
"5535","","","post_mooney1_questions","survey-likert","274","931475","0.0-6.0-2.38","2774393","co39202","norming","","","{""curiosity"":4,""confidence"":0}","[0,1]","../img/tt/301tt.jpg","",""
"1502","","","recognition","survey-text","275","932982","0.0-6.0-3.38","2774393","co39202","norming","","","{""guess"":""""}","","../img/tt/301tt.jpg","",""
"null","../img/gs/301gs.jpg","null","reveal","image-keyboard-response","276","934987","0.0-6.0-4.38","2774393","co39202","norming","","","","","","",""
"null","../img/tt/301tt.jpg","null","mooney2","image-keyboard-response","277","936990","0.0-6.0-5.38","2774393","co39202","norming","","","","","","",""
"3025","","","post_reveal_questions","survey-likert","278","940018","0.0-6.0-6.38","2774393","co39202","norming","","","{""aha"":4}","[0]","../img/tt/301tt.jpg","",""
"null","<div style=""font-size:60px;""> </div>","null","fixation","html-keyboard-response","279","940223","0.0-6.0-0.39","2774393","co39202","norming","","","","","","",""
"null","../img/tt/497tt.jpg","null","mooney1","image-keyboard-response","280","943226","0.0-6.0-1.39","2774393","co39202","norming","","","","","","",""
"4709","","","post_mooney1_questions","survey-likert","281","947937","0.0-6.0-2.39","2774393","co39202","norming","","","{""curiosity"":3,""confidence"":0}","[0,1]","../img/tt/497tt.jpg","",""
"942","","","recognition","survey-text","282","948881","0.0-6.0-3.39","2774393","co39202","norming","","","{""guess"":""""}","","../img/tt/497tt.jpg","",""
"null","../img/gs/497gs.jpg","null","reveal","image-keyboard-response","283","950887","0.0-6.0-4.39","2774393","co39202","norming","","","","","","",""
"null","../img/tt/497tt.jpg","null","mooney2","image-keyboard-response","284","952889","0.0-6.0-5.39","2774393","co39202","norming","","","","","","",""
"2570","","","post_reveal_questions","survey-likert","285","955463","0.0-6.0-6.39","2774393","co39202","norming","","","{""aha"":4}","[0]","../img/tt/497tt.jpg","",""
"null","<div style=""font-size:60px;""> </div>","null","fixation","html-keyboard-response","286","955667","0.0-6.0-0.40","2774393","co39202","norming","","","","","","",""
"null","../img/tt/007tt.jpg","null","mooney1","image-keyboard-response","287","958671","0.0-6.0-1.40","2774393","co39202","norming","","","","","","",""
"5741","","","post_mooney1_questions","survey-likert","288","964416","0.0-6.0-2.40","2774393","co39202","norming","","","{""curiosity"":5,""confidence"":0}","[0,1]","../img/tt/007tt.jpg","",""
"780","","","recognition","survey-text","289","965200","0.0-6.0-3.40","2774393","co39202","norming","","","{""guess"":""""}","","../img/tt/007tt.jpg","",""
"null","../img/gs/007gs.jpg","null","reveal","image-keyboard-response","290","967204","0.0-6.0-4.40","2774393","co39202","norming","","","","","","",""
"null","../img/tt/007tt.jpg","null","mooney2","image-keyboard-response","291","969208","0.0-6.0-5.40","2774393","co39202","norming","","","","","","",""
"2218","","","post_reveal_questions","survey-likert","292","971428","0.0-6.0-6.40","2774393","co39202","norming","","","{""aha"":4}","[0]","../img/tt/007tt.jpg","",""
"null","<div style=""font-size:60px;""> </div>","null","fixation","html-keyboard-response","293","971632","0.0-6.0-0.41","2774393","co39202","norming","","","","","","",""
"null","../img/tt/1200tt.jpg","null","mooney1","image-keyboard-response","294","974640","0.0-6.0-1.41","2774393","co39202","norming","","","","","","",""
"4119","","","post_mooney1_questions","survey-likert","295","978761","0.0-6.0-2.41","2774393","co39202","norming","","","{""curiosity"":2,""confidence"":0}","[0,1]","../img/tt/1200tt.jpg","",""
"943","","","recognition","survey-text","296","979709","0.0-6.0-3.41","2774393","co39202","norming","","","{""guess"":""""}","","../img/tt/1200tt.jpg","",""
"null","../img/gs/1200gs.jpg","null","reveal","image-keyboard-response","297","981710","0.0-6.0-4.41","2774393","co39202","norming","","","","","","",""
"null","../img/tt/1200tt.jpg","null","mooney2","image-keyboard-response","298","983713","0.0-6.0-5.41","2774393","co39202","norming","","","","","","",""
"3104","","","post_reveal_questions","survey-likert","299","986819","0.0-6.0-6.41","2774393","co39202","norming","","","{""aha"":3}","[0]","../img/tt/1200tt.jpg","",""
"null","<div style=""font-size:60px;""> </div>","null","fixation","html-keyboard-response","300","987022","0.0-6.0-0.42","2774393","co39202","norming","","","","","","",""
"null","../img/tt/053tt.jpg","null","mooney1","image-keyboard-response","301","990028","0.0-6.0-1.42","2774393","co39202","norming","","","","","","",""
"5327","","","post_mooney1_questions","survey-likert","302","995357","0.0-6.0-2.42","2774393","co39202","norming","","","{""curiosity"":4,""confidence"":1}","[0,1]","../img/tt/053tt.jpg","",""
"2485","","","recognition","survey-text","303","997846","0.0-6.0-3.42","2774393","co39202","norming","","","{""guess"":""hek""}","","../img/tt/053tt.jpg","",""
"null","../img/gs/053gs.jpg","null","reveal","image-keyboard-response","304","999851","0.0-6.0-4.42","2774393","co39202","norming","","","","","","",""
"null","../img/tt/053tt.jpg","null","mooney2","image-keyboard-response","305","1001854","0.0-6.0-5.42","2774393","co39202","norming","","","","","","",""
"3837","","","post_reveal_questions","survey-likert","306","1005693","0.0-6.0-6.42","2774393","co39202","norming","","","{""aha"":3}","[0]","../img/tt/053tt.jpg","",""
"null","<div style=""font-size:60px;""> </div>","null","fixation","html-keyboard-response","307","1005899","0.0-6.0-0.43","2774393","co39202","norming","","","","","","",""
"null","../img/tt/096tt.jpg","null","mooney1","image-keyboard-response","308","1008899","0.0-6.0-1.43","2774393","co39202","norming","","","","","","",""
"7220","","","post_mooney1_questions","survey-likert","309","1016121","0.0-6.0-2.43","2774393","co39202","norming","","","{""curiosity"":2,""confidence"":1}","[0,1]","../img/tt/096tt.jpg","",""
"3989","","","recognition","survey-text","310","1020115","0.0-6.0-3.43","2774393","co39202","norming","","","{""guess"":""nietjesmachine""}","","../img/tt/096tt.jpg","",""
"null","../img/gs/096gs.jpg","null","reveal","image-keyboard-response","311","1022118","0.0-6.0-4.43","2774393","co39202","norming","","","","","","",""
"null","../img/tt/096tt.jpg","null","mooney2","image-keyboard-response","312","1024123","0.0-6.0-5.43","2774393","co39202","norming","","","","","","",""
"2167","","","post_reveal_questions","survey-likert","313","1026290","0.0-6.0-6.43","2774393","co39202","norming","","","{""aha"":2}","[0]","../img/tt/096tt.jpg","",""
"null","<div style=""font-size:60px;""> </div>","null","fixation","html-keyboard-response","314","1026494","0.0-6.0-0.44","2774393","co39202","norming","","","","","","",""
"null","../img/tt/329tt.jpg","null","mooney1","image-keyboard-response","315","1029498","0.0-6.0-1.44","2774393","co39202","norming","","","","","","",""
"5357","","","post_mooney1_questions","survey-likert","316","1034857","0.0-6.0-2.44","2774393","co39202","norming","","","{""curiosity"":2,""confidence"":0}","[0,1]","../img/tt/329tt.jpg","",""
"1044","","","recognition","survey-text","317","1035907","0.0-6.0-3.44","2774393","co39202","norming","","","{""guess"":""""}","","../img/tt/329tt.jpg","",""
"null","../img/gs/329gs.jpg","null","reveal","image-keyboard-response","318","1037912","0.0-6.0-4.44","2774393","co39202","norming","","","","","","",""
"null","../img/tt/329tt.jpg","null","mooney2","image-keyboard-response","319","1039915","0.0-6.0-5.44","2774393","co39202","norming","","","","","","",""
"2010","","","post_reveal_questions","survey-likert","320","1041927","0.0-6.0-6.44","2774393","co39202","norming","","","{""aha"":2}","[0]","../img/tt/329tt.jpg","",""
"null","<div style=""font-size:60px;""> </div>","null","fixation","html-keyboard-response","321","1042133","0.0-6.0-0.45","2774393","co39202","norming","","","","","","",""
"null","../img/tt/189tt.jpg","null","mooney1","image-keyboard-response","322","1045140","0.0-6.0-1.45","2774393","co39202","norming","","","","","","",""
"3904","","","post_mooney1_questions","survey-likert","323","1049048","0.0-6.0-2.45","2774393","co39202","norming","","","{""curiosity"":4,""confidence"":1}","[0,1]","../img/tt/189tt.jpg","",""
"2689","","","recognition","survey-text","324","1051743","0.0-6.0-3.45","2774393","co39202","norming","","","{""guess"":""surfer""}","","../img/tt/189tt.jpg","",""
"null","../img/gs/189gs.jpg","null","reveal","image-keyboard-response","325","1053748","0.0-6.0-4.45","2774393","co39202","norming","","","","","","",""
"null","../img/tt/189tt.jpg","null","mooney2","image-keyboard-response","326","1055751","0.0-6.0-5.45","2774393","co39202","norming","","","","","","",""
"2852","","","post_reveal_questions","survey-likert","327","1058604","0.0-6.0-6.45","2774393","co39202","norming","","","{""aha"":4}","[0]","../img/tt/189tt.jpg","",""
"null","<div style=""font-size:60px;""> </div>","null","fixation","html-keyboard-response","328","1058810","0.0-6.0-0.46","2774393","co39202","norming","","","","","","",""
"null","../img/tt/1043tt.jpg","null","mooney1","image-keyboard-response","329","1061811","0.0-6.0-1.46","2774393","co39202","norming","","","","","","",""
"4965","","","post_mooney1_questions","survey-likert","330","1066781","0.0-6.0-2.46","2774393","co39202","norming","","","{""curiosity"":2,""confidence"":0}","[0,1]","../img/tt/1043tt.jpg","",""
"1207","","","recognition","survey-text","331","1067990","0.0-6.0-3.46","2774393","co39202","norming","","","{""guess"":""""}","","../img/tt/1043tt.jpg","",""
"null","../img/gs/1043gs.jpg","null","reveal","image-keyboard-response","332","1069996","0.0-6.0-4.46","2774393","co39202","norming","","","","","","",""
"null","../img/tt/1043tt.jpg","null","mooney2","image-keyboard-response","333","1071999","0.0-6.0-5.46","2774393","co39202","norming","","","","","","",""
"2215","","","post_reveal_questions","survey-likert","334","1074217","0.0-6.0-6.46","2774393","co39202","norming","","","{""aha"":1}","[0]","../img/tt/1043tt.jpg","",""
"null","<div style=""font-size:60px;""> </div>","null","fixation","html-keyboard-response","335","1074422","0.0-6.0-0.47","2774393","co39202","norming","","","","","","",""
"null","../img/tt/1146tt.jpg","null","mooney1","image-keyboard-response","336","1077427","0.0-6.0-1.47","2774393","co39202","norming","","","","","","",""
"5726","","","post_mooney1_questions","survey-likert","337","1083156","0.0-6.0-2.47","2774393","co39202","norming","","","{""curiosity"":4,""confidence"":1}","[0,1]","../img/tt/1146tt.jpg","",""
"4712","","","recognition","survey-text","338","1087873","0.0-6.0-3.47","2774393","co39202","norming","","","{""guess"":""man die hangt""}","","../img/tt/1146tt.jpg","",""
"null","../img/gs/1146gs.jpg","null","reveal","image-keyboard-response","339","1089877","0.0-6.0-4.47","2774393","co39202","norming","","","","","","",""
"null","../img/tt/1146tt.jpg","null","mooney2","image-keyboard-response","340","1091882","0.0-6.0-5.47","2774393","co39202","norming","","","","","","",""
"3800","","","post_reveal_questions","survey-likert","341","1095684","0.0-6.0-6.47","2774393","co39202","norming","","","{""aha"":6}","[0]","../img/tt/1146tt.jpg","",""
"null","<div style=""font-size:60px;""> </div>","null","fixation","html-keyboard-response","342","1095890","0.0-6.0-0.48","2774393","co39202","norming","","","","","","",""
"null","../img/tt/435tt.jpg","null","mooney1","image-keyboard-response","343","1098892","0.0-6.0-1.48","2774393","co39202","norming","","","","","","",""
"5977","","","post_mooney1_questions","survey-likert","344","1104874","0.0-6.0-2.48","2774393","co39202","norming","","","{""curiosity"":5,""confidence"":1}","[0,1]","../img/tt/435tt.jpg","",""
"3333","","","recognition","survey-text","345","1108209","0.0-6.0-3.48","2774393","co39202","norming","","","{""guess"":""pooltafel""}","","../img/tt/435tt.jpg","",""
"null","../img/gs/435gs.jpg","null","reveal","image-keyboard-response","346","1110211","0.0-6.0-4.48","2774393","co39202","norming","","","","","","",""
"null","../img/tt/435tt.jpg","null","mooney2","image-keyboard-response","347","1112214","0.0-6.0-5.48","2774393","co39202","norming","","","","","","",""
"2055","","","post_reveal_questions","survey-likert","348","1114272","0.0-6.0-6.48","2774393","co39202","norming","","","{""aha"":0}","[0]","../img/tt/435tt.jpg","",""
"null","<div style=""font-size:60px;""> </div>","null","fixation","html-keyboard-response","349","1114478","0.0-6.0-0.49","2774393","co39202","norming","","","","","","",""
"null","../img/tt/418tt.jpg","null","mooney1","image-keyboard-response","350","1117484","0.0-6.0-1.49","2774393","co39202","norming","","","","","","",""
"4801","","","post_mooney1_questions","survey-likert","351","1122289","0.0-6.0-2.49","2774393","co39202","norming","","","{""curiosity"":2,""confidence"":0}","[0,1]","../img/tt/418tt.jpg","",""
"1012","","","recognition","survey-text","352","1123306","0.0-6.0-3.49","2774393","co39202","norming","","","{""guess"":""""}","","../img/tt/418tt.jpg","",""
"null","../img/gs/418gs.jpg","null","reveal","image-keyboard-response","353","1125309","0.0-6.0-4.49","2774393","co39202","norming","","","","","","",""
"null","../img/tt/418tt.jpg","null","mooney2","image-keyboard-response","354","1127312","0.0-6.0-5.49","2774393","co39202","norming","","","","","","",""
"1947","","","post_reveal_questions","survey-likert","355","1129262","0.0-6.0-6.49","2774393","co39202","norming","","","{""aha"":1}","[0]","../img/tt/418tt.jpg","",""
"null","<div style=""font-size:60px;""> </div>","null","fixation","html-keyboard-response","356","1129466","0.0-6.0-0.50","2774393","co39202","norming","","","","","","",""
"null","../img/tt/111tt.jpg","null","mooney1","image-keyboard-response","357","1132473","0.0-6.0-1.50","2774393","co39202","norming","","","","","","",""
"5650","","","post_mooney1_questions","survey-likert","358","1138125","0.0-6.0-2.50","2774393","co39202","norming","","","{""curiosity"":5,""confidence"":3}","[0,1]","../img/tt/111tt.jpg","",""
"3933","","","recognition","survey-text","359","1142062","0.0-6.0-3.50","2774393","co39202","norming","","","{""guess"":""douchekop""}","","../img/tt/111tt.jpg","",""
"null","../img/gs/111gs.jpg","null","reveal","image-keyboard-response","360","1144065","0.0-6.0-4.50","2774393","co39202","norming","","","","","","",""
"null","../img/tt/111tt.jpg","null","mooney2","image-keyboard-response","361","1146068","0.0-6.0-5.50","2774393","co39202","norming","","","","","","",""
"1835","","","post_reveal_questions","survey-likert","362","1147905","0.0-6.0-6.50","2774393","co39202","norming","","","{""aha"":0}","[0]","../img/tt/111tt.jpg","",""
"null","<div style=""font-size:60px;""> </div>","null","fixation","html-keyboard-response","363","1148109","0.0-6.0-0.51","2774393","co39202","norming","","","","","","",""
"null","../img/tt/008tt.jpg","null","mooney1","image-keyboard-response","364","1151112","0.0-6.0-1.51","2774393","co39202","norming","","","","","","",""
"7381","","","post_mooney1_questions","survey-likert","365","1158498","0.0-6.0-2.51","2774393","co39202","norming","","","{""curiosity"":3,""confidence"":1}","[0,1]","../img/tt/008tt.jpg","",""
"4548","","","recognition","survey-text","366","1163049","0.0-6.0-3.51","2774393","co39202","norming","","","{""guess"":""golfkarretje""}","","../img/tt/008tt.jpg","",""
"null","../img/gs/008gs.jpg","null","reveal","image-keyboard-response","367","1165056","0.0-6.0-4.51","2774393","co39202","norming","","","","","","",""
"null","../img/tt/008tt.jpg","null","mooney2","image-keyboard-response","368","1167062","0.0-6.0-5.51","2774393","co39202","norming","","","","","","",""
"2219","","","post_reveal_questions","survey-likert","369","1169285","0.0-6.0-6.51","2774393","co39202","norming","","","{""aha"":2}","[0]","../img/tt/008tt.jpg","",""
"null","<div style=""font-size:60px;""> </div>","null","fixation","html-keyboard-response","370","1169491","0.0-6.0-0.52","2774393","co39202","norming","","","","","","",""
"null","../img/tt/040tt.jpg","null","mooney1","image-keyboard-response","371","1172498","0.0-6.0-1.52","2774393","co39202","norming","","","","","","",""
"4628","","","post_mooney1_questions","survey-likert","372","1177127","0.0-6.0-2.52","2774393","co39202","norming","","","{""curiosity"":3,""confidence"":0}","[0,1]","../img/tt/040tt.jpg","",""
"1428","","","recognition","survey-text","373","1178559","0.0-6.0-3.52","2774393","co39202","norming","","","{""guess"":""""}","","../img/tt/040tt.jpg","",""
"null","../img/gs/040gs.jpg","null","reveal","image-keyboard-response","374","1180562","0.0-6.0-4.52","2774393","co39202","norming","","","","","","",""
"null","../img/tt/040tt.jpg","null","mooney2","image-keyboard-response","375","1182569","0.0-6.0-5.52","2774393","co39202","norming","","","","","","",""
"4156","","","post_reveal_questions","survey-likert","376","1186727","0.0-6.0-6.52","2774393","co39202","norming","","","{""aha"":3}","[0]","../img/tt/040tt.jpg","",""
"null","<div style=""font-size:60px;""> </div>","null","fixation","html-keyboard-response","377","1186928","0.0-6.0-0.53","2774393","co39202","norming","","","","","","",""
"null","../img/tt/1270tt.jpg","null","mooney1","image-keyboard-response","378","1189935","0.0-6.0-1.53","2774393","co39202","norming","","","","","","",""
"8288","","","post_mooney1_questions","survey-likert","379","1198226","0.0-6.0-2.53","2774393","co39202","norming","","","{""curiosity"":4,""confidence"":1}","[0,1]","../img/tt/1270tt.jpg","",""
"1734","","","recognition","survey-text","380","1199964","0.0-6.0-3.53","2774393","co39202","norming","","","{""guess"":""duif""}","","../img/tt/1270tt.jpg","",""
"null","../img/gs/1270gs.jpg","null","reveal","image-keyboard-response","381","1201968","0.0-6.0-4.53","2774393","co39202","norming","","","","","","",""
"null","../img/tt/1270tt.jpg","null","mooney2","image-keyboard-response","382","1203971","0.0-6.0-5.53","2774393","co39202","norming","","","","","","",""
"3071","","","post_reveal_questions","survey-likert","383","1207045","0.0-6.0-6.53","2774393","co39202","norming","","","{""aha"":2}","[0]","../img/tt/1270tt.jpg","",""
"null","<div style=""font-size:60px;""> </div>","null","fixation","html-keyboard-response","384","1207251","0.0-6.0-0.54","2774393","co39202","norming","","","","","","",""
"null","../img/tt/357tt.jpg","null","mooney1","image-keyboard-response","385","1210257","0.0-6.0-1.54","2774393","co39202","norming","","","","","","",""
"4907","","","post_mooney1_questions","survey-likert","386","1215168","0.0-6.0-2.54","2774393","co39202","norming","","","{""curiosity"":3,""confidence"":0}","[0,1]","../img/tt/357tt.jpg","",""
"1174","","","recognition","survey-text","387","1216347","0.0-6.0-3.54","2774393","co39202","norming","","","{""guess"":""""}","","../img/tt/357tt.jpg","",""
"null","../img/gs/357gs.jpg","null","reveal","image-keyboard-response","388","1218350","0.0-6.0-4.54","2774393","co39202","norming","","","","","","",""
"null","../img/tt/357tt.jpg","null","mooney2","image-keyboard-response","389","1220353","0.0-6.0-5.54","2774393","co39202","norming","","","","","","",""
"3009","","","post_reveal_questions","survey-likert","390","1223365","0.0-6.0-6.54","2774393","co39202","norming","","","{""aha"":2}","[0]","../img/tt/357tt.jpg","",""
"null","<div style=""font-size:60px;""> </div>","null","fixation","html-keyboard-response","391","1223568","0.0-6.0-0.55","2774393","co39202","norming","","","","","","",""
"null","../img/tt/567tt.jpg","null","mooney1","image-keyboard-response","392","1226577","0.0-6.0-1.55","2774393","co39202","norming","","","","","","",""
"5720","","","post_mooney1_questions","survey-likert","393","1232299","0.0-6.0-2.55","2774393","co39202","norming","","","{""curiosity"":2,""confidence"":1}","[0,1]","../img/tt/567tt.jpg","",""
"3076","","","recognition","survey-text","394","1235379","0.0-6.0-3.55","2774393","co39202","norming","","","{""guess"":""autoruit""}","","../img/tt/567tt.jpg","",""
"null","../img/gs/567gs.jpg","null","reveal","image-keyboard-response","395","1237384","0.0-6.0-4.55","2774393","co39202","norming","","","","","","",""
"null","../img/tt/567tt.jpg","null","mooney2","image-keyboard-response","396","1239390","0.0-6.0-5.55","2774393","co39202","norming","","","","","","",""
"3136","","","post_reveal_questions","survey-likert","397","1242528","0.0-6.0-6.55","2774393","co39202","norming","","","{""aha"":2}","[0]","../img/tt/567tt.jpg","",""
"null","<div style=""font-size:60px;""> </div>","null","fixation","html-keyboard-response","398","1242730","0.0-6.0-0.56","2774393","co39202","norming","","","","","","",""
"null","../img/tt/1224tt.jpg","null","mooney1","image-keyboard-response","399","1245737","0.0-6.0-1.56","2774393","co39202","norming","","","","","","",""
"6206","","","post_mooney1_questions","survey-likert","400","1251946","0.0-6.0-2.56","2774393","co39202","norming","","","{""curiosity"":4,""confidence"":1}","[0,1]","../img/tt/1224tt.jpg","",""
"8281","","","recognition","survey-text","401","1260231","0.0-6.0-3.56","2774393","co39202","norming","","","{""guess"":""tennisspeler""}","","../img/tt/1224tt.jpg","",""
"null","../img/gs/1224gs.jpg","null","reveal","image-keyboard-response","402","1262235","0.0-6.0-4.56","2774393","co39202","norming","","","","","","",""
"null","../img/tt/1224tt.jpg","null","mooney2","image-keyboard-response","403","1264244","0.0-6.0-5.56","2774393","co39202","norming","","","","","","",""
"2114","","","post_reveal_questions","survey-likert","404","1266364","0.0-6.0-6.56","2774393","co39202","norming","","","{""aha"":4}","[0]","../img/tt/1224tt.jpg","",""
"null","<div style=""font-size:60px;""> </div>","null","fixation","html-keyboard-response","405","1266571","0.0-6.0-0.57","2774393","co39202","norming","","","","","","",""
"null","../img/tt/1260tt.jpg","null","mooney1","image-keyboard-response","406","1269574","0.0-6.0-1.57","2774393","co39202","norming","","","","","","",""
"4535","","","post_mooney1_questions","survey-likert","407","1274112","0.0-6.0-2.57","2774393","co39202","norming","","","{""curiosity"":2,""confidence"":0}","[0,1]","../img/tt/1260tt.jpg","",""
"985","","","recognition","survey-text","408","1275103","0.0-6.0-3.57","2774393","co39202","norming","","","{""guess"":""""}","","../img/tt/1260tt.jpg","",""
"null","../img/gs/1260gs.jpg","null","reveal","image-keyboard-response","409","1277109","0.0-6.0-4.57","2774393","co39202","norming","","","","","","",""
"null","../img/tt/1260tt.jpg","null","mooney2","image-keyboard-response","410","1279115","0.0-6.0-5.57","2774393","co39202","norming","","","","","","",""
"2378","","","post_reveal_questions","survey-likert","411","1281495","0.0-6.0-6.57","2774393","co39202","norming","","","{""aha"":1}","[0]","../img/tt/1260tt.jpg","",""
"null","<div style=""font-size:60px;""> </div>","null","fixation","html-keyboard-response","412","1281702","0.0-6.0-0.58","2774393","co39202","norming","","","","","","",""
"null","../img/tt/1269tt.jpg","null","mooney1","image-keyboard-response","413","1284706","0.0-6.0-1.58","2774393","co39202","norming","","","","","","",""
"4285","","","post_mooney1_questions","survey-likert","414","1288994","0.0-6.0-2.58","2774393","co39202","norming","","","{""curiosity"":1,""confidence"":0}","[0,1]","../img/tt/1269tt.jpg","",""
"1368","","","recognition","survey-text","415","1290367","0.0-6.0-3.58","2774393","co39202","norming","","","{""guess"":""""}","","../img/tt/1269tt.jpg","",""
"null","../img/gs/1269gs.jpg","null","reveal","image-keyboard-response","416","1292373","0.0-6.0-4.58","2774393","co39202","norming","","","","","","",""
"null","../img/tt/1269tt.jpg","null","mooney2","image-keyboard-response","417","1294376","0.0-6.0-5.58","2774393","co39202","norming","","","","","","",""
"2162","","","post_reveal_questions","survey-likert","418","1296541","0.0-6.0-6.58","2774393","co39202","norming","","","{""aha"":2}","[0]","../img/tt/1269tt.jpg","",""
"null","<div style=""font-size:60px;""> </div>","null","fixation","html-keyboard-response","419","1296744","0.0-6.0-0.59","2774393","co39202","norming","","","","","","",""
"null","../img/tt/001tt.jpg","null","mooney1","image-keyboard-response","420","1299751","0.0-6.0-1.59","2774393","co39202","norming","","","","","","",""
"4426","","","post_mooney1_questions","survey-likert","421","1304181","0.0-6.0-2.59","2774393","co39202","norming","","","{""curiosity"":2,""confidence"":0}","[0,1]","../img/tt/001tt.jpg","",""
"1080","","","recognition","survey-text","422","1305263","0.0-6.0-3.59","2774393","co39202","norming","","","{""guess"":""""}","","../img/tt/001tt.jpg","",""
"null","../img/gs/001gs.jpg","null","reveal","image-keyboard-response","423","1307270","0.0-6.0-4.59","2774393","co39202","norming","","","","","","",""
"null","../img/tt/001tt.jpg","null","mooney2","image-keyboard-response","424","1309271","0.0-6.0-5.59","2774393","co39202","norming","","","","","","",""
"3864","","","post_reveal_questions","survey-likert","425","1313137","0.0-6.0-6.59","2774393","co39202","norming","","","{""aha"":1}","[0]","../img/tt/001tt.jpg","",""
"null","<div style=""font-size:60px;""> </div>","null","fixation","html-keyboard-response","426","1313343","0.0-6.0-0.60","2774393","co39202","norming","","","","","","",""
"null","../img/tt/194tt.jpg","null","mooney1","image-keyboard-response","427","1316348","0.0-6.0-1.60","2774393","co39202","norming","","","","","","",""
"5265","","","post_mooney1_questions","survey-likert","428","1321615","0.0-6.0-2.60","2774393","co39202","norming","","","{""curiosity"":4,""confidence"":2}","[0,1]","../img/tt/194tt.jpg","",""
"6341","","","recognition","survey-text","429","1327960","0.0-6.0-3.60","2774393","co39202","norming","","","{""guess"":""harp speler""}","","../img/tt/194tt.jpg","",""
"null","../img/gs/194gs.jpg","null","reveal","image-keyboard-response","430","1329967","0.0-6.0-4.60","2774393","co39202","norming","","","","","","",""
"null","../img/tt/194tt.jpg","null","mooney2","image-keyboard-response","431","1331974","0.0-6.0-5.60","2774393","co39202","norming","","","","","","",""
"2484","","","post_reveal_questions","survey-likert","432","1334465","0.0-6.0-6.60","2774393","co39202","norming","","","{""aha"":0}","[0]","../img/tt/194tt.jpg","",""
"null","<div style=""font-size:60px;""> </div>","null","fixation","html-keyboard-response","433","1334668","0.0-6.0-0.61","2774393","co39202","norming","","","","","","",""
"null","../img/tt/1254tt.jpg","null","mooney1","image-keyboard-response","434","1337674","0.0-6.0-1.61","2774393","co39202","norming","","","","","","",""
"6839","","","post_mooney1_questions","survey-likert","435","1344518","0.0-6.0-2.61","2774393","co39202","norming","","","{""curiosity"":3,""confidence"":1}","[0,1]","../img/tt/1254tt.jpg","",""
"1804","","","recognition","survey-text","436","1346327","0.0-6.0-3.61","2774393","co39202","norming","","","{""guess"":""hert""}","","../img/tt/1254tt.jpg","",""
"null","../img/gs/1254gs.jpg","null","reveal","image-keyboard-response","437","1348330","0.0-6.0-4.61","2774393","co39202","norming","","","","","","",""
"null","../img/tt/1254tt.jpg","null","mooney2","image-keyboard-response","438","1350334","0.0-6.0-5.61","2774393","co39202","norming","","","","","","",""
"3139","","","post_reveal_questions","survey-likert","439","1353477","0.0-6.0-6.61","2774393","co39202","norming","","","{""aha"":2}","[0]","../img/tt/1254tt.jpg","",""
"null","<div style=""font-size:60px;""> </div>","null","fixation","html-keyboard-response","440","1353685","0.0-6.0-0.62","2774393","co39202","norming","","","","","","",""
"null","../img/tt/1268tt.jpg","null","mooney1","image-keyboard-response","441","1356691","0.0-6.0-1.62","2774393","co39202","norming","","","","","","",""
"5565","","","post_mooney1_questions","survey-likert","442","1362260","0.0-6.0-2.62","2774393","co39202","norming","","","{""curiosity"":3,""confidence"":0}","[0,1]","../img/tt/1268tt.jpg","",""
"6894","","","recognition","survey-text","443","1369157","0.0-6.0-3.62","2774393","co39202","norming","","","{""guess"":""""}","","../img/tt/1268tt.jpg","",""
"null","../img/gs/1268gs.jpg","null","reveal","image-keyboard-response","444","1371162","0.0-6.0-4.62","2774393","co39202","norming","","","","","","",""
"null","../img/tt/1268tt.jpg","null","mooney2","image-keyboard-response","445","1373165","0.0-6.0-5.62","2774393","co39202","norming","","","","","","",""
"3443","","","post_reveal_questions","survey-likert","446","1376612","0.0-6.0-6.62","2774393","co39202","norming","","","{""aha"":1}","[0]","../img/tt/1268tt.jpg","",""
"null","<div style=""font-size:60px;""> </div>","null","fixation","html-keyboard-response","447","1376816","0.0-6.0-0.63","2774393","co39202","norming","","","","","","",""
"null","../img/tt/1143tt.jpg","null","mooney1","image-keyboard-response","448","1379823","0.0-6.0-1.63","2774393","co39202","norming","","","","","","",""
"4391","","","post_mooney1_questions","survey-likert","449","1384216","0.0-6.0-2.63","2774393","co39202","norming","","","{""curiosity"":4,""confidence"":1}","[0,1]","../img/tt/1143tt.jpg","",""
"4260","","","recognition","survey-text","450","1388482","0.0-6.0-3.63","2774393","co39202","norming","","","{""guess"":""fitness toestel""}","","../img/tt/1143tt.jpg","",""
"null","../img/gs/1143gs.jpg","null","reveal","image-keyboard-response","451","1390487","0.0-6.0-4.63","2774393","co39202","norming","","","","","","",""
"null","../img/tt/1143tt.jpg","null","mooney2","image-keyboard-response","452","1392497","0.0-6.0-5.63","2774393","co39202","norming","","","","","","",""
"2189","","","post_reveal_questions","survey-likert","453","1394691","0.0-6.0-6.63","2774393","co39202","norming","","","{""aha"":0}","[0]","../img/tt/1143tt.jpg","",""
"null","<div style=""font-size:60px;""> </div>","null","fixation","html-keyboard-response","454","1394898","0.0-6.0-0.64","2774393","co39202","norming","","","","","","",""
"null","../img/tt/1004tt.jpg","null","mooney1","image-keyboard-response","455","1397904","0.0-6.0-1.64","2774393","co39202","norming","","","","","","",""
"6625","","","post_mooney1_questions","survey-likert","456","1404532","0.0-6.0-2.64","2774393","co39202","norming","","","{""curiosity"":3,""confidence"":0}","[0,1]","../img/tt/1004tt.jpg","",""
"1329","","","recognition","survey-text","457","1405867","0.0-6.0-3.64","2774393","co39202","norming","","","{""guess"":""""}","","../img/tt/1004tt.jpg","",""
"null","../img/gs/1004gs.jpg","null","reveal","image-keyboard-response","458","1407872","0.0-6.0-4.64","2774393","co39202","norming","","","","","","",""
"null","../img/tt/1004tt.jpg","null","mooney2","image-keyboard-response","459","1409877","0.0-6.0-5.64","2774393","co39202","norming","","","","","","",""
"2552","","","post_reveal_questions","survey-likert","460","1412432","0.0-6.0-6.64","2774393","co39202","norming","","","{""aha"":3}","[0]","../img/tt/1004tt.jpg","",""
"null","<div style=""font-size:60px;""> </div>","null","fixation","html-keyboard-response","461","1412637","0.0-6.0-0.65","2774393","co39202","norming","","","","","","",""
"null","../img/tt/416tt.jpg","null","mooney1","image-keyboard-response","462","1415645","0.0-6.0-1.65","2774393","co39202","norming","","","","","","",""
"4154","","","post_mooney1_questions","survey-likert","463","1419804","0.0-6.0-2.65","2774393","co39202","norming","","","{""curiosity"":4,""confidence"":1}","[0,1]","../img/tt/416tt.jpg","",""
"3086","","","recognition","survey-text","464","1422893","0.0-6.0-3.65","2774393","co39202","norming","","","{""guess"":""struisvogel""}","","../img/tt/416tt.jpg","",""
"null","../img/gs/416gs.jpg","null","reveal","image-keyboard-response","465","1424897","0.0-6.0-4.65","2774393","co39202","norming","","","","","","",""
"null","../img/tt/416tt.jpg","null","mooney2","image-keyboard-response","466","1426900","0.0-6.0-5.65","2774393","co39202","norming","","","","","","",""
"3900","","","post_reveal_questions","survey-likert","467","1430803","0.0-6.0-6.65","2774393","co39202","norming","","","{""aha"":4}","[0]","../img/tt/416tt.jpg","",""
"null","<div style=""font-size:60px;""> </div>","null","fixation","html-keyboard-response","468","1431009","0.0-6.0-0.66","2774393","co39202","norming","","","","","","",""
"null","../img/tt/522tt.jpg","null","mooney1","image-keyboard-response","469","1434016","0.0-6.0-1.66","2774393","co39202","norming","","","","","","",""
"4496","","","post_mooney1_questions","survey-likert","470","1438515","0.0-6.0-2.66","2774393","co39202","norming","","","{""curiosity"":3,""confidence"":0}","[0,1]","../img/tt/522tt.jpg","",""
"950","","","recognition","survey-text","471","1439469","0.0-6.0-3.66","2774393","co39202","norming","","","{""guess"":""""}","","../img/tt/522tt.jpg","",""
"null","../img/gs/522gs.jpg","null","reveal","image-keyboard-response","472","1441477","0.0-6.0-4.66","2774393","co39202","norming","","","","","","",""
"null","../img/tt/522tt.jpg","null","mooney2","image-keyboard-response","473","1443479","0.0-6.0-5.66","2774393","co39202","norming","","","","","","",""
"2619","","","post_reveal_questions","survey-likert","474","1446100","0.0-6.0-6.66","2774393","co39202","norming","","","{""aha"":2}","[0]","../img/tt/522tt.jpg","",""
"null","<div style=""font-size:60px;""> </div>","null","fixation","html-keyboard-response","475","1446302","0.0-6.0-0.67","2774393","co39202","norming","","","","","","",""
"null","../img/tt/080tt.jpg","null","mooney1","image-keyboard-response","476","1449307","0.0-6.0-1.67","2774393","co39202","norming","","","","","","",""
"3859","","","post_mooney1_questions","survey-likert","477","1453169","0.0-6.0-2.67","2774393","co39202","norming","","","{""curiosity"":5,""confidence"":3}","[0,1]","../img/tt/080tt.jpg","",""
"3251","","","recognition","survey-text","478","1456430","0.0-6.0-3.67","2774393","co39202","norming","","","{""guess"":""paddestoel""}","","../img/tt/080tt.jpg","",""
"null","../img/gs/080gs.jpg","null","reveal","image-keyboard-response","479","1458439","0.0-6.0-4.67","2774393","co39202","norming","","","","","","",""
"null","../img/tt/080tt.jpg","null","mooney2","image-keyboard-response","480","1460446","0.0-6.0-5.67","2774393","co39202","norming","","","","","","",""
"2380","","","post_reveal_questions","survey-likert","481","1462832","0.0-6.0-6.67","2774393","co39202","norming","","","{""aha"":3}","[0]","../img/tt/080tt.jpg","",""
"null","<div style=""font-size:60px;""> </div>","null","fixation","html-keyboard-response","482","1463039","0.0-6.0-0.68","2774393","co39202","norming","","","","","","",""
"null","../img/tt/1142tt.jpg","null","mooney1","image-keyboard-response","483","1466042","0.0-6.0-1.68","2774393","co39202","norming","","","","","","",""
"5120","","","post_mooney1_questions","survey-likert","484","1471166","0.0-6.0-2.68","2774393","co39202","norming","","","{""curiosity"":5,""confidence"":4}","[0,1]","../img/tt/1142tt.jpg","",""
"10269","","","recognition","survey-text","485","1481440","0.0-6.0-3.68","2774393","co39202","norming","","","{""guess"":""athletiek ""}","","../img/tt/1142tt.jpg","",""
"null","../img/gs/1142gs.jpg","null","reveal","image-keyboard-response","486","1483446","0.0-6.0-4.68","2774393","co39202","norming","","","","","","",""
"null","../img/tt/1142tt.jpg","null","mooney2","image-keyboard-response","487","1485448","0.0-6.0-5.68","2774393","co39202","norming","","","","","","",""
"2076","","","post_reveal_questions","survey-likert","488","1487527","0.0-6.0-6.68","2774393","co39202","norming","","","{""aha"":0}","[0]","../img/tt/1142tt.jpg","",""
"null","<div style=""font-size:60px;""> </div>","null","fixation","html-keyboard-response","489","1487736","0.0-6.0-0.69","2774393","co39202","norming","","","","","","",""
"null","../img/tt/1181tt.jpg","null","mooney1","image-keyboard-response","490","1490741","0.0-6.0-1.69","2774393","co39202","norming","","","","","","",""
"6609","","","post_mooney1_questions","survey-likert","491","1497354","0.0-6.0-2.69","2774393","co39202","norming","","","{""curiosity"":4,""confidence"":4}","[0,1]","../img/tt/1181tt.jpg","",""
"6881","","","recognition","survey-text","492","1504241","0.0-6.0-3.69","2774393","co39202","norming","","","{""guess"":""kind dat sport""}","","../img/tt/1181tt.jpg","",""
"null","../img/gs/1181gs.jpg","null","reveal","image-keyboard-response","493","1506246","0.0-6.0-4.69","2774393","co39202","norming","","","","","","",""
"null","../img/tt/1181tt.jpg","null","mooney2","image-keyboard-response","494","1508249","0.0-6.0-5.69","2774393","co39202","norming","","","","","","",""
"2034","","","post_reveal_questions","survey-likert","495","1510286","0.0-6.0-6.69","2774393","co39202","norming","","","{""aha"":4}","[0]","../img/tt/1181tt.jpg","",""
"null","<div style=""font-size:60px;""> </div>","null","fixation","html-keyboard-response","496","1510489","0.0-6.0-0.70","2774393","co39202","norming","","","","","","",""
"null","../img/tt/1084tt.jpg","null","mooney1","image-keyboard-response","497","1513493","0.0-6.0-1.70","2774393","co39202","norming","","","","","","",""
"5715","","","post_mooney1_questions","survey-likert","498","1519212","0.0-6.0-2.70","2774393","co39202","norming","","","{""curiosity"":4,""confidence"":0}","[0,1]","../img/tt/1084tt.jpg","",""
"1351","","","recognition","survey-text","499","1520571","0.0-6.0-3.70","2774393","co39202","norming","","","{""guess"":""""}","","../img/tt/1084tt.jpg","",""
"null","../img/gs/1084gs.jpg","null","reveal","image-keyboard-response","500","1522577","0.0-6.0-4.70","2774393","co39202","norming","","","","","","",""
"null","../img/tt/1084tt.jpg","null","mooney2","image-keyboard-response","501","1524583","0.0-6.0-5.70","2774393","co39202","norming","","","","","","",""
"3014","","","post_reveal_questions","survey-likert","502","1527604","0.0-6.0-6.70","2774393","co39202","norming","","","{""aha"":2}","[0]","../img/tt/1084tt.jpg","",""
"null","<div style=""font-size:60px;""> </div>","null","fixation","html-keyboard-response","503","1527811","0.0-6.0-0.71","2774393","co39202","norming","","","","","","",""
"null","../img/tt/1002tt.jpg","null","mooney1","image-keyboard-response","504","1530818","0.0-6.0-1.71","2774393","co39202","norming","","","","","","",""
"6387","","","post_mooney1_questions","survey-likert","505","1537208","0.0-6.0-2.71","2774393","co39202","norming","","","{""curiosity"":4,""confidence"":1}","[0,1]","../img/tt/1002tt.jpg","",""
"2003","","","recognition","survey-text","506","1539218","0.0-6.0-3.71","2774393","co39202","norming","","","{""guess"":""koe""}","","../img/tt/1002tt.jpg","",""
"null","../img/gs/1002gs.jpg","null","reveal","image-keyboard-response","507","1541220","0.0-6.0-4.71","2774393","co39202","norming","","","","","","",""
"null","../img/tt/1002tt.jpg","null","mooney2","image-keyboard-response","508","1543223","0.0-6.0-5.71","2774393","co39202","norming","","","","","","",""
"2807","","","post_reveal_questions","survey-likert","509","1546034","0.0-6.0-6.71","2774393","co39202","norming","","","{""aha"":1}","[0]","../img/tt/1002tt.jpg","",""
"null","<div style=""font-size:60px;""> </div>","null","fixation","html-keyboard-response","510","1546237","0.0-6.0-0.72","2774393","co39202","norming","","","","","","",""
"null","../img/tt/076tt.jpg","null","mooney1","image-keyboard-response","511","1549243","0.0-6.0-1.72","2774393","co39202","norming","","","","","","",""
"4288","","","post_mooney1_questions","survey-likert","512","1553535","0.0-6.0-2.72","2774393","co39202","norming","","","{""curiosity"":5,""confidence"":4}","[0,1]","../img/tt/076tt.jpg","",""
"2910","","","recognition","survey-text","513","1556451","0.0-6.0-3.72","2774393","co39202","norming","","","{""guess"":""skater""}","","../img/tt/076tt.jpg","",""
"null","../img/gs/076gs.jpg","null","reveal","image-keyboard-response","514","1558457","0.0-6.0-4.72","2774393","co39202","norming","","","","","","",""
"null","../img/tt/076tt.jpg","null","mooney2","image-keyboard-response","515","1560464","0.0-6.0-5.72","2774393","co39202","norming","","","","","","",""
"2091","","","post_reveal_questions","survey-likert","516","1562557","0.0-6.0-6.72","2774393","co39202","norming","","","{""aha"":0}","[0]","../img/tt/076tt.jpg","",""
"null","<div style=""font-size:60px;""> </div>","null","fixation","html-keyboard-response","517","1562760","0.0-6.0-0.73","2774393","co39202","norming","","","","","","",""
"null","../img/tt/1250tt.jpg","null","mooney1","image-keyboard-response","518","1565763","0.0-6.0-1.73","2774393","co39202","norming","","","","","","",""
"4758","","","post_mooney1_questions","survey-likert","519","1570525","0.0-6.0-2.73","2774393","co39202","norming","","","{""curiosity"":4,""confidence"":0}","[0,1]","../img/tt/1250tt.jpg","",""
"740","","","recognition","survey-text","520","1571269","0.0-6.0-3.73","2774393","co39202","norming","","","{""guess"":""""}","","../img/tt/1250tt.jpg","",""
"null","../img/gs/1250gs.jpg","null","reveal","image-keyboard-response","521","1573275","0.0-6.0-4.73","2774393","co39202","norming","","","","","","",""
"null","../img/tt/1250tt.jpg","null","mooney2","image-keyboard-response","522","1575278","0.0-6.0-5.73","2774393","co39202","norming","","","","","","",""
"6508","","","post_reveal_questions","survey-likert","523","1581789","0.0-6.0-6.73","2774393","co39202","norming","","","{""aha"":1}","[0]","../img/tt/1250tt.jpg","",""
"null","<div style=""font-size:60px;""> </div>","null","fixation","html-keyboard-response","524","1581997","0.0-6.0-0.74","2774393","co39202","norming","","","","","","",""
"null","../img/tt/1366tt.jpg","null","mooney1","image-keyboard-response","525","1585006","0.0-6.0-1.74","2774393","co39202","norming","","","","","","",""
"4852","","","post_mooney1_questions","survey-likert","526","1589863","0.0-6.0-2.74","2774393","co39202","norming","","","{""curiosity"":4,""confidence"":0}","[0,1]","../img/tt/1366tt.jpg","",""
"1094","","","recognition","survey-text","527","1590964","0.0-6.0-3.74","2774393","co39202","norming","","","{""guess"":""""}","","../img/tt/1366tt.jpg","",""
"null","../img/gs/1366gs.jpg","null","reveal","image-keyboard-response","528","1592971","0.0-6.0-4.74","2774393","co39202","norming","","","","","","",""
"null","../img/tt/1366tt.jpg","null","mooney2","image-keyboard-response","529","1594974","0.0-6.0-5.74","2774393","co39202","norming","","","","","","",""
"3118","","","post_reveal_questions","survey-likert","530","1598096","0.0-6.0-6.74","2774393","co39202","norming","","","{""aha"":2}","[0]","../img/tt/1366tt.jpg","",""
"null","<div style=""font-size:60px;""> </div>","null","fixation","html-keyboard-response","531","1598300","0.0-6.0-0.75","2774393","co39202","norming","","","","","","",""
"null","../img/tt/552tt.jpg","null","mooney1","image-keyboard-response","532","1601306","0.0-6.0-1.75","2774393","co39202","norming","","","","","","",""
"4209","","","post_mooney1_questions","survey-likert","533","1605520","0.0-6.0-2.75","2774393","co39202","norming","","","{""curiosity"":4,""confidence"":1}","[0,1]","../img/tt/552tt.jpg","",""
"3277","","","recognition","survey-text","534","1608802","0.0-6.0-3.75","2774393","co39202","norming","","","{""guess"":""eekhoorn""}","","../img/tt/552tt.jpg","",""
"null","../img/gs/552gs.jpg","null","reveal","image-keyboard-response","535","1610804","0.0-6.0-4.75","2774393","co39202","norming","","","","","","",""
"null","../img/tt/552tt.jpg","null","mooney2","image-keyboard-response","536","1612813","0.0-6.0-5.75","2774393","co39202","norming","","","","","","",""
"2373","","","post_reveal_questions","survey-likert","537","1615190","0.0-6.0-6.75","2774393","co39202","norming","","","{""aha"":2}","[0]","../img/tt/552tt.jpg","",""
"null","<div style=""font-size:60px;""> </div>","null","fixation","html-keyboard-response","538","1615397","0.0-6.0-0.76","2774393","co39202","norming","","","","","","",""
"null","../img/tt/436tt.jpg","null","mooney1","image-keyboard-response","539","1618401","0.0-6.0-1.76","2774393","co39202","norming","","","","","","",""
"6286","","","post_mooney1_questions","survey-likert","540","1624691","0.0-6.0-2.76","2774393","co39202","norming","","","{""curiosity"":2,""confidence"":0}","[0,1]","../img/tt/436tt.jpg","",""
"1106","","","recognition","survey-text","541","1625802","0.0-6.0-3.76","2774393","co39202","norming","","","{""guess"":""""}","","../img/tt/436tt.jpg","",""
"null","../img/gs/436gs.jpg","null","reveal","image-keyboard-response","542","1627805","0.0-6.0-4.76","2774393","co39202","norming","","","","","","",""
"null","../img/tt/436tt.jpg","null","mooney2","image-keyboard-response","543","1629808","0.0-6.0-5.76","2774393","co39202","norming","","","","","","",""
"2644","","","post_reveal_questions","survey-likert","544","1632455","0.0-6.0-6.76","2774393","co39202","norming","","","{""aha"":3}","[0]","../img/tt/436tt.jpg","",""
"null","<div style=""font-size:60px;""> </div>","null","fixation","html-keyboard-response","545","1632661","0.0-6.0-0.77","2774393","co39202","norming","","","","","","",""
"null","../img/tt/044tt.jpg","null","mooney1","image-keyboard-response","546","1635665","0.0-6.0-1.77","2774393","co39202","norming","","","","","","",""
"5969","","","post_mooney1_questions","survey-likert","547","1641637","0.0-6.0-2.77","2774393","co39202","norming","","","{""curiosity"":4,""confidence"":1}","[0,1]","../img/tt/044tt.jpg","",""
"6052","","","recognition","survey-text","548","1647694","0.0-6.0-3.77","2774393","co39202","norming","","","{""guess"":""perforator""}","","../img/tt/044tt.jpg","",""
"null","../img/gs/044gs.jpg","null","reveal","image-keyboard-response","549","1649701","0.0-6.0-4.77","2774393","co39202","norming","","","","","","",""
"null","../img/tt/044tt.jpg","null","mooney2","image-keyboard-response","550","1651707","0.0-6.0-5.77","2774393","co39202","norming","","","","","","",""
"3402","","","post_reveal_questions","survey-likert","551","1655116","0.0-6.0-6.77","2774393","co39202","norming","","","{""aha"":4}","[0]","../img/tt/044tt.jpg","",""
"null","<div style=""font-size:60px;""> </div>","null","fixation","html-keyboard-response","552","1655320","0.0-6.0-0.78","2774393","co39202","norming","","","","","","",""
"null","../img/tt/081tt.jpg","null","mooney1","image-keyboard-response","553","1658325","0.0-6.0-1.78","2774393","co39202","norming","","","","","","",""
"3787","","","post_mooney1_questions","survey-likert","554","1662115","0.0-6.0-2.78","2774393","co39202","norming","","","{""curiosity"":5,""confidence"":1}","[0,1]","../img/tt/081tt.jpg","",""
"2033","","","recognition","survey-text","555","1664152","0.0-6.0-3.78","2774393","co39202","norming","","","{""guess"":""bij""}","","../img/tt/081tt.jpg","",""
"null","../img/gs/081gs.jpg","null","reveal","image-keyboard-response","556","1666158","0.0-6.0-4.78","2774393","co39202","norming","","","","","","",""
"null","../img/tt/081tt.jpg","null","mooney2","image-keyboard-response","557","1668160","0.0-6.0-5.78","2774393","co39202","norming","","","","","","",""
"2800","","","post_reveal_questions","survey-likert","558","1670963","0.0-6.0-6.78","2774393","co39202","norming","","","{""aha"":3}","[0]","../img/tt/081tt.jpg","",""
"null","<div style=""font-size:60px;""> </div>","null","fixation","html-keyboard-response","559","1671169","0.0-6.0-0.79","2774393","co39202","norming","","","","","","",""
"null","../img/tt/319tt.jpg","null","mooney1","image-keyboard-response","560","1674174","0.0-6.0-1.79","2774393","co39202","norming","","","","","","",""
"3596","","","post_mooney1_questions","survey-likert","561","1677773","0.0-6.0-2.79","2774393","co39202","norming","","","{""curiosity"":4,""confidence"":1}","[0,1]","../img/tt/319tt.jpg","",""
"2824","","","recognition","survey-text","562","1680603","0.0-6.0-3.79","2774393","co39202","norming","","","{""guess"":""stier""}","","../img/tt/319tt.jpg","",""
"null","../img/gs/319gs.jpg","null","reveal","image-keyboard-response","563","1682608","0.0-6.0-4.79","2774393","co39202","norming","","","","","","",""
"null","../img/tt/319tt.jpg","null","mooney2","image-keyboard-response","564","1684615","0.0-6.0-5.79","2774393","co39202","norming","","","","","","",""
"2265","","","post_reveal_questions","survey-likert","565","1686883","0.0-6.0-6.79","2774393","co39202","norming","","","{""aha"":3}","[0]","../img/tt/319tt.jpg","",""
"25624","<div style='word-wrap: break-word; width: 900px'><h3>Part 2</h3><p>You completed the first phase of the experiment.</p><p>In the next phase you will again see a series of distorted images, some of which you have already encountered in the previous phase.</p><p>You will be asked to indicate whether the image was an old or a new one (one not seen in the previous phase) and subsequently to recognize what is depicted if you can.</p><p>Press any key to start the new phase</p></div>","32","instructions","html-keyboard-response","566","1712512","0.0-7.0","2774393","co39202","norming","","","","","","",""
"null","<div style=""font-size:60px;""> </div>","null","fixation","html-keyboard-response","567","1712718","0.0-8.0-0.0","2774393","co39202","norming","","","","","","",""
"null","../img/tt/1186tt.jpg","null","ph2_mooney","image-keyboard-response","568","1714728","0.0-8.0-1.0","2774393","co39202","norming","","","","","","",""
