"rt","stimulus","key_press","test_part","trial_type","trial_index","time_elapsed","internal_node_id","totalTime","subject","experiment_name","button_pressed","success","responses","question_order","currentStim","old","correct"
"5349.790000123903","Welcome to the experiment. This is an online experiment so please don't close the tab/window until we say goodbye.  Press any key to begin.","13","instructions","html-keyboard-response","0","5396","0.0-0.0","2563455","co39298","norming","","","","","","",""
"17038.265000097454","<div style='word-wrap: break-word; width: 900px'><h3>Please consider this information carefully before deciding whether to participate in this research</h3><ul style='text-align: left; font-size: .8em;'><li><b>Purpose of the research</b>: To examine how people process images.</li><li><b>What you will do in this research</b>:  Stimuli (images) will be presented on the computer and you will be asked different questions about them.</li><li><b>Time required</b>: Participation will take between 45 and 60 minutes to complete.</li><li><b>Risks</b>:  There are no anticipated risks associated with participating in this study. The effects of participating should be comparable to those you would experience from viewing a computer monitor for 30 minutes and using a mouse or keyboard.</li><li><b>Benefits</b>:  This study provides no benefits to you individually except for the credit. The study provides important information about the nature of perception and learning.</li><li><b>Confidentiality</b>:  Your participation in this study will remain confidential. No personally identifiable information will be associated with your data. Your de-identified data may be shared with other researchers and used in future projects.</li><li><b>Participation and withdrawal</b>:  Your participation in this study is completely voluntary and you may refuse to participate or you may choose to withdraw at any time without penalty.</li><li><b>How to contact the researchers</b>: If you have questions or concerns about your participation or payment, or want to request a summary of research findings, please contact Sander Van de Cruys (KU Leuven), at sander.vandecruys@kuleuven.be.</li></ul><p>The nature and purpose of this research have been sufficiently explained and I agree to participate in this study.  I understand that I am free to withdraw at any time without incurring any penalty.</p><p>Please consent by clicking the button below to continue. Otherwise, please exit the study at this time.</p></div>","","instructions","html-button-response","1","22438","0.0-1.0","2563455","co39298","norming","0","","","","","",""
"","","","instructions","fullscreen","2","27261","0.0-2.0","2563455","co39298","norming","","true","","","","",""
"23916.39499994926","","","sona","survey-html-form","3","51186","0.0-3.0","2563455","co39298","norming","","","[{""name"":""sonaid"",""value"":""39298""},{""name"":""debrief"",""value"":""yes""},{""name"":""datajoin"",""value"":""yes""}]","","","",""
"44905.180000001565","<div style='word-wrap: break-word; width: 900px'><h3>Instructions</h3><p>This experiment will have 3 parts. In the first part you will see a series of distorted images like the one below on the left. As you can see in the righthand image, the distorted images are derived from actual photographs. In what follows, you will <strong>briefly</strong> be presented with <strong>only</strong> the distorted image.</p> <div style='float: left; margin-right: 20px;'><img src='../img/018tt.jpg' height='250' width='250'></img></div><div style='float: right; margin-left: 20px;'><img src='../img/018gs.jpg' height='250' width='250'></img></div><p>Subsequently you will be asked a few questions about the image: One question on how <strong>curious</strong> you are about the solution and one on how <strong>confident</strong> you are that you know the solution.</p>Next, we ask you to make a guess on what is in the image. Note that it is OK to name just the <strong>basic level category</strong>. For example when you see a parrot in the image, 'parrot' will obviously be a correct answer but also correct is 'bird'. However, 'animal' will <strong>not</strong> be counted as a correct response. For the example above, 'rose' would be correct or 'flower', but not 'plant'. When soccer players are depicted, 'soccer', 'football', 'soccer players' will be correct, but not 'humans', 'outdoors', or 'sports'. You do not need to describe the image in full, just name the main object in it <strong>in one or two words</strong>. All images depict objects from one of the following broad level categories: animals, inanimate objects, plants, sports, vehicles, and food. Recognizing means knowing <strong>more</strong> than these broad labels for a given image. But we always encourage you to <strong>make a guess</strong> if you can. Note that you are allowed to use <strong>Dutch and English</strong> in your answers, whatever comes easiest for you.</p><p>Press any key to continue.</p></div>","13","instructions","html-keyboard-response","4","96097","0.0-4.0","2563455","co39298","norming","","","","","","",""
"10807.489999802783","<div style='word-wrap: break-word; width: 900px'><h3>Instructions</h3> <p>Next, the solution image will be revealed to you and you'll be asked to indicate how strong your <strong>aha-experience</strong> was after seeing the solution. This describes the positive feeling of the 'click' you sometimes experience, when the pieces of the 'puzzle' fall together and you suddenly have 'insight' in the image.</p><img src='aha.jpg' height='188' width='250'></img><p>Note that there are no right or wrong answers. We are interested in what <strong>you</strong> see in the image and how <strong>you</strong> feel about it.</p><p>Press any key to start the experiment.</p></div>","39","instructions","html-keyboard-response","5","106906","0.0-5.0","2563455","co39298","norming","","","","","","",""
"null","<div style=""font-size:60px;""> </div>","null","fixation","html-keyboard-response","6","107108","0.0-6.0-0.0","2563455","co39298","norming","","","","","","",""
"null","../img/tt/1122tt.jpg","null","mooney1","image-keyboard-response","7","110119","0.0-6.0-1.0","2563455","co39298","norming","","","","","","",""
"9699.875000165775","","","post_mooney1_questions","survey-likert","8","119827","0.0-6.0-2.0","2563455","co39298","norming","","","{""curiosity"":2,""confidence"":3}","[0,1]","../img/tt/1122tt.jpg","",""
"13292.124999919906","","","recognition","survey-text","9","133132","0.0-6.0-3.0","2563455","co39298","norming","","","{""guess"":""Car, street""}","","../img/tt/1122tt.jpg","",""
"null","../img/gs/1122gs.jpg","null","reveal","image-keyboard-response","10","135136","0.0-6.0-4.0","2563455","co39298","norming","","","","","","",""
"null","../img/tt/1122tt.jpg","null","mooney2","image-keyboard-response","11","137139","0.0-6.0-5.0","2563455","co39298","norming","","","","","","",""
"5327.715000137687","","","post_reveal_questions","survey-likert","12","142469","0.0-6.0-6.0","2563455","co39298","norming","","","{""aha"":4}","[0]","../img/tt/1122tt.jpg","",""
"null","<div style=""font-size:60px;""> </div>","null","fixation","html-keyboard-response","13","142673","0.0-6.0-0.1","2563455","co39298","norming","","","","","","",""
"null","../img/tt/121tt.jpg","null","mooney1","image-keyboard-response","14","145677","0.0-6.0-1.1","2563455","co39298","norming","","","","","","",""
"7647.979999892414","","","post_mooney1_questions","survey-likert","15","153329","0.0-6.0-2.1","2563455","co39298","norming","","","{""curiosity"":6,""confidence"":1}","[0,1]","../img/tt/121tt.jpg","",""
"8975.954999914393","","","recognition","survey-text","16","162314","0.0-6.0-3.1","2563455","co39298","norming","","","{""guess"":""kangoeroe""}","","../img/tt/121tt.jpg","",""
"null","../img/gs/121gs.jpg","null","reveal","image-keyboard-response","17","164318","0.0-6.0-4.1","2563455","co39298","norming","","","","","","",""
"null","../img/tt/121tt.jpg","null","mooney2","image-keyboard-response","18","166321","0.0-6.0-5.1","2563455","co39298","norming","","","","","","",""
"3541.2900000810623","","","post_reveal_questions","survey-likert","19","169865","0.0-6.0-6.1","2563455","co39298","norming","","","{""aha"":2}","[0]","../img/tt/121tt.jpg","",""
"null","<div style=""font-size:60px;""> </div>","null","fixation","html-keyboard-response","20","170068","0.0-6.0-0.2","2563455","co39298","norming","","","","","","",""
"null","../img/tt/1089tt.jpg","null","mooney1","image-keyboard-response","21","173073","0.0-6.0-1.2","2563455","co39298","norming","","","","","","",""
"6331.2150000128895","","","post_mooney1_questions","survey-likert","22","179408","0.0-6.0-2.2","2563455","co39298","norming","","","{""curiosity"":5,""confidence"":0}","[0,1]","../img/tt/1089tt.jpg","",""
"959.3450000975281","","","recognition","survey-text","23","180374","0.0-6.0-3.2","2563455","co39298","norming","","","{""guess"":""""}","","../img/tt/1089tt.jpg","",""
"null","../img/gs/1089gs.jpg","null","reveal","image-keyboard-response","24","182377","0.0-6.0-4.2","2563455","co39298","norming","","","","","","",""
"null","../img/tt/1089tt.jpg","null","mooney2","image-keyboard-response","25","184381","0.0-6.0-5.2","2563455","co39298","norming","","","","","","",""
"5575.949999969453","","","post_reveal_questions","survey-likert","26","189960","0.0-6.0-6.2","2563455","co39298","norming","","","{""aha"":3}","[0]","../img/tt/1089tt.jpg","",""
"null","<div style=""font-size:60px;""> </div>","null","fixation","html-keyboard-response","27","190164","0.0-6.0-0.3","2563455","co39298","norming","","","","","","",""
"null","../img/tt/1188tt.jpg","null","mooney1","image-keyboard-response","28","193170","0.0-6.0-1.3","2563455","co39298","norming","","","","","","",""
"4884.46499989368","","","post_mooney1_questions","survey-likert","29","198057","0.0-6.0-2.3","2563455","co39298","norming","","","{""curiosity"":2,""confidence"":2}","[0,1]","../img/tt/1188tt.jpg","",""
"2418.5399999842048","","","recognition","survey-text","30","200485","0.0-6.0-3.3","2563455","co39298","norming","","","{""guess"":""man""}","","../img/tt/1188tt.jpg","",""
"null","../img/gs/1188gs.jpg","null","reveal","image-keyboard-response","31","202488","0.0-6.0-4.3","2563455","co39298","norming","","","","","","",""
"null","../img/tt/1188tt.jpg","null","mooney2","image-keyboard-response","32","204492","0.0-6.0-5.3","2563455","co39298","norming","","","","","","",""
"4062.8800000995398","","","post_reveal_questions","survey-likert","33","208559","0.0-6.0-6.3","2563455","co39298","norming","","","{""aha"":1}","[0]","../img/tt/1188tt.jpg","",""
"null","<div style=""font-size:60px;""> </div>","null","fixation","html-keyboard-response","34","208763","0.0-6.0-0.4","2563455","co39298","norming","","","","","","",""
"null","../img/tt/056tt.jpg","null","mooney1","image-keyboard-response","35","211776","0.0-6.0-1.4","2563455","co39298","norming","","","","","","",""
"5294.4399998523295","","","post_mooney1_questions","survey-likert","36","217074","0.0-6.0-2.4","2563455","co39298","norming","","","{""curiosity"":4,""confidence"":2}","[0,1]","../img/tt/056tt.jpg","",""
"4123.609999893233","","","recognition","survey-text","37","221217","0.0-6.0-3.4","2563455","co39298","norming","","","{""guess"":""people dancing""}","","../img/tt/056tt.jpg","",""
"null","../img/gs/056gs.jpg","null","reveal","image-keyboard-response","38","223223","0.0-6.0-4.4","2563455","co39298","norming","","","","","","",""
"null","../img/tt/056tt.jpg","null","mooney2","image-keyboard-response","39","225231","0.0-6.0-5.4","2563455","co39298","norming","","","","","","",""
"1573.060000082478","","","post_reveal_questions","survey-likert","40","226807","0.0-6.0-6.4","2563455","co39298","norming","","","{""aha"":6}","[0]","../img/tt/056tt.jpg","",""
"null","<div style=""font-size:60px;""> </div>","null","fixation","html-keyboard-response","41","227010","0.0-6.0-0.5","2563455","co39298","norming","","","","","","",""
"null","../img/tt/380tt.jpg","null","mooney1","image-keyboard-response","42","230014","0.0-6.0-1.5","2563455","co39298","norming","","","","","","",""
"5717.8700000513345","","","post_mooney1_questions","survey-likert","43","235736","0.0-6.0-2.5","2563455","co39298","norming","","","{""curiosity"":6,""confidence"":0}","[0,1]","../img/tt/380tt.jpg","",""
"2143.394999904558","","","recognition","survey-text","44","237889","0.0-6.0-3.5","2563455","co39298","norming","","","{""guess"":""""}","","../img/tt/380tt.jpg","",""
"null","../img/gs/380gs.jpg","null","reveal","image-keyboard-response","45","239893","0.0-6.0-4.5","2563455","co39298","norming","","","","","","",""
"null","../img/tt/380tt.jpg","null","mooney2","image-keyboard-response","46","241895","0.0-6.0-5.5","2563455","co39298","norming","","","","","","",""
"33669.22500007786","","","post_reveal_questions","survey-likert","47","275570","0.0-6.0-6.5","2563455","co39298","norming","","","{""aha"":5}","[0]","../img/tt/380tt.jpg","",""
"null","<div style=""font-size:60px;""> </div>","null","fixation","html-keyboard-response","48","275773","0.0-6.0-0.6","2563455","co39298","norming","","","","","","",""
"null","../img/tt/406tt.jpg","null","mooney1","image-keyboard-response","49","278847","0.0-6.0-1.6","2563455","co39298","norming","","","","","","",""
"4662.944999989122","","","post_mooney1_questions","survey-likert","50","283514","0.0-6.0-2.6","2563455","co39298","norming","","","{""curiosity"":1,""confidence"":0}","[0,1]","../img/tt/406tt.jpg","",""
"1281.4050000160933","","","recognition","survey-text","51","284806","0.0-6.0-3.6","2563455","co39298","norming","","","{""guess"":""""}","","../img/tt/406tt.jpg","",""
"null","../img/gs/406gs.jpg","null","reveal","image-keyboard-response","52","286809","0.0-6.0-4.6","2563455","co39298","norming","","","","","","",""
"null","../img/tt/406tt.jpg","null","mooney2","image-keyboard-response","53","288811","0.0-6.0-5.6","2563455","co39298","norming","","","","","","",""
"3120.4349999316037","","","post_reveal_questions","survey-likert","54","291936","0.0-6.0-6.6","2563455","co39298","norming","","","{""aha"":3}","[0]","../img/tt/406tt.jpg","",""
"null","<div style=""font-size:60px;""> </div>","null","fixation","html-keyboard-response","55","292138","0.0-6.0-0.7","2563455","co39298","norming","","","","","","",""
"null","../img/tt/085tt.jpg","null","mooney1","image-keyboard-response","56","295141","0.0-6.0-1.7","2563455","co39298","norming","","","","","","",""
"5008.774999994785","","","post_mooney1_questions","survey-likert","57","300153","0.0-6.0-2.7","2563455","co39298","norming","","","{""curiosity"":1,""confidence"":0}","[0,1]","../img/tt/085tt.jpg","",""
"5026.929999934509","","","recognition","survey-text","58","305187","0.0-6.0-3.7","2563455","co39298","norming","","","{""guess"":""people""}","","../img/tt/085tt.jpg","",""
"null","../img/gs/085gs.jpg","null","reveal","image-keyboard-response","59","307190","0.0-6.0-4.7","2563455","co39298","norming","","","","","","",""
"null","../img/tt/085tt.jpg","null","mooney2","image-keyboard-response","60","309193","0.0-6.0-5.7","2563455","co39298","norming","","","","","","",""
"2857.789999805391","","","post_reveal_questions","survey-likert","61","312052","0.0-6.0-6.7","2563455","co39298","norming","","","{""aha"":4}","[0]","../img/tt/085tt.jpg","",""
"null","<div style=""font-size:60px;""> </div>","null","fixation","html-keyboard-response","62","312255","0.0-6.0-0.8","2563455","co39298","norming","","","","","","",""
"null","../img/tt/418tt.jpg","null","mooney1","image-keyboard-response","63","315259","0.0-6.0-1.8","2563455","co39298","norming","","","","","","",""
"3406.4450000878423","","","post_mooney1_questions","survey-likert","64","318670","0.0-6.0-2.8","2563455","co39298","norming","","","{""curiosity"":5,""confidence"":2}","[0,1]","../img/tt/418tt.jpg","",""
"3010.3050000034273","","","recognition","survey-text","65","321691","0.0-6.0-3.8","2563455","co39298","norming","","","{""guess"":""fruit""}","","../img/tt/418tt.jpg","",""
"null","../img/gs/418gs.jpg","null","reveal","image-keyboard-response","66","323695","0.0-6.0-4.8","2563455","co39298","norming","","","","","","",""
"null","../img/tt/418tt.jpg","null","mooney2","image-keyboard-response","67","325698","0.0-6.0-5.8","2563455","co39298","norming","","","","","","",""
"4795.504999812692","","","post_reveal_questions","survey-likert","68","330498","0.0-6.0-6.8","2563455","co39298","norming","","","{""aha"":2}","[0]","../img/tt/418tt.jpg","",""
"null","<div style=""font-size:60px;""> </div>","null","fixation","html-keyboard-response","69","330702","0.0-6.0-0.9","2563455","co39298","norming","","","","","","",""
"null","../img/tt/580tt.jpg","null","mooney1","image-keyboard-response","70","333706","0.0-6.0-1.9","2563455","co39298","norming","","","","","","",""
"6391.039999900386","","","post_mooney1_questions","survey-likert","71","340101","0.0-6.0-2.9","2563455","co39298","norming","","","{""curiosity"":3,""confidence"":1}","[0,1]","../img/tt/580tt.jpg","",""
"3410.0850000977516","","","recognition","survey-text","72","343523","0.0-6.0-3.9","2563455","co39298","norming","","","{""guess"":""people""}","","../img/tt/580tt.jpg","",""
"null","../img/gs/580gs.jpg","null","reveal","image-keyboard-response","73","345525","0.0-6.0-4.9","2563455","co39298","norming","","","","","","",""
"null","../img/tt/580tt.jpg","null","mooney2","image-keyboard-response","74","347529","0.0-6.0-5.9","2563455","co39298","norming","","","","","","",""
"3370.989999966696","","","post_reveal_questions","survey-likert","75","350905","0.0-6.0-6.9","2563455","co39298","norming","","","{""aha"":6}","[0]","../img/tt/580tt.jpg","",""
"null","<div style=""font-size:60px;""> </div>","null","fixation","html-keyboard-response","76","351108","0.0-6.0-0.10","2563455","co39298","norming","","","","","","",""
"null","../img/tt/1004tt.jpg","null","mooney1","image-keyboard-response","77","354111","0.0-6.0-1.10","2563455","co39298","norming","","","","","","",""
"5697.370000183582","","","post_mooney1_questions","survey-likert","78","359814","0.0-6.0-2.10","2563455","co39298","norming","","","{""curiosity"":2,""confidence"":2}","[0,1]","../img/tt/1004tt.jpg","",""
"4519.554999889806","","","recognition","survey-text","79","364352","0.0-6.0-3.10","2563455","co39298","norming","","","{""guess"":""animals""}","","../img/tt/1004tt.jpg","",""
"null","../img/gs/1004gs.jpg","null","reveal","image-keyboard-response","80","366357","0.0-6.0-4.10","2563455","co39298","norming","","","","","","",""
"null","../img/tt/1004tt.jpg","null","mooney2","image-keyboard-response","81","368383","0.0-6.0-5.10","2563455","co39298","norming","","","","","","",""
"7278.739999979734","","","post_reveal_questions","survey-likert","82","375664","0.0-6.0-6.10","2563455","co39298","norming","","","{""aha"":2}","[0]","../img/tt/1004tt.jpg","",""
"null","<div style=""font-size:60px;""> </div>","null","fixation","html-keyboard-response","83","375868","0.0-6.0-0.11","2563455","co39298","norming","","","","","","",""
"null","../img/tt/296tt.jpg","null","mooney1","image-keyboard-response","84","378872","0.0-6.0-1.11","2563455","co39298","norming","","","","","","",""
"5496.610000031069","","","post_mooney1_questions","survey-likert","85","384372","0.0-6.0-2.11","2563455","co39298","norming","","","{""curiosity"":1,""confidence"":2}","[0,1]","../img/tt/296tt.jpg","",""
"3416.685000061989","","","recognition","survey-text","86","387797","0.0-6.0-3.11","2563455","co39298","norming","","","{""guess"":""Kamer""}","","../img/tt/296tt.jpg","",""
"null","../img/gs/296gs.jpg","null","reveal","image-keyboard-response","87","389800","0.0-6.0-4.11","2563455","co39298","norming","","","","","","",""
"null","../img/tt/296tt.jpg","null","mooney2","image-keyboard-response","88","391807","0.0-6.0-5.11","2563455","co39298","norming","","","","","","",""
"2623.45499987714","","","post_reveal_questions","survey-likert","89","394434","0.0-6.0-6.11","2563455","co39298","norming","","","{""aha"":3}","[0]","../img/tt/296tt.jpg","",""
"null","<div style=""font-size:60px;""> </div>","null","fixation","html-keyboard-response","90","394638","0.0-6.0-0.12","2563455","co39298","norming","","","","","","",""
"null","../img/tt/1199tt.jpg","null","mooney1","image-keyboard-response","91","397645","0.0-6.0-1.12","2563455","co39298","norming","","","","","","",""
"11615.019999910146","","","post_mooney1_questions","survey-likert","92","409263","0.0-6.0-2.12","2563455","co39298","norming","","","{""curiosity"":0,""confidence"":0}","[0,1]","../img/tt/1199tt.jpg","",""
"875.2999999560416","","","recognition","survey-text","93","410147","0.0-6.0-3.12","2563455","co39298","norming","","","{""guess"":""""}","","../img/tt/1199tt.jpg","",""
"null","../img/gs/1199gs.jpg","null","reveal","image-keyboard-response","94","412173","0.0-6.0-4.12","2563455","co39298","norming","","","","","","",""
"null","../img/tt/1199tt.jpg","null","mooney2","image-keyboard-response","95","414175","0.0-6.0-5.12","2563455","co39298","norming","","","","","","",""
"2612.040000036359","","","post_reveal_questions","survey-likert","96","416792","0.0-6.0-6.12","2563455","co39298","norming","","","{""aha"":2}","[0]","../img/tt/1199tt.jpg","",""
"null","<div style=""font-size:60px;""> </div>","null","fixation","html-keyboard-response","97","416997","0.0-6.0-0.13","2563455","co39298","norming","","","","","","",""
"null","../img/tt/1268tt.jpg","null","mooney1","image-keyboard-response","98","420001","0.0-6.0-1.13","2563455","co39298","norming","","","","","","",""
"9057.765000034124","","","post_mooney1_questions","survey-likert","99","429063","0.0-6.0-2.13","2563455","co39298","norming","","","{""curiosity"":5,""confidence"":2}","[0,1]","../img/tt/1268tt.jpg","",""
"5746.610000031069","","","recognition","survey-text","100","434818","0.0-6.0-3.13","2563455","co39298","norming","","","{""guess"":""neushoorn""}","","../img/tt/1268tt.jpg","",""
"null","../img/gs/1268gs.jpg","null","reveal","image-keyboard-response","101","436823","0.0-6.0-4.13","2563455","co39298","norming","","","","","","",""
"null","../img/tt/1268tt.jpg","null","mooney2","image-keyboard-response","102","438825","0.0-6.0-5.13","2563455","co39298","norming","","","","","","",""
"2578.2449999824166","","","post_reveal_questions","survey-likert","103","441407","0.0-6.0-6.13","2563455","co39298","norming","","","{""aha"":6}","[0]","../img/tt/1268tt.jpg","",""
"null","<div style=""font-size:60px;""> </div>","null","fixation","html-keyboard-response","104","441610","0.0-6.0-0.14","2563455","co39298","norming","","","","","","",""
"null","../img/tt/1069tt.jpg","null","mooney1","image-keyboard-response","105","444616","0.0-6.0-1.14","2563455","co39298","norming","","","","","","",""
"5332.709999987856","","","post_mooney1_questions","survey-likert","106","449955","0.0-6.0-2.14","2563455","co39298","norming","","","{""curiosity"":4,""confidence"":4}","[0,1]","../img/tt/1069tt.jpg","",""
"3259.21000004746","","","recognition","survey-text","107","453221","0.0-6.0-3.14","2563455","co39298","norming","","","{""guess"":""schapen""}","","../img/tt/1069tt.jpg","",""
"null","../img/gs/1069gs.jpg","null","reveal","image-keyboard-response","108","455226","0.0-6.0-4.14","2563455","co39298","norming","","","","","","",""
"null","../img/tt/1069tt.jpg","null","mooney2","image-keyboard-response","109","457228","0.0-6.0-5.14","2563455","co39298","norming","","","","","","",""
"2688.575000036508","","","post_reveal_questions","survey-likert","110","459919","0.0-6.0-6.14","2563455","co39298","norming","","","{""aha"":1}","[0]","../img/tt/1069tt.jpg","",""
"null","<div style=""font-size:60px;""> </div>","null","fixation","html-keyboard-response","111","460123","0.0-6.0-0.15","2563455","co39298","norming","","","","","","",""
"null","../img/tt/1235tt.jpg","null","mooney1","image-keyboard-response","112","463127","0.0-6.0-1.15","2563455","co39298","norming","","","","","","",""
"4055.2749999333173","","","post_mooney1_questions","survey-likert","113","467186","0.0-6.0-2.15","2563455","co39298","norming","","","{""curiosity"":5,""confidence"":0}","[0,1]","../img/tt/1235tt.jpg","",""
"762.3699998948723","","","recognition","survey-text","114","467957","0.0-6.0-3.15","2563455","co39298","norming","","","{""guess"":""""}","","../img/tt/1235tt.jpg","",""
"null","../img/gs/1235gs.jpg","null","reveal","image-keyboard-response","115","469961","0.0-6.0-4.15","2563455","co39298","norming","","","","","","",""
"null","../img/tt/1235tt.jpg","null","mooney2","image-keyboard-response","116","471964","0.0-6.0-5.15","2563455","co39298","norming","","","","","","",""
"3172.7950000204146","","","post_reveal_questions","survey-likert","117","475140","0.0-6.0-6.15","2563455","co39298","norming","","","{""aha"":5}","[0]","../img/tt/1235tt.jpg","",""
"null","<div style=""font-size:60px;""> </div>","null","fixation","html-keyboard-response","118","475343","0.0-6.0-0.16","2563455","co39298","norming","","","","","","",""
"null","../img/tt/1156tt.jpg","null","mooney1","image-keyboard-response","119","478348","0.0-6.0-1.16","2563455","co39298","norming","","","","","","",""
"3457.135000033304","","","post_mooney1_questions","survey-likert","120","481808","0.0-6.0-2.16","2563455","co39298","norming","","","{""curiosity"":6,""confidence"":0}","[0,1]","../img/tt/1156tt.jpg","",""
"835.8700000680983","","","recognition","survey-text","121","482651","0.0-6.0-3.16","2563455","co39298","norming","","","{""guess"":""""}","","../img/tt/1156tt.jpg","",""
"null","../img/gs/1156gs.jpg","null","reveal","image-keyboard-response","122","484654","0.0-6.0-4.16","2563455","co39298","norming","","","","","","",""
"null","../img/tt/1156tt.jpg","null","mooney2","image-keyboard-response","123","486699","0.0-6.0-5.16","2563455","co39298","norming","","","","","","",""
"2461.9850001763552","","","post_reveal_questions","survey-likert","124","489162","0.0-6.0-6.16","2563455","co39298","norming","","","{""aha"":5}","[0]","../img/tt/1156tt.jpg","",""
"null","<div style=""font-size:60px;""> </div>","null","fixation","html-keyboard-response","125","489365","0.0-6.0-0.17","2563455","co39298","norming","","","","","","",""
"null","../img/tt/124tt.jpg","null","mooney1","image-keyboard-response","126","492369","0.0-6.0-1.17","2563455","co39298","norming","","","","","","",""
"5918.934999965131","","","post_mooney1_questions","survey-likert","127","498292","0.0-6.0-2.17","2563455","co39298","norming","","","{""curiosity"":3,""confidence"":3}","[0,1]","../img/tt/124tt.jpg","",""
"4629.399999976158","","","recognition","survey-text","128","502927","0.0-6.0-3.17","2563455","co39298","norming","","","{""guess"":""gorilla""}","","../img/tt/124tt.jpg","",""
"null","../img/gs/124gs.jpg","null","reveal","image-keyboard-response","129","504932","0.0-6.0-4.17","2563455","co39298","norming","","","","","","",""
"null","../img/tt/124tt.jpg","null","mooney2","image-keyboard-response","130","506934","0.0-6.0-5.17","2563455","co39298","norming","","","","","","",""
"2749.4699999224395","","","post_reveal_questions","survey-likert","131","509686","0.0-6.0-6.17","2563455","co39298","norming","","","{""aha"":0}","[0]","../img/tt/124tt.jpg","",""
"null","<div style=""font-size:60px;""> </div>","null","fixation","html-keyboard-response","132","509892","0.0-6.0-0.18","2563455","co39298","norming","","","","","","",""
"null","../img/tt/064tt.jpg","null","mooney1","image-keyboard-response","133","512896","0.0-6.0-1.18","2563455","co39298","norming","","","","","","",""
"3927.9849999584258","","","post_mooney1_questions","survey-likert","134","516827","0.0-6.0-2.18","2563455","co39298","norming","","","{""curiosity"":6,""confidence"":1}","[0,1]","../img/tt/064tt.jpg","",""
"4092.6050001289696","","","recognition","survey-text","135","520928","0.0-6.0-3.18","2563455","co39298","norming","","","{""guess"":""insect?""}","","../img/tt/064tt.jpg","",""
"null","../img/gs/064gs.jpg","null","reveal","image-keyboard-response","136","522933","0.0-6.0-4.18","2563455","co39298","norming","","","","","","",""
"null","../img/tt/064tt.jpg","null","mooney2","image-keyboard-response","137","524960","0.0-6.0-5.18","2563455","co39298","norming","","","","","","",""
"3802.59000021033","","","post_reveal_questions","survey-likert","138","528765","0.0-6.0-6.18","2563455","co39298","norming","","","{""aha"":4}","[0]","../img/tt/064tt.jpg","",""
"null","<div style=""font-size:60px;""> </div>","null","fixation","html-keyboard-response","139","528968","0.0-6.0-0.19","2563455","co39298","norming","","","","","","",""
"null","../img/tt/1116tt.jpg","null","mooney1","image-keyboard-response","140","531972","0.0-6.0-1.19","2563455","co39298","norming","","","","","","",""
"3820.5599999055266","","","post_mooney1_questions","survey-likert","141","535797","0.0-6.0-2.19","2563455","co39298","norming","","","{""curiosity"":3,""confidence"":1}","[0,1]","../img/tt/1116tt.jpg","",""
"3659.8200001753867","","","recognition","survey-text","142","539464","0.0-6.0-3.19","2563455","co39298","norming","","","{""guess"":""cars""}","","../img/tt/1116tt.jpg","",""
"null","../img/gs/1116gs.jpg","null","reveal","image-keyboard-response","143","541468","0.0-6.0-4.19","2563455","co39298","norming","","","","","","",""
"null","../img/tt/1116tt.jpg","null","mooney2","image-keyboard-response","144","543471","0.0-6.0-5.19","2563455","co39298","norming","","","","","","",""
"2710.8350000344217","","","post_reveal_questions","survey-likert","145","546185","0.0-6.0-6.19","2563455","co39298","norming","","","{""aha"":2}","[0]","../img/tt/1116tt.jpg","",""
"null","<div style=""font-size:60px;""> </div>","null","fixation","html-keyboard-response","146","546388","0.0-6.0-0.20","2563455","co39298","norming","","","","","","",""
"null","../img/tt/481tt.jpg","null","mooney1","image-keyboard-response","147","549392","0.0-6.0-1.20","2563455","co39298","norming","","","","","","",""
"5030.610000016168","","","post_mooney1_questions","survey-likert","148","554425","0.0-6.0-2.20","2563455","co39298","norming","","","{""curiosity"":5,""confidence"":0}","[0,1]","../img/tt/481tt.jpg","",""
"877.1950001828372","","","recognition","survey-text","149","555314","0.0-6.0-3.20","2563455","co39298","norming","","","{""guess"":""""}","","../img/tt/481tt.jpg","",""
"null","../img/gs/481gs.jpg","null","reveal","image-keyboard-response","150","557318","0.0-6.0-4.20","2563455","co39298","norming","","","","","","",""
"null","../img/tt/481tt.jpg","null","mooney2","image-keyboard-response","151","559321","0.0-6.0-5.20","2563455","co39298","norming","","","","","","",""
"2075.459999963641","","","post_reveal_questions","survey-likert","152","561399","0.0-6.0-6.20","2563455","co39298","norming","","","{""aha"":3}","[0]","../img/tt/481tt.jpg","",""
"null","<div style=""font-size:60px;""> </div>","null","fixation","html-keyboard-response","153","561608","0.0-6.0-0.21","2563455","co39298","norming","","","","","","",""
"null","../img/tt/1366tt.jpg","null","mooney1","image-keyboard-response","154","564621","0.0-6.0-1.21","2563455","co39298","norming","","","","","","",""
"6769.155000103638","","","post_mooney1_questions","survey-likert","155","571395","0.0-6.0-2.21","2563455","co39298","norming","","","{""curiosity"":3,""confidence"":1}","[0,1]","../img/tt/1366tt.jpg","",""
"9254.260000074282","","","recognition","survey-text","156","580660","0.0-6.0-3.21","2563455","co39298","norming","","","{""guess"":""weide, dieren""}","","../img/tt/1366tt.jpg","",""
"null","../img/gs/1366gs.jpg","null","reveal","image-keyboard-response","157","582663","0.0-6.0-4.21","2563455","co39298","norming","","","","","","",""
"null","../img/tt/1366tt.jpg","null","mooney2","image-keyboard-response","158","584665","0.0-6.0-5.21","2563455","co39298","norming","","","","","","",""
"3608.3199998829514","","","post_reveal_questions","survey-likert","159","588277","0.0-6.0-6.21","2563455","co39298","norming","","","{""aha"":6}","[0]","../img/tt/1366tt.jpg","",""
"null","<div style=""font-size:60px;""> </div>","null","fixation","html-keyboard-response","160","588482","0.0-6.0-0.22","2563455","co39298","norming","","","","","","",""
"null","../img/tt/1236tt.jpg","null","mooney1","image-keyboard-response","161","591486","0.0-6.0-1.22","2563455","co39298","norming","","","","","","",""
"9166.419999906793","","","post_mooney1_questions","survey-likert","162","600656","0.0-6.0-2.22","2563455","co39298","norming","","","{""curiosity"":4,""confidence"":1}","[0,1]","../img/tt/1236tt.jpg","",""
"2591.2399999797344","","","recognition","survey-text","163","603257","0.0-6.0-3.22","2563455","co39298","norming","","","{""guess"":""dog""}","","../img/tt/1236tt.jpg","",""
"null","../img/gs/1236gs.jpg","null","reveal","image-keyboard-response","164","605259","0.0-6.0-4.22","2563455","co39298","norming","","","","","","",""
"null","../img/tt/1236tt.jpg","null","mooney2","image-keyboard-response","165","607261","0.0-6.0-5.22","2563455","co39298","norming","","","","","","",""
"2920.9749998990446","","","post_reveal_questions","survey-likert","166","610185","0.0-6.0-6.22","2563455","co39298","norming","","","{""aha"":5}","[0]","../img/tt/1236tt.jpg","",""
"null","<div style=""font-size:60px;""> </div>","null","fixation","html-keyboard-response","167","610389","0.0-6.0-0.23","2563455","co39298","norming","","","","","","",""
"null","../img/tt/1127tt.jpg","null","mooney1","image-keyboard-response","168","613393","0.0-6.0-1.23","2563455","co39298","norming","","","","","","",""
"5620.02500006929","","","post_mooney1_questions","survey-likert","169","619018","0.0-6.0-2.23","2563455","co39298","norming","","","{""curiosity"":2,""confidence"":1}","[0,1]","../img/tt/1127tt.jpg","",""
"3289.7850000299513","","","recognition","survey-text","170","622322","0.0-6.0-3.23","2563455","co39298","norming","","","{""guess"":""klas""}","","../img/tt/1127tt.jpg","",""
"null","../img/gs/1127gs.jpg","null","reveal","image-keyboard-response","171","624326","0.0-6.0-4.23","2563455","co39298","norming","","","","","","",""
"null","../img/tt/1127tt.jpg","null","mooney2","image-keyboard-response","172","626327","0.0-6.0-5.23","2563455","co39298","norming","","","","","","",""
"3287.694999948144","","","post_reveal_questions","survey-likert","173","629618","0.0-6.0-6.23","2563455","co39298","norming","","","{""aha"":2}","[0]","../img/tt/1127tt.jpg","",""
"null","<div style=""font-size:60px;""> </div>","null","fixation","html-keyboard-response","174","629821","0.0-6.0-0.24","2563455","co39298","norming","","","","","","",""
"null","../img/tt/515tt.jpg","null","mooney1","image-keyboard-response","175","632825","0.0-6.0-1.24","2563455","co39298","norming","","","","","","",""
"5539.644999895245","","","post_mooney1_questions","survey-likert","176","638368","0.0-6.0-2.24","2563455","co39298","norming","","","{""curiosity"":4,""confidence"":0}","[0,1]","../img/tt/515tt.jpg","",""
"1018.0600001476705","","","recognition","survey-text","177","639397","0.0-6.0-3.24","2563455","co39298","norming","","","{""guess"":""""}","","../img/tt/515tt.jpg","",""
"null","../img/gs/515gs.jpg","null","reveal","image-keyboard-response","178","641401","0.0-6.0-4.24","2563455","co39298","norming","","","","","","",""
"null","../img/tt/515tt.jpg","null","mooney2","image-keyboard-response","179","643404","0.0-6.0-5.24","2563455","co39298","norming","","","","","","",""
"2285.219999961555","","","post_reveal_questions","survey-likert","180","645691","0.0-6.0-6.24","2563455","co39298","norming","","","{""aha"":3}","[0]","../img/tt/515tt.jpg","",""
"null","<div style=""font-size:60px;""> </div>","null","fixation","html-keyboard-response","181","645894","0.0-6.0-0.25","2563455","co39298","norming","","","","","","",""
"null","../img/tt/001tt.jpg","null","mooney1","image-keyboard-response","182","648898","0.0-6.0-1.25","2563455","co39298","norming","","","","","","",""
"4448.434999911115","","","post_mooney1_questions","survey-likert","183","653348","0.0-6.0-2.25","2563455","co39298","norming","","","{""curiosity"":4,""confidence"":0}","[0,1]","../img/tt/001tt.jpg","",""
"1130.3250000346452","","","recognition","survey-text","184","654498","0.0-6.0-3.25","2563455","co39298","norming","","","{""guess"":""""}","","../img/tt/001tt.jpg","",""
"null","../img/gs/001gs.jpg","null","reveal","image-keyboard-response","185","656504","0.0-6.0-4.25","2563455","co39298","norming","","","","","","",""
"null","../img/tt/001tt.jpg","null","mooney2","image-keyboard-response","186","658507","0.0-6.0-5.25","2563455","co39298","norming","","","","","","",""
"9361.719999928027","","","post_reveal_questions","survey-likert","187","667873","0.0-6.0-6.25","2563455","co39298","norming","","","{""aha"":2}","[0]","../img/tt/001tt.jpg","",""
"null","<div style=""font-size:60px;""> </div>","null","fixation","html-keyboard-response","188","668076","0.0-6.0-0.26","2563455","co39298","norming","","","","","","",""
"null","../img/tt/105tt.jpg","null","mooney1","image-keyboard-response","189","671083","0.0-6.0-1.26","2563455","co39298","norming","","","","","","",""
"21172.370000043884","","","post_mooney1_questions","survey-likert","190","692259","0.0-6.0-2.26","2563455","co39298","norming","","","{""curiosity"":0,""confidence"":0}","[0,1]","../img/tt/105tt.jpg","",""
"985.3799999691546","","","recognition","survey-text","191","693254","0.0-6.0-3.26","2563455","co39298","norming","","","{""guess"":""""}","","../img/tt/105tt.jpg","",""
"null","../img/gs/105gs.jpg","null","reveal","image-keyboard-response","192","695257","0.0-6.0-4.26","2563455","co39298","norming","","","","","","",""
"null","../img/tt/105tt.jpg","null","mooney2","image-keyboard-response","193","697261","0.0-6.0-5.26","2563455","co39298","norming","","","","","","",""
"4459.98500008136","","","post_reveal_questions","survey-likert","194","701724","0.0-6.0-6.26","2563455","co39298","norming","","","{""aha"":5}","[0]","../img/tt/105tt.jpg","",""
"null","<div style=""font-size:60px;""> </div>","null","fixation","html-keyboard-response","195","701927","0.0-6.0-0.27","2563455","co39298","norming","","","","","","",""
"null","../img/tt/1002tt.jpg","null","mooney1","image-keyboard-response","196","704932","0.0-6.0-1.27","2563455","co39298","norming","","","","","","",""
"6231.195000000298","","","post_mooney1_questions","survey-likert","197","711168","0.0-6.0-2.27","2563455","co39298","norming","","","{""curiosity"":3,""confidence"":1}","[0,1]","../img/tt/1002tt.jpg","",""
"2890.6150001566857","","","recognition","survey-text","198","714066","0.0-6.0-3.27","2563455","co39298","norming","","","{""guess"":""koe""}","","../img/tt/1002tt.jpg","",""
"null","../img/gs/1002gs.jpg","null","reveal","image-keyboard-response","199","716070","0.0-6.0-4.27","2563455","co39298","norming","","","","","","",""
"null","../img/tt/1002tt.jpg","null","mooney2","image-keyboard-response","200","718072","0.0-6.0-5.27","2563455","co39298","norming","","","","","","",""
"2555.320000043139","","","post_reveal_questions","survey-likert","201","720629","0.0-6.0-6.27","2563455","co39298","norming","","","{""aha"":4}","[0]","../img/tt/1002tt.jpg","",""
"null","<div style=""font-size:60px;""> </div>","null","fixation","html-keyboard-response","202","720833","0.0-6.0-0.28","2563455","co39298","norming","","","","","","",""
"null","../img/tt/082tt.jpg","null","mooney1","image-keyboard-response","203","723837","0.0-6.0-1.28","2563455","co39298","norming","","","","","","",""
"3895.849999971688","","","post_mooney1_questions","survey-likert","204","727736","0.0-6.0-2.28","2563455","co39298","norming","","","{""curiosity"":2,""confidence"":1}","[0,1]","../img/tt/082tt.jpg","",""
"2502.9900001827627","","","recognition","survey-text","205","730248","0.0-6.0-3.28","2563455","co39298","norming","","","{""guess"":""trap""}","","../img/tt/082tt.jpg","",""
"null","../img/gs/082gs.jpg","null","reveal","image-keyboard-response","206","732251","0.0-6.0-4.28","2563455","co39298","norming","","","","","","",""
"null","../img/tt/082tt.jpg","null","mooney2","image-keyboard-response","207","734255","0.0-6.0-5.28","2563455","co39298","norming","","","","","","",""
"1905.070000095293","","","post_reveal_questions","survey-likert","208","736162","0.0-6.0-6.28","2563455","co39298","norming","","","{""aha"":2}","[0]","../img/tt/082tt.jpg","",""
"null","<div style=""font-size:60px;""> </div>","null","fixation","html-keyboard-response","209","736365","0.0-6.0-0.29","2563455","co39298","norming","","","","","","",""
"null","../img/tt/078tt.jpg","null","mooney1","image-keyboard-response","210","739369","0.0-6.0-1.29","2563455","co39298","norming","","","","","","",""
"4460.194999817759","","","post_mooney1_questions","survey-likert","211","743833","0.0-6.0-2.29","2563455","co39298","norming","","","{""curiosity"":2,""confidence"":0}","[0,1]","../img/tt/078tt.jpg","",""
"1010.8399998862296","","","recognition","survey-text","212","744863","0.0-6.0-3.29","2563455","co39298","norming","","","{""guess"":""""}","","../img/tt/078tt.jpg","",""
"null","../img/gs/078gs.jpg","null","reveal","image-keyboard-response","213","746866","0.0-6.0-4.29","2563455","co39298","norming","","","","","","",""
"null","../img/tt/078tt.jpg","null","mooney2","image-keyboard-response","214","748869","0.0-6.0-5.29","2563455","co39298","norming","","","","","","",""
"3093.5750000644475","","","post_reveal_questions","survey-likert","215","751965","0.0-6.0-6.29","2563455","co39298","norming","","","{""aha"":0}","[0]","../img/tt/078tt.jpg","",""
"null","<div style=""font-size:60px;""> </div>","null","fixation","html-keyboard-response","216","752169","0.0-6.0-0.30","2563455","co39298","norming","","","","","","",""
"null","../img/tt/405tt.jpg","null","mooney1","image-keyboard-response","217","755172","0.0-6.0-1.30","2563455","co39298","norming","","","","","","",""
"3710.7349999714643","","","post_mooney1_questions","survey-likert","218","758886","0.0-6.0-2.30","2563455","co39298","norming","","","{""curiosity"":2,""confidence"":1}","[0,1]","../img/tt/405tt.jpg","",""
"2738.2049998268485","","","recognition","survey-text","219","761644","0.0-6.0-3.30","2563455","co39298","norming","","","{""guess"":""koala""}","","../img/tt/405tt.jpg","",""
"null","../img/gs/405gs.jpg","null","reveal","image-keyboard-response","220","763648","0.0-6.0-4.30","2563455","co39298","norming","","","","","","",""
"null","../img/tt/405tt.jpg","null","mooney2","image-keyboard-response","221","765651","0.0-6.0-5.30","2563455","co39298","norming","","","","","","",""
"4541.530000045896","","","post_reveal_questions","survey-likert","222","770196","0.0-6.0-6.30","2563455","co39298","norming","","","{""aha"":1}","[0]","../img/tt/405tt.jpg","",""
"null","<div style=""font-size:60px;""> </div>","null","fixation","html-keyboard-response","223","770399","0.0-6.0-0.31","2563455","co39298","norming","","","","","","",""
"null","../img/tt/052tt.jpg","null","mooney1","image-keyboard-response","224","773402","0.0-6.0-1.31","2563455","co39298","norming","","","","","","",""
"4229.130000108853","","","post_mooney1_questions","survey-likert","225","777637","0.0-6.0-2.31","2563455","co39298","norming","","","{""curiosity"":2,""confidence"":1}","[0,1]","../img/tt/052tt.jpg","",""
"3272.0649999100715","","","recognition","survey-text","226","780928","0.0-6.0-3.31","2563455","co39298","norming","","","{""guess"":""zwembad""}","","../img/tt/052tt.jpg","",""
"null","../img/gs/052gs.jpg","null","reveal","image-keyboard-response","227","782932","0.0-6.0-4.31","2563455","co39298","norming","","","","","","",""
"null","../img/tt/052tt.jpg","null","mooney2","image-keyboard-response","228","784936","0.0-6.0-5.31","2563455","co39298","norming","","","","","","",""
"2753.2600001432","","","post_reveal_questions","survey-likert","229","787692","0.0-6.0-6.31","2563455","co39298","norming","","","{""aha"":3}","[0]","../img/tt/052tt.jpg","",""
"null","<div style=""font-size:60px;""> </div>","null","fixation","html-keyboard-response","230","787896","0.0-6.0-0.32","2563455","co39298","norming","","","","","","",""
"null","../img/tt/1078tt.jpg","null","mooney1","image-keyboard-response","231","790899","0.0-6.0-1.32","2563455","co39298","norming","","","","","","",""
"6109.5399998594075","","","post_mooney1_questions","survey-likert","232","797012","0.0-6.0-2.32","2563455","co39298","norming","","","{""curiosity"":4,""confidence"":0}","[0,1]","../img/tt/1078tt.jpg","",""
"776.1199998203665","","","recognition","survey-text","233","797807","0.0-6.0-3.32","2563455","co39298","norming","","","{""guess"":""""}","","../img/tt/1078tt.jpg","",""
"null","../img/gs/1078gs.jpg","null","reveal","image-keyboard-response","234","799809","0.0-6.0-4.32","2563455","co39298","norming","","","","","","",""
"null","../img/tt/1078tt.jpg","null","mooney2","image-keyboard-response","235","801813","0.0-6.0-5.32","2563455","co39298","norming","","","","","","",""
"2046.9450000673532","","","post_reveal_questions","survey-likert","236","803861","0.0-6.0-6.32","2563455","co39298","norming","","","{""aha"":2}","[0]","../img/tt/1078tt.jpg","",""
"null","<div style=""font-size:60px;""> </div>","null","fixation","html-keyboard-response","237","804065","0.0-6.0-0.33","2563455","co39298","norming","","","","","","",""
"null","../img/tt/1080tt.jpg","null","mooney1","image-keyboard-response","238","807068","0.0-6.0-1.33","2563455","co39298","norming","","","","","","",""
"5067.275000037625","","","post_mooney1_questions","survey-likert","239","812139","0.0-6.0-2.33","2563455","co39298","norming","","","{""curiosity"":2,""confidence"":0}","[0,1]","../img/tt/1080tt.jpg","",""
"715.4399999417365","","","recognition","survey-text","240","812864","0.0-6.0-3.33","2563455","co39298","norming","","","{""guess"":""""}","","../img/tt/1080tt.jpg","",""
"null","../img/gs/1080gs.jpg","null","reveal","image-keyboard-response","241","814867","0.0-6.0-4.33","2563455","co39298","norming","","","","","","",""
"null","../img/tt/1080tt.jpg","null","mooney2","image-keyboard-response","242","816870","0.0-6.0-5.33","2563455","co39298","norming","","","","","","",""
"2724.2050000932068","","","post_reveal_questions","survey-likert","243","819597","0.0-6.0-6.33","2563455","co39298","norming","","","{""aha"":2}","[0]","../img/tt/1080tt.jpg","",""
"null","<div style=""font-size:60px;""> </div>","null","fixation","html-keyboard-response","244","819800","0.0-6.0-0.34","2563455","co39298","norming","","","","","","",""
"null","../img/tt/1102tt.jpg","null","mooney1","image-keyboard-response","245","822804","0.0-6.0-1.34","2563455","co39298","norming","","","","","","",""
"3151.9250001292676","","","post_mooney1_questions","survey-likert","246","825960","0.0-6.0-2.34","2563455","co39298","norming","","","{""curiosity"":2,""confidence"":1}","[0,1]","../img/tt/1102tt.jpg","",""
"2532.1150000672787","","","recognition","survey-text","247","828501","0.0-6.0-3.34","2563455","co39298","norming","","","{""guess"":""bos""}","","../img/tt/1102tt.jpg","",""
"null","../img/gs/1102gs.jpg","null","reveal","image-keyboard-response","248","830503","0.0-6.0-4.34","2563455","co39298","norming","","","","","","",""
"null","../img/tt/1102tt.jpg","null","mooney2","image-keyboard-response","249","832506","0.0-6.0-5.34","2563455","co39298","norming","","","","","","",""
"2451.76999992691","","","post_reveal_questions","survey-likert","250","834962","0.0-6.0-6.34","2563455","co39298","norming","","","{""aha"":3}","[0]","../img/tt/1102tt.jpg","",""
"null","<div style=""font-size:60px;""> </div>","null","fixation","html-keyboard-response","251","835165","0.0-6.0-0.35","2563455","co39298","norming","","","","","","",""
"null","../img/tt/440tt.jpg","null","mooney1","image-keyboard-response","252","838169","0.0-6.0-1.35","2563455","co39298","norming","","","","","","",""
"5087.154999841005","","","post_mooney1_questions","survey-likert","253","843261","0.0-6.0-2.35","2563455","co39298","norming","","","{""curiosity"":2,""confidence"":1}","[0,1]","../img/tt/440tt.jpg","",""
"2679.024999961257","","","recognition","survey-text","254","845948","0.0-6.0-3.35","2563455","co39298","norming","","","{""guess"":""paard""}","","../img/tt/440tt.jpg","",""
"null","../img/gs/440gs.jpg","null","reveal","image-keyboard-response","255","847950","0.0-6.0-4.35","2563455","co39298","norming","","","","","","",""
"null","../img/tt/440tt.jpg","null","mooney2","image-keyboard-response","256","849953","0.0-6.0-5.35","2563455","co39298","norming","","","","","","",""
"2713.159999810159","","","post_reveal_questions","survey-likert","257","852672","0.0-6.0-6.35","2563455","co39298","norming","","","{""aha"":4}","[0]","../img/tt/440tt.jpg","",""
"null","<div style=""font-size:60px;""> </div>","null","fixation","html-keyboard-response","258","852876","0.0-6.0-0.36","2563455","co39298","norming","","","","","","",""
"null","../img/tt/549tt.jpg","null","mooney1","image-keyboard-response","259","855879","0.0-6.0-1.36","2563455","co39298","norming","","","","","","",""
"5137.965000001714","","","post_mooney1_questions","survey-likert","260","861021","0.0-6.0-2.36","2563455","co39298","norming","","","{""curiosity"":3,""confidence"":0}","[0,1]","../img/tt/549tt.jpg","",""
"862.4350000172853","","","recognition","survey-text","261","861892","0.0-6.0-3.36","2563455","co39298","norming","","","{""guess"":""""}","","../img/tt/549tt.jpg","",""
"null","../img/gs/549gs.jpg","null","reveal","image-keyboard-response","262","863895","0.0-6.0-4.36","2563455","co39298","norming","","","","","","",""
"null","../img/tt/549tt.jpg","null","mooney2","image-keyboard-response","263","865947","0.0-6.0-5.36","2563455","co39298","norming","","","","","","",""
"7480.60500016436","","","post_reveal_questions","survey-likert","264","873432","0.0-6.0-6.36","2563455","co39298","norming","","","{""aha"":0}","[0]","../img/tt/549tt.jpg","",""
"null","<div style=""font-size:60px;""> </div>","null","fixation","html-keyboard-response","265","873636","0.0-6.0-0.37","2563455","co39298","norming","","","","","","",""
"null","../img/tt/315tt.jpg","null","mooney1","image-keyboard-response","266","876639","0.0-6.0-1.37","2563455","co39298","norming","","","","","","",""
"3539.0999999362975","","","post_mooney1_questions","survey-likert","267","880183","0.0-6.0-2.37","2563455","co39298","norming","","","{""curiosity"":2,""confidence"":0}","[0,1]","../img/tt/315tt.jpg","",""
"917.8299999330193","","","recognition","survey-text","268","881109","0.0-6.0-3.37","2563455","co39298","norming","","","{""guess"":""""}","","../img/tt/315tt.jpg","",""
"null","../img/gs/315gs.jpg","null","reveal","image-keyboard-response","269","883111","0.0-6.0-4.37","2563455","co39298","norming","","","","","","",""
"null","../img/tt/315tt.jpg","null","mooney2","image-keyboard-response","270","885116","0.0-6.0-5.37","2563455","co39298","norming","","","","","","",""
"3064.060000004247","","","post_reveal_questions","survey-likert","271","888184","0.0-6.0-6.37","2563455","co39298","norming","","","{""aha"":1}","[0]","../img/tt/315tt.jpg","",""
"null","<div style=""font-size:60px;""> </div>","null","fixation","html-keyboard-response","272","888387","0.0-6.0-0.38","2563455","co39298","norming","","","","","","",""
"null","../img/tt/1262tt.jpg","null","mooney1","image-keyboard-response","273","891390","0.0-6.0-1.38","2563455","co39298","norming","","","","","","",""
"3786.640000063926","","","post_mooney1_questions","survey-likert","274","895181","0.0-6.0-2.38","2563455","co39298","norming","","","{""curiosity"":2,""confidence"":1}","[0,1]","../img/tt/1262tt.jpg","",""
"3122.399999992922","","","recognition","survey-text","275","898311","0.0-6.0-3.38","2563455","co39298","norming","","","{""guess"":""vogel""}","","../img/tt/1262tt.jpg","",""
"null","../img/gs/1262gs.jpg","null","reveal","image-keyboard-response","276","900314","0.0-6.0-4.38","2563455","co39298","norming","","","","","","",""
"null","../img/tt/1262tt.jpg","null","mooney2","image-keyboard-response","277","902317","0.0-6.0-5.38","2563455","co39298","norming","","","","","","",""
"3321.229999884963","","","post_reveal_questions","survey-likert","278","905642","0.0-6.0-6.38","2563455","co39298","norming","","","{""aha"":4}","[0]","../img/tt/1262tt.jpg","",""
"null","<div style=""font-size:60px;""> </div>","null","fixation","html-keyboard-response","279","905846","0.0-6.0-0.39","2563455","co39298","norming","","","","","","",""
"null","../img/tt/053tt.jpg","null","mooney1","image-keyboard-response","280","908850","0.0-6.0-1.39","2563455","co39298","norming","","","","","","",""
"4239.3700000829995","","","post_mooney1_questions","survey-likert","281","913093","0.0-6.0-2.39","2563455","co39298","norming","","","{""curiosity"":5,""confidence"":1}","[0,1]","../img/tt/053tt.jpg","",""
"3322.300000116229","","","recognition","survey-text","282","916430","0.0-6.0-3.39","2563455","co39298","norming","","","{""guess"":""dieren""}","","../img/tt/053tt.jpg","",""
"null","../img/gs/053gs.jpg","null","reveal","image-keyboard-response","283","918434","0.0-6.0-4.39","2563455","co39298","norming","","","","","","",""
"null","../img/tt/053tt.jpg","null","mooney2","image-keyboard-response","284","920438","0.0-6.0-5.39","2563455","co39298","norming","","","","","","",""
"1860.080000013113","","","post_reveal_questions","survey-likert","285","922302","0.0-6.0-6.39","2563455","co39298","norming","","","{""aha"":5}","[0]","../img/tt/053tt.jpg","",""
"null","<div style=""font-size:60px;""> </div>","null","fixation","html-keyboard-response","286","922504","0.0-6.0-0.40","2563455","co39298","norming","","","","","","",""
"null","../img/tt/1261tt.jpg","null","mooney1","image-keyboard-response","287","925510","0.0-6.0-1.40","2563455","co39298","norming","","","","","","",""
"4531.0850001405925","","","post_mooney1_questions","survey-likert","288","930044","0.0-6.0-2.40","2563455","co39298","norming","","","{""curiosity"":5,""confidence"":1}","[0,1]","../img/tt/1261tt.jpg","",""
"3204.249999951571","","","recognition","survey-text","289","933257","0.0-6.0-3.40","2563455","co39298","norming","","","{""guess"":""kat""}","","../img/tt/1261tt.jpg","",""
"null","../img/gs/1261gs.jpg","null","reveal","image-keyboard-response","290","935260","0.0-6.0-4.40","2563455","co39298","norming","","","","","","",""
"null","../img/tt/1261tt.jpg","null","mooney2","image-keyboard-response","291","937262","0.0-6.0-5.40","2563455","co39298","norming","","","","","","",""
"22350.980000104755","","","post_reveal_questions","survey-likert","292","959617","0.0-6.0-6.40","2563455","co39298","norming","","","{""aha"":2}","[0]","../img/tt/1261tt.jpg","",""
"null","<div style=""font-size:60px;""> </div>","null","fixation","html-keyboard-response","293","959820","0.0-6.0-0.41","2563455","co39298","norming","","","","","","",""
"null","../img/tt/1107tt.jpg","null","mooney1","image-keyboard-response","294","962824","0.0-6.0-1.41","2563455","co39298","norming","","","","","","",""
"4323.1900001410395","","","post_mooney1_questions","survey-likert","295","967151","0.0-6.0-2.41","2563455","co39298","norming","","","{""curiosity"":4,""confidence"":3}","[0,1]","../img/tt/1107tt.jpg","",""
"3911.6499999072403","","","recognition","survey-text","296","971071","0.0-6.0-3.41","2563455","co39298","norming","","","{""guess"":""kat""}","","../img/tt/1107tt.jpg","",""
"null","../img/gs/1107gs.jpg","null","reveal","image-keyboard-response","297","973075","0.0-6.0-4.41","2563455","co39298","norming","","","","","","",""
"null","../img/tt/1107tt.jpg","null","mooney2","image-keyboard-response","298","975077","0.0-6.0-5.41","2563455","co39298","norming","","","","","","",""
"2925.874999957159","","","post_reveal_questions","survey-likert","299","978008","0.0-6.0-6.41","2563455","co39298","norming","","","{""aha"":2}","[0]","../img/tt/1107tt.jpg","",""
"null","<div style=""font-size:60px;""> </div>","null","fixation","html-keyboard-response","300","978210","0.0-6.0-0.42","2563455","co39298","norming","","","","","","",""
"null","../img/tt/436tt.jpg","null","mooney1","image-keyboard-response","301","981214","0.0-6.0-1.42","2563455","co39298","norming","","","","","","",""
"4441.20500003919","","","post_mooney1_questions","survey-likert","302","985659","0.0-6.0-2.42","2563455","co39298","norming","","","{""curiosity"":4,""confidence"":0}","[0,1]","../img/tt/436tt.jpg","",""
"1803.7799999583513","","","recognition","survey-text","303","987472","0.0-6.0-3.42","2563455","co39298","norming","","","{""guess"":""""}","","../img/tt/436tt.jpg","",""
"null","../img/gs/436gs.jpg","null","reveal","image-keyboard-response","304","989477","0.0-6.0-4.42","2563455","co39298","norming","","","","","","",""
"null","../img/tt/436tt.jpg","null","mooney2","image-keyboard-response","305","991480","0.0-6.0-5.42","2563455","co39298","norming","","","","","","",""
"9784.10999989137","","","post_reveal_questions","survey-likert","306","1001267","0.0-6.0-6.42","2563455","co39298","norming","","","{""aha"":5}","[0]","../img/tt/436tt.jpg","",""
"null","<div style=""font-size:60px;""> </div>","null","fixation","html-keyboard-response","307","1001472","0.0-6.0-0.43","2563455","co39298","norming","","","","","","",""
"null","../img/tt/599tt.jpg","null","mooney1","image-keyboard-response","308","1004480","0.0-6.0-1.43","2563455","co39298","norming","","","","","","",""
"6007.720000110567","","","post_mooney1_questions","survey-likert","309","1010492","0.0-6.0-2.43","2563455","co39298","norming","","","{""curiosity"":0,""confidence"":0}","[0,1]","../img/tt/599tt.jpg","",""
"959.2450000345707","","","recognition","survey-text","310","1011476","0.0-6.0-3.43","2563455","co39298","norming","","","{""guess"":""""}","","../img/tt/599tt.jpg","",""
"null","../img/gs/599gs.jpg","null","reveal","image-keyboard-response","311","1013480","0.0-6.0-4.43","2563455","co39298","norming","","","","","","",""
"null","../img/tt/599tt.jpg","null","mooney2","image-keyboard-response","312","1015483","0.0-6.0-5.43","2563455","co39298","norming","","","","","","",""
"9062.910000095144","","","post_reveal_questions","survey-likert","313","1024549","0.0-6.0-6.43","2563455","co39298","norming","","","{""aha"":4}","[0]","../img/tt/599tt.jpg","",""
"null","<div style=""font-size:60px;""> </div>","null","fixation","html-keyboard-response","314","1024751","0.0-6.0-0.44","2563455","co39298","norming","","","","","","",""
"null","../img/tt/1175tt.jpg","null","mooney1","image-keyboard-response","315","1027755","0.0-6.0-1.44","2563455","co39298","norming","","","","","","",""
"4634.575000032783","","","post_mooney1_questions","survey-likert","316","1032393","0.0-6.0-2.44","2563455","co39298","norming","","","{""curiosity"":1,""confidence"":1}","[0,1]","../img/tt/1175tt.jpg","",""
"3792.664999840781","","","recognition","survey-text","317","1036206","0.0-6.0-3.44","2563455","co39298","norming","","","{""guess"":""caf""}","","../img/tt/1175tt.jpg","",""
"null","../img/gs/1175gs.jpg","null","reveal","image-keyboard-response","318","1038210","0.0-6.0-4.44","2563455","co39298","norming","","","","","","",""
"null","../img/tt/1175tt.jpg","null","mooney2","image-keyboard-response","319","1040212","0.0-6.0-5.44","2563455","co39298","norming","","","","","","",""
"2362.029999960214","","","post_reveal_questions","survey-likert","320","1042577","0.0-6.0-6.44","2563455","co39298","norming","","","{""aha"":2}","[0]","../img/tt/1175tt.jpg","",""
"null","<div style=""font-size:60px;""> </div>","null","fixation","html-keyboard-response","321","1042779","0.0-6.0-0.45","2563455","co39298","norming","","","","","","",""
"null","../img/tt/307tt.jpg","null","mooney1","image-keyboard-response","322","1045783","0.0-6.0-1.45","2563455","co39298","norming","","","","","","",""
"3097.929999930784","","","post_mooney1_questions","survey-likert","323","1048886","0.0-6.0-2.45","2563455","co39298","norming","","","{""curiosity"":0,""confidence"":0}","[0,1]","../img/tt/307tt.jpg","",""
"747.6249998435378","","","recognition","survey-text","324","1049654","0.0-6.0-3.45","2563455","co39298","norming","","","{""guess"":""""}","","../img/tt/307tt.jpg","",""
"null","../img/gs/307gs.jpg","null","reveal","image-keyboard-response","325","1051657","0.0-6.0-4.45","2563455","co39298","norming","","","","","","",""
"null","../img/tt/307tt.jpg","null","mooney2","image-keyboard-response","326","1053661","0.0-6.0-5.45","2563455","co39298","norming","","","","","","",""
"3293.470000149682","","","post_reveal_questions","survey-likert","327","1056957","0.0-6.0-6.45","2563455","co39298","norming","","","{""aha"":5}","[0]","../img/tt/307tt.jpg","",""
"null","<div style=""font-size:60px;""> </div>","null","fixation","html-keyboard-response","328","1057161","0.0-6.0-0.46","2563455","co39298","norming","","","","","","",""
"null","../img/tt/1012tt.jpg","null","mooney1","image-keyboard-response","329","1060166","0.0-6.0-1.46","2563455","co39298","norming","","","","","","",""
"11016.014999942854","","","post_mooney1_questions","survey-likert","330","1071186","0.0-6.0-2.46","2563455","co39298","norming","","","{""curiosity"":4,""confidence"":0}","[0,1]","../img/tt/1012tt.jpg","",""
"1030.1600000821054","","","recognition","survey-text","331","1072226","0.0-6.0-3.46","2563455","co39298","norming","","","{""guess"":""""}","","../img/tt/1012tt.jpg","",""
"null","../img/gs/1012gs.jpg","null","reveal","image-keyboard-response","332","1074231","0.0-6.0-4.46","2563455","co39298","norming","","","","","","",""
"null","../img/tt/1012tt.jpg","null","mooney2","image-keyboard-response","333","1076233","0.0-6.0-5.46","2563455","co39298","norming","","","","","","",""
"1958.1400000024587","","","post_reveal_questions","survey-likert","334","1078194","0.0-6.0-6.46","2563455","co39298","norming","","","{""aha"":1}","[0]","../img/tt/1012tt.jpg","",""
"null","<div style=""font-size:60px;""> </div>","null","fixation","html-keyboard-response","335","1078398","0.0-6.0-0.47","2563455","co39298","norming","","","","","","",""
"null","../img/tt/032tt.jpg","null","mooney1","image-keyboard-response","336","1081401","0.0-6.0-1.47","2563455","co39298","norming","","","","","","",""
"6842.769999988377","","","post_mooney1_questions","survey-likert","337","1088246","0.0-6.0-2.47","2563455","co39298","norming","","","{""curiosity"":1,""confidence"":0}","[0,1]","../img/tt/032tt.jpg","",""
"641.2599999457598","","","recognition","survey-text","338","1088896","0.0-6.0-3.47","2563455","co39298","norming","","","{""guess"":""""}","","../img/tt/032tt.jpg","",""
"null","../img/gs/032gs.jpg","null","reveal","image-keyboard-response","339","1090900","0.0-6.0-4.47","2563455","co39298","norming","","","","","","",""
"null","../img/tt/032tt.jpg","null","mooney2","image-keyboard-response","340","1092904","0.0-6.0-5.47","2563455","co39298","norming","","","","","","",""
"2679.3399997986853","","","post_reveal_questions","survey-likert","341","1095601","0.0-6.0-6.47","2563455","co39298","norming","","","{""aha"":2}","[0]","../img/tt/032tt.jpg","",""
"null","<div style=""font-size:60px;""> </div>","null","fixation","html-keyboard-response","342","1095806","0.0-6.0-0.48","2563455","co39298","norming","","","","","","",""
"null","../img/tt/1270tt.jpg","null","mooney1","image-keyboard-response","343","1098846","0.0-6.0-1.48","2563455","co39298","norming","","","","","","",""
"4384.009999921545","","","post_mooney1_questions","survey-likert","344","1103236","0.0-6.0-2.48","2563455","co39298","norming","","","{""curiosity"":3,""confidence"":0}","[0,1]","../img/tt/1270tt.jpg","",""
"905.5000001098961","","","recognition","survey-text","345","1104155","0.0-6.0-3.48","2563455","co39298","norming","","","{""guess"":""""}","","../img/tt/1270tt.jpg","",""
"null","../img/gs/1270gs.jpg","null","reveal","image-keyboard-response","346","1106171","0.0-6.0-4.48","2563455","co39298","norming","","","","","","",""
"null","../img/tt/1270tt.jpg","null","mooney2","image-keyboard-response","347","1108235","0.0-6.0-5.48","2563455","co39298","norming","","","","","","",""
"2721.879999851808","","","post_reveal_questions","survey-likert","348","1110959","0.0-6.0-6.48","2563455","co39298","norming","","","{""aha"":6}","[0]","../img/tt/1270tt.jpg","",""
"null","<div style=""font-size:60px;""> </div>","null","fixation","html-keyboard-response","349","1111162","0.0-6.0-0.49","2563455","co39298","norming","","","","","","",""
"null","../img/tt/189tt.jpg","null","mooney1","image-keyboard-response","350","1114166","0.0-6.0-1.49","2563455","co39298","norming","","","","","","",""
"4550.730000017211","","","post_mooney1_questions","survey-likert","351","1118723","0.0-6.0-2.49","2563455","co39298","norming","","","{""curiosity"":5,""confidence"":0}","[0,1]","../img/tt/189tt.jpg","",""
"7257.699999958277","","","recognition","survey-text","352","1125989","0.0-6.0-3.49","2563455","co39298","norming","","","{""guess"":""hangmat""}","","../img/tt/189tt.jpg","",""
"null","../img/gs/189gs.jpg","null","reveal","image-keyboard-response","353","1127999","0.0-6.0-4.49","2563455","co39298","norming","","","","","","",""
"null","../img/tt/189tt.jpg","null","mooney2","image-keyboard-response","354","1130002","0.0-6.0-5.49","2563455","co39298","norming","","","","","","",""
"2954.8000001814216","","","post_reveal_questions","survey-likert","355","1132961","0.0-6.0-6.49","2563455","co39298","norming","","","{""aha"":3}","[0]","../img/tt/189tt.jpg","",""
"null","<div style=""font-size:60px;""> </div>","null","fixation","html-keyboard-response","356","1133164","0.0-6.0-0.50","2563455","co39298","norming","","","","","","",""
"null","../img/tt/1148tt.jpg","null","mooney1","image-keyboard-response","357","1136168","0.0-6.0-1.50","2563455","co39298","norming","","","","","","",""
"5826.379999984056","","","post_mooney1_questions","survey-likert","358","1141998","0.0-6.0-2.50","2563455","co39298","norming","","","{""curiosity"":1,""confidence"":0}","[0,1]","../img/tt/1148tt.jpg","",""
"646.5799999423325","","","recognition","survey-text","359","1142653","0.0-6.0-3.50","2563455","co39298","norming","","","{""guess"":""""}","","../img/tt/1148tt.jpg","",""
"null","../img/gs/1148gs.jpg","null","reveal","image-keyboard-response","360","1144655","0.0-6.0-4.50","2563455","co39298","norming","","","","","","",""
"null","../img/tt/1148tt.jpg","null","mooney2","image-keyboard-response","361","1146658","0.0-6.0-5.50","2563455","co39298","norming","","","","","","",""
"15187.249999959022","","","post_reveal_questions","survey-likert","362","1161849","0.0-6.0-6.50","2563455","co39298","norming","","","{""aha"":1}","[0]","../img/tt/1148tt.jpg","",""
"null","<div style=""font-size:60px;""> </div>","null","fixation","html-keyboard-response","363","1162051","0.0-6.0-0.51","2563455","co39298","norming","","","","","","",""
"null","../img/tt/1250tt.jpg","null","mooney1","image-keyboard-response","364","1165054","0.0-6.0-1.51","2563455","co39298","norming","","","","","","",""
"4508.7349999230355","","","post_mooney1_questions","survey-likert","365","1169566","0.0-6.0-2.51","2563455","co39298","norming","","","{""curiosity"":2,""confidence"":1}","[0,1]","../img/tt/1250tt.jpg","",""
"3709.3199999071658","","","recognition","survey-text","366","1173283","0.0-6.0-3.51","2563455","co39298","norming","","","{""guess"":""zeehonden""}","","../img/tt/1250tt.jpg","",""
"null","../img/gs/1250gs.jpg","null","reveal","image-keyboard-response","367","1175286","0.0-6.0-4.51","2563455","co39298","norming","","","","","","",""
"null","../img/tt/1250tt.jpg","null","mooney2","image-keyboard-response","368","1177290","0.0-6.0-5.51","2563455","co39298","norming","","","","","","",""
"2867.629999993369","","","post_reveal_questions","survey-likert","369","1180161","0.0-6.0-6.51","2563455","co39298","norming","","","{""aha"":5}","[0]","../img/tt/1250tt.jpg","",""
"null","<div style=""font-size:60px;""> </div>","null","fixation","html-keyboard-response","370","1180365","0.0-6.0-0.52","2563455","co39298","norming","","","","","","",""
"null","../img/tt/1143tt.jpg","null","mooney1","image-keyboard-response","371","1183368","0.0-6.0-1.52","2563455","co39298","norming","","","","","","",""
"6299.109999788925","","","post_mooney1_questions","survey-likert","372","1189672","0.0-6.0-2.52","2563455","co39298","norming","","","{""curiosity"":2,""confidence"":4}","[0,1]","../img/tt/1143tt.jpg","",""
"3419.865000061691","","","recognition","survey-text","373","1193099","0.0-6.0-3.52","2563455","co39298","norming","","","{""guess"":""fitness""}","","../img/tt/1143tt.jpg","",""
"null","../img/gs/1143gs.jpg","null","reveal","image-keyboard-response","374","1195102","0.0-6.0-4.52","2563455","co39298","norming","","","","","","",""
"null","../img/tt/1143tt.jpg","null","mooney2","image-keyboard-response","375","1197104","0.0-6.0-5.52","2563455","co39298","norming","","","","","","",""
"3322.9900000151247","","","post_reveal_questions","survey-likert","376","1200430","0.0-6.0-6.52","2563455","co39298","norming","","","{""aha"":0}","[0]","../img/tt/1143tt.jpg","",""
"null","<div style=""font-size:60px;""> </div>","null","fixation","html-keyboard-response","377","1200633","0.0-6.0-0.53","2563455","co39298","norming","","","","","","",""
"null","../img/tt/1061tt.jpg","null","mooney1","image-keyboard-response","378","1203639","0.0-6.0-1.53","2563455","co39298","norming","","","","","","",""
"4623.09499992989","","","post_mooney1_questions","survey-likert","379","1208268","0.0-6.0-2.53","2563455","co39298","norming","","","{""curiosity"":4,""confidence"":1}","[0,1]","../img/tt/1061tt.jpg","",""
"5753.87499993667","","","recognition","survey-text","380","1214031","0.0-6.0-3.53","2563455","co39298","norming","","","{""guess"":""park""}","","../img/tt/1061tt.jpg","",""
"null","../img/gs/1061gs.jpg","null","reveal","image-keyboard-response","381","1216037","0.0-6.0-4.53","2563455","co39298","norming","","","","","","",""
"null","../img/tt/1061tt.jpg","null","mooney2","image-keyboard-response","382","1218040","0.0-6.0-5.53","2563455","co39298","norming","","","","","","",""
"19410.605000099167","","","post_reveal_questions","survey-likert","383","1237453","0.0-6.0-6.53","2563455","co39298","norming","","","{""aha"":2}","[0]","../img/tt/1061tt.jpg","",""
"null","<div style=""font-size:60px;""> </div>","null","fixation","html-keyboard-response","384","1237656","0.0-6.0-0.54","2563455","co39298","norming","","","","","","",""
"null","../img/tt/456tt.jpg","null","mooney1","image-keyboard-response","385","1240660","0.0-6.0-1.54","2563455","co39298","norming","","","","","","",""
"6145.465000066906","","","post_mooney1_questions","survey-likert","386","1246810","0.0-6.0-2.54","2563455","co39298","norming","","","{""curiosity"":3,""confidence"":0}","[0,1]","../img/tt/456tt.jpg","",""
"757.4000000022352","","","recognition","survey-text","387","1247596","0.0-6.0-3.54","2563455","co39298","norming","","","{""guess"":""""}","","../img/tt/456tt.jpg","",""
"null","../img/gs/456gs.jpg","null","reveal","image-keyboard-response","388","1249602","0.0-6.0-4.54","2563455","co39298","norming","","","","","","",""
"null","../img/tt/456tt.jpg","null","mooney2","image-keyboard-response","389","1251604","0.0-6.0-5.54","2563455","co39298","norming","","","","","","",""
"1836.7099999450147","","","post_reveal_questions","survey-likert","390","1253444","0.0-6.0-6.54","2563455","co39298","norming","","","{""aha"":3}","[0]","../img/tt/456tt.jpg","",""
"null","<div style=""font-size:60px;""> </div>","null","fixation","html-keyboard-response","391","1253647","0.0-6.0-0.55","2563455","co39298","norming","","","","","","",""
"null","../img/tt/1190tt.jpg","null","mooney1","image-keyboard-response","392","1256650","0.0-6.0-1.55","2563455","co39298","norming","","","","","","",""
"3528.5800001583993","","","post_mooney1_questions","survey-likert","393","1260181","0.0-6.0-2.55","2563455","co39298","norming","","","{""curiosity"":2,""confidence"":1}","[0,1]","../img/tt/1190tt.jpg","",""
"4549.705000128597","","","recognition","survey-text","394","1264742","0.0-6.0-3.55","2563455","co39298","norming","","","{""guess"":""bos""}","","../img/tt/1190tt.jpg","",""
"null","../img/gs/1190gs.jpg","null","reveal","image-keyboard-response","395","1266745","0.0-6.0-4.55","2563455","co39298","norming","","","","","","",""
"null","../img/tt/1190tt.jpg","null","mooney2","image-keyboard-response","396","1268749","0.0-6.0-5.55","2563455","co39298","norming","","","","","","",""
"2232.7350000850856","","","post_reveal_questions","survey-likert","397","1270985","0.0-6.0-6.55","2563455","co39298","norming","","","{""aha"":4}","[0]","../img/tt/1190tt.jpg","",""
"null","<div style=""font-size:60px;""> </div>","null","fixation","html-keyboard-response","398","1271189","0.0-6.0-0.56","2563455","co39298","norming","","","","","","",""
"null","../img/tt/1276tt.jpg","null","mooney1","image-keyboard-response","399","1274193","0.0-6.0-1.56","2563455","co39298","norming","","","","","","",""
"4128.779999911785","","","post_mooney1_questions","survey-likert","400","1278325","0.0-6.0-2.56","2563455","co39298","norming","","","{""curiosity"":0,""confidence"":0}","[0,1]","../img/tt/1276tt.jpg","",""
"589.2650000751019","","","recognition","survey-text","401","1278920","0.0-6.0-3.56","2563455","co39298","norming","","","{""guess"":""""}","","../img/tt/1276tt.jpg","",""
"null","../img/gs/1276gs.jpg","null","reveal","image-keyboard-response","402","1280923","0.0-6.0-4.56","2563455","co39298","norming","","","","","","",""
"null","../img/tt/1276tt.jpg","null","mooney2","image-keyboard-response","403","1282926","0.0-6.0-5.56","2563455","co39298","norming","","","","","","",""
"3007.289999863133","","","post_reveal_questions","survey-likert","404","1285937","0.0-6.0-6.56","2563455","co39298","norming","","","{""aha"":4}","[0]","../img/tt/1276tt.jpg","",""
"null","<div style=""font-size:60px;""> </div>","null","fixation","html-keyboard-response","405","1286140","0.0-6.0-0.57","2563455","co39298","norming","","","","","","",""
"null","../img/tt/118tt.jpg","null","mooney1","image-keyboard-response","406","1289144","0.0-6.0-1.57","2563455","co39298","norming","","","","","","",""
"4303.065000101924","","","post_mooney1_questions","survey-likert","407","1293451","0.0-6.0-2.57","2563455","co39298","norming","","","{""curiosity"":1,""confidence"":1}","[0,1]","../img/tt/118tt.jpg","",""
"3108.1600000616163","","","recognition","survey-text","408","1296568","0.0-6.0-3.57","2563455","co39298","norming","","","{""guess"":""stoel""}","","../img/tt/118tt.jpg","",""
"null","../img/gs/118gs.jpg","null","reveal","image-keyboard-response","409","1298572","0.0-6.0-4.57","2563455","co39298","norming","","","","","","",""
"null","../img/tt/118tt.jpg","null","mooney2","image-keyboard-response","410","1300574","0.0-6.0-5.57","2563455","co39298","norming","","","","","","",""
"1872.9850000236183","","","post_reveal_questions","survey-likert","411","1302450","0.0-6.0-6.57","2563455","co39298","norming","","","{""aha"":2}","[0]","../img/tt/118tt.jpg","",""
"null","<div style=""font-size:60px;""> </div>","null","fixation","html-keyboard-response","412","1302653","0.0-6.0-0.58","2563455","co39298","norming","","","","","","",""
"null","../img/tt/1048tt.jpg","null","mooney1","image-keyboard-response","413","1305657","0.0-6.0-1.58","2563455","co39298","norming","","","","","","",""
"3561.7349999956787","","","post_mooney1_questions","survey-likert","414","1309223","0.0-6.0-2.58","2563455","co39298","norming","","","{""curiosity"":1,""confidence"":2}","[0,1]","../img/tt/1048tt.jpg","",""
"4074.77999990806","","","recognition","survey-text","415","1313307","0.0-6.0-3.58","2563455","co39298","norming","","","{""guess"":""paarden""}","","../img/tt/1048tt.jpg","",""
"null","../img/gs/1048gs.jpg","null","reveal","image-keyboard-response","416","1315316","0.0-6.0-4.58","2563455","co39298","norming","","","","","","",""
"null","../img/tt/1048tt.jpg","null","mooney2","image-keyboard-response","417","1317319","0.0-6.0-5.58","2563455","co39298","norming","","","","","","",""
"2900.9649998042732","","","post_reveal_questions","survey-likert","418","1320223","0.0-6.0-6.58","2563455","co39298","norming","","","{""aha"":6}","[0]","../img/tt/1048tt.jpg","",""
"null","<div style=""font-size:60px;""> </div>","null","fixation","html-keyboard-response","419","1320426","0.0-6.0-0.59","2563455","co39298","norming","","","","","","",""
"null","../img/tt/091tt.jpg","null","mooney1","image-keyboard-response","420","1323444","0.0-6.0-1.59","2563455","co39298","norming","","","","","","",""
"2879.535000072792","","","post_mooney1_questions","survey-likert","421","1326328","0.0-6.0-2.59","2563455","co39298","norming","","","{""curiosity"":1,""confidence"":1}","[0,1]","../img/tt/091tt.jpg","",""
"2561.729999957606","","","recognition","survey-text","422","1328904","0.0-6.0-3.59","2563455","co39298","norming","","","{""guess"":""hond""}","","../img/tt/091tt.jpg","",""
"null","../img/gs/091gs.jpg","null","reveal","image-keyboard-response","423","1330907","0.0-6.0-4.59","2563455","co39298","norming","","","","","","",""
"null","../img/tt/091tt.jpg","null","mooney2","image-keyboard-response","424","1332910","0.0-6.0-5.59","2563455","co39298","norming","","","","","","",""
"2280.659999931231","","","post_reveal_questions","survey-likert","425","1335193","0.0-6.0-6.59","2563455","co39298","norming","","","{""aha"":5}","[0]","../img/tt/091tt.jpg","",""
"null","<div style=""font-size:60px;""> </div>","null","fixation","html-keyboard-response","426","1335395","0.0-6.0-0.60","2563455","co39298","norming","","","","","","",""
"null","../img/tt/1055tt.jpg","null","mooney1","image-keyboard-response","427","1338408","0.0-6.0-1.60","2563455","co39298","norming","","","","","","",""
"3332.9199999570847","","","post_mooney1_questions","survey-likert","428","1341745","0.0-6.0-2.60","2563455","co39298","norming","","","{""curiosity"":0,""confidence"":0}","[0,1]","../img/tt/1055tt.jpg","",""
"702.8899998404086","","","recognition","survey-text","429","1342466","0.0-6.0-3.60","2563455","co39298","norming","","","{""guess"":""""}","","../img/tt/1055tt.jpg","",""
"null","../img/gs/1055gs.jpg","null","reveal","image-keyboard-response","430","1344469","0.0-6.0-4.60","2563455","co39298","norming","","","","","","",""
"null","../img/tt/1055tt.jpg","null","mooney2","image-keyboard-response","431","1346473","0.0-6.0-5.60","2563455","co39298","norming","","","","","","",""
"2507.139999885112","","","post_reveal_questions","survey-likert","432","1348983","0.0-6.0-6.60","2563455","co39298","norming","","","{""aha"":0}","[0]","../img/tt/1055tt.jpg","",""
"null","<div style=""font-size:60px;""> </div>","null","fixation","html-keyboard-response","433","1349185","0.0-6.0-0.61","2563455","co39298","norming","","","","","","",""
"null","../img/tt/1181tt.jpg","null","mooney1","image-keyboard-response","434","1352200","0.0-6.0-1.61","2563455","co39298","norming","","","","","","",""
"4991.7849998455495","","","post_mooney1_questions","survey-likert","435","1357195","0.0-6.0-2.61","2563455","co39298","norming","","","{""curiosity"":0,""confidence"":1}","[0,1]","../img/tt/1181tt.jpg","",""
"5745.13000017032","","","recognition","survey-text","436","1362958","0.0-6.0-3.61","2563455","co39298","norming","","","{""guess"":""gesprek mensen""}","","../img/tt/1181tt.jpg","",""
"null","../img/gs/1181gs.jpg","null","reveal","image-keyboard-response","437","1364961","0.0-6.0-4.61","2563455","co39298","norming","","","","","","",""
"null","../img/tt/1181tt.jpg","null","mooney2","image-keyboard-response","438","1366975","0.0-6.0-5.61","2563455","co39298","norming","","","","","","",""
"2220.8899999968708","","","post_reveal_questions","survey-likert","439","1369198","0.0-6.0-6.61","2563455","co39298","norming","","","{""aha"":1}","[0]","../img/tt/1181tt.jpg","",""
"null","<div style=""font-size:60px;""> </div>","null","fixation","html-keyboard-response","440","1369408","0.0-6.0-0.62","2563455","co39298","norming","","","","","","",""
"null","../img/tt/055tt.jpg","null","mooney1","image-keyboard-response","441","1372411","0.0-6.0-1.62","2563455","co39298","norming","","","","","","",""
"3978.9050000254065","","","post_mooney1_questions","survey-likert","442","1376395","0.0-6.0-2.62","2563455","co39298","norming","","","{""curiosity"":1,""confidence"":1}","[0,1]","../img/tt/055tt.jpg","",""
"2769.8749999981374","","","recognition","survey-text","443","1379174","0.0-6.0-3.62","2563455","co39298","norming","","","{""guess"":""zadel""}","","../img/tt/055tt.jpg","",""
"null","../img/gs/055gs.jpg","null","reveal","image-keyboard-response","444","1381177","0.0-6.0-4.62","2563455","co39298","norming","","","","","","",""
"null","../img/tt/055tt.jpg","null","mooney2","image-keyboard-response","445","1383179","0.0-6.0-5.62","2563455","co39298","norming","","","","","","",""
"3033.650000113994","","","post_reveal_questions","survey-likert","446","1386216","0.0-6.0-6.62","2563455","co39298","norming","","","{""aha"":2}","[0]","../img/tt/055tt.jpg","",""
"null","<div style=""font-size:60px;""> </div>","null","fixation","html-keyboard-response","447","1386418","0.0-6.0-0.63","2563455","co39298","norming","","","","","","",""
"null","../img/tt/1186tt.jpg","null","mooney1","image-keyboard-response","448","1389433","0.0-6.0-1.63","2563455","co39298","norming","","","","","","",""
"5380.265000043437","","","post_mooney1_questions","survey-likert","449","1394817","0.0-6.0-2.63","2563455","co39298","norming","","","{""curiosity"":4,""confidence"":2}","[0,1]","../img/tt/1186tt.jpg","",""
"3067.395000020042","","","recognition","survey-text","450","1397892","0.0-6.0-3.63","2563455","co39298","norming","","","{""guess"":""danser""}","","../img/tt/1186tt.jpg","",""
"null","../img/gs/1186gs.jpg","null","reveal","image-keyboard-response","451","1399896","0.0-6.0-4.63","2563455","co39298","norming","","","","","","",""
"null","../img/tt/1186tt.jpg","null","mooney2","image-keyboard-response","452","1401898","0.0-6.0-5.63","2563455","co39298","norming","","","","","","",""
"1809.7299998626113","","","post_reveal_questions","survey-likert","453","1403712","0.0-6.0-6.63","2563455","co39298","norming","","","{""aha"":4}","[0]","../img/tt/1186tt.jpg","",""
"null","<div style=""font-size:60px;""> </div>","null","fixation","html-keyboard-response","454","1403943","0.0-6.0-0.64","2563455","co39298","norming","","","","","","",""
"null","../img/tt/1040tt.jpg","null","mooney1","image-keyboard-response","455","1406950","0.0-6.0-1.64","2563455","co39298","norming","","","","","","",""
"5200.130000011995","","","post_mooney1_questions","survey-likert","456","1412153","0.0-6.0-2.64","2563455","co39298","norming","","","{""curiosity"":6,""confidence"":0}","[0,1]","../img/tt/1040tt.jpg","",""
"898.879999993369","","","recognition","survey-text","457","1413070","0.0-6.0-3.64","2563455","co39298","norming","","","{""guess"":""""}","","../img/tt/1040tt.jpg","",""
"null","../img/gs/1040gs.jpg","null","reveal","image-keyboard-response","458","1415075","0.0-6.0-4.64","2563455","co39298","norming","","","","","","",""
"null","../img/tt/1040tt.jpg","null","mooney2","image-keyboard-response","459","1417078","0.0-6.0-5.64","2563455","co39298","norming","","","","","","",""
"5637.579999864101","","","post_reveal_questions","survey-likert","460","1422719","0.0-6.0-6.64","2563455","co39298","norming","","","{""aha"":3}","[0]","../img/tt/1040tt.jpg","",""
"null","<div style=""font-size:60px;""> </div>","null","fixation","html-keyboard-response","461","1422931","0.0-6.0-0.65","2563455","co39298","norming","","","","","","",""
"null","../img/tt/1154tt.jpg","null","mooney1","image-keyboard-response","462","1425936","0.0-6.0-1.65","2563455","co39298","norming","","","","","","",""
"7822.45000009425","","","post_mooney1_questions","survey-likert","463","1433764","0.0-6.0-2.65","2563455","co39298","norming","","","{""curiosity"":1,""confidence"":1}","[0,1]","../img/tt/1154tt.jpg","",""
"3066.859999904409","","","recognition","survey-text","464","1436841","0.0-6.0-3.65","2563455","co39298","norming","","","{""guess"":""wandelaar""}","","../img/tt/1154tt.jpg","",""
"null","../img/gs/1154gs.jpg","null","reveal","image-keyboard-response","465","1438846","0.0-6.0-4.65","2563455","co39298","norming","","","","","","",""
"null","../img/tt/1154tt.jpg","null","mooney2","image-keyboard-response","466","1440859","0.0-6.0-5.65","2563455","co39298","norming","","","","","","",""
"2384.5200000796467","","","post_reveal_questions","survey-likert","467","1443246","0.0-6.0-6.65","2563455","co39298","norming","","","{""aha"":5}","[0]","../img/tt/1154tt.jpg","",""
"null","<div style=""font-size:60px;""> </div>","null","fixation","html-keyboard-response","468","1443460","0.0-6.0-0.66","2563455","co39298","norming","","","","","","",""
"null","../img/tt/076tt.jpg","null","mooney1","image-keyboard-response","469","1446465","0.0-6.0-1.66","2563455","co39298","norming","","","","","","",""
"5411.619999911636","","","post_mooney1_questions","survey-likert","470","1451881","0.0-6.0-2.66","2563455","co39298","norming","","","{""curiosity"":0,""confidence"":2}","[0,1]","../img/tt/076tt.jpg","",""
"5636.075000045821","","","recognition","survey-text","471","1457526","0.0-6.0-3.66","2563455","co39298","norming","","","{""guess"":""rolschaatsen""}","","../img/tt/076tt.jpg","",""
"null","../img/gs/076gs.jpg","null","reveal","image-keyboard-response","472","1459544","0.0-6.0-4.66","2563455","co39298","norming","","","","","","",""
"null","../img/tt/076tt.jpg","null","mooney2","image-keyboard-response","473","1461560","0.0-6.0-5.66","2563455","co39298","norming","","","","","","",""
"3162.159999832511","","","post_reveal_questions","survey-likert","474","1464727","0.0-6.0-6.66","2563455","co39298","norming","","","{""aha"":1}","[0]","../img/tt/076tt.jpg","",""
"null","<div style=""font-size:60px;""> </div>","null","fixation","html-keyboard-response","475","1464940","0.0-6.0-0.67","2563455","co39298","norming","","","","","","",""
"null","../img/tt/438tt.jpg","null","mooney1","image-keyboard-response","476","1467944","0.0-6.0-1.67","2563455","co39298","norming","","","","","","",""
"3509.48500004597","","","post_mooney1_questions","survey-likert","477","1471457","0.0-6.0-2.67","2563455","co39298","norming","","","{""curiosity"":2,""confidence"":0}","[0,1]","../img/tt/438tt.jpg","",""
"1029.755000025034","","","recognition","survey-text","478","1472496","0.0-6.0-3.67","2563455","co39298","norming","","","{""guess"":""""}","","../img/tt/438tt.jpg","",""
"null","../img/gs/438gs.jpg","null","reveal","image-keyboard-response","479","1474506","0.0-6.0-4.67","2563455","co39298","norming","","","","","","",""
"null","../img/tt/438tt.jpg","null","mooney2","image-keyboard-response","480","1476508","0.0-6.0-5.67","2563455","co39298","norming","","","","","","",""
"3344.604999991134","","","post_reveal_questions","survey-likert","481","1479855","0.0-6.0-6.67","2563455","co39298","norming","","","{""aha"":1}","[0]","../img/tt/438tt.jpg","",""
"null","<div style=""font-size:60px;""> </div>","null","fixation","html-keyboard-response","482","1480071","0.0-6.0-0.68","2563455","co39298","norming","","","","","","",""
"null","../img/tt/126tt.jpg","null","mooney1","image-keyboard-response","483","1483088","0.0-6.0-1.68","2563455","co39298","norming","","","","","","",""
"5242.795000085607","","","post_mooney1_questions","survey-likert","484","1488335","0.0-6.0-2.68","2563455","co39298","norming","","","{""curiosity"":2,""confidence"":4}","[0,1]","../img/tt/126tt.jpg","",""
"3112.9649998620152","","","recognition","survey-text","485","1491466","0.0-6.0-3.68","2563455","co39298","norming","","","{""guess"":""koe""}","","../img/tt/126tt.jpg","",""
"null","../img/gs/126gs.jpg","null","reveal","image-keyboard-response","486","1493476","0.0-6.0-4.68","2563455","co39298","norming","","","","","","",""
"null","../img/tt/126tt.jpg","null","mooney2","image-keyboard-response","487","1495490","0.0-6.0-5.68","2563455","co39298","norming","","","","","","",""
"1216.7299999855459","","","post_reveal_questions","survey-likert","488","1496711","0.0-6.0-6.68","2563455","co39298","norming","","","{""aha"":2}","[0]","../img/tt/126tt.jpg","",""
"null","<div style=""font-size:60px;""> </div>","null","fixation","html-keyboard-response","489","1496916","0.0-6.0-0.69","2563455","co39298","norming","","","","","","",""
"null","../img/tt/552tt.jpg","null","mooney1","image-keyboard-response","490","1499921","0.0-6.0-1.69","2563455","co39298","norming","","","","","","",""
"5535.3600000962615","","","post_mooney1_questions","survey-likert","491","1505460","0.0-6.0-2.69","2563455","co39298","norming","","","{""curiosity"":5,""confidence"":1}","[0,1]","../img/tt/552tt.jpg","",""
"3790.6049999874085","","","recognition","survey-text","492","1509259","0.0-6.0-3.69","2563455","co39298","norming","","","{""guess"":""stinkdier""}","","../img/tt/552tt.jpg","",""
"null","../img/gs/552gs.jpg","null","reveal","image-keyboard-response","493","1511271","0.0-6.0-4.69","2563455","co39298","norming","","","","","","",""
"null","../img/tt/552tt.jpg","null","mooney2","image-keyboard-response","494","1513276","0.0-6.0-5.69","2563455","co39298","norming","","","","","","",""
"1948.2849999330938","","","post_reveal_questions","survey-likert","495","1515227","0.0-6.0-6.69","2563455","co39298","norming","","","{""aha"":3}","[0]","../img/tt/552tt.jpg","",""
"null","<div style=""font-size:60px;""> </div>","null","fixation","html-keyboard-response","496","1515447","0.0-6.0-0.70","2563455","co39298","norming","","","","","","",""
"null","../img/tt/1202tt.jpg","null","mooney1","image-keyboard-response","497","1518456","0.0-6.0-1.70","2563455","co39298","norming","","","","","","",""
"4434.305000118911","","","post_mooney1_questions","survey-likert","498","1522894","0.0-6.0-2.70","2563455","co39298","norming","","","{""curiosity"":6,""confidence"":1}","[0,1]","../img/tt/1202tt.jpg","",""
"5002.009999938309","","","recognition","survey-text","499","1527904","0.0-6.0-3.70","2563455","co39298","norming","","","{""guess"":""mensen""}","","../img/tt/1202tt.jpg","",""
"null","../img/gs/1202gs.jpg","null","reveal","image-keyboard-response","500","1529910","0.0-6.0-4.70","2563455","co39298","norming","","","","","","",""
"null","../img/tt/1202tt.jpg","null","mooney2","image-keyboard-response","501","1531918","0.0-6.0-5.70","2563455","co39298","norming","","","","","","",""
"3678.9550001267344","","","post_reveal_questions","survey-likert","502","1535602","0.0-6.0-6.70","2563455","co39298","norming","","","{""aha"":1}","[0]","../img/tt/1202tt.jpg","",""
"null","<div style=""font-size:60px;""> </div>","null","fixation","html-keyboard-response","503","1535812","0.0-6.0-0.71","2563455","co39298","norming","","","","","","",""
"null","../img/tt/108tt.jpg","null","mooney1","image-keyboard-response","504","1538826","0.0-6.0-1.71","2563455","co39298","norming","","","","","","",""
"4038.4850001428276","","","post_mooney1_questions","survey-likert","505","1542867","0.0-6.0-2.71","2563455","co39298","norming","","","{""curiosity"":1,""confidence"":1}","[0,1]","../img/tt/108tt.jpg","",""
"2791.3200000766665","","","recognition","survey-text","506","1545667","0.0-6.0-3.71","2563455","co39298","norming","","","{""guess"":""apen""}","","../img/tt/108tt.jpg","",""
"null","../img/gs/108gs.jpg","null","reveal","image-keyboard-response","507","1547674","0.0-6.0-4.71","2563455","co39298","norming","","","","","","",""
"null","../img/tt/108tt.jpg","null","mooney2","image-keyboard-response","508","1549678","0.0-6.0-5.71","2563455","co39298","norming","","","","","","",""
"2218.790000071749","","","post_reveal_questions","survey-likert","509","1551900","0.0-6.0-6.71","2563455","co39298","norming","","","{""aha"":3}","[0]","../img/tt/108tt.jpg","",""
"null","<div style=""font-size:60px;""> </div>","null","fixation","html-keyboard-response","510","1552115","0.0-6.0-0.72","2563455","co39298","norming","","","","","","",""
"null","../img/tt/1130tt.jpg","null","mooney1","image-keyboard-response","511","1555119","0.0-6.0-1.72","2563455","co39298","norming","","","","","","",""
"4546.60000000149","","","post_mooney1_questions","survey-likert","512","1559669","0.0-6.0-2.72","2563455","co39298","norming","","","{""curiosity"":2,""confidence"":1}","[0,1]","../img/tt/1130tt.jpg","",""
"3868.1499999947846","","","recognition","survey-text","513","1563547","0.0-6.0-3.72","2563455","co39298","norming","","","{""guess"":""sporter""}","","../img/tt/1130tt.jpg","",""
"null","../img/gs/1130gs.jpg","null","reveal","image-keyboard-response","514","1565562","0.0-6.0-4.72","2563455","co39298","norming","","","","","","",""
"null","../img/tt/1130tt.jpg","null","mooney2","image-keyboard-response","515","1567572","0.0-6.0-5.72","2563455","co39298","norming","","","","","","",""
"15093.935000011697","","","post_reveal_questions","survey-likert","516","1582669","0.0-6.0-6.72","2563455","co39298","norming","","","{""aha"":2}","[0]","../img/tt/1130tt.jpg","",""
"null","<div style=""font-size:60px;""> </div>","null","fixation","html-keyboard-response","517","1582871","0.0-6.0-0.73","2563455","co39298","norming","","","","","","",""
"null","../img/tt/1200tt.jpg","null","mooney1","image-keyboard-response","518","1585880","0.0-6.0-1.73","2563455","co39298","norming","","","","","","",""
"7031.304999953136","","","post_mooney1_questions","survey-likert","519","1592915","0.0-6.0-2.73","2563455","co39298","norming","","","{""curiosity"":0,""confidence"":0}","[0,1]","../img/tt/1200tt.jpg","",""
"775.2300000283867","","","recognition","survey-text","520","1593699","0.0-6.0-3.73","2563455","co39298","norming","","","{""guess"":""""}","","../img/tt/1200tt.jpg","",""
"null","../img/gs/1200gs.jpg","null","reveal","image-keyboard-response","521","1595702","0.0-6.0-4.73","2563455","co39298","norming","","","","","","",""
"null","../img/tt/1200tt.jpg","null","mooney2","image-keyboard-response","522","1597716","0.0-6.0-5.73","2563455","co39298","norming","","","","","","",""
"23108.200000133365","","","post_reveal_questions","survey-likert","523","1620828","0.0-6.0-6.73","2563455","co39298","norming","","","{""aha"":1}","[0]","../img/tt/1200tt.jpg","",""
"null","<div style=""font-size:60px;""> </div>","null","fixation","html-keyboard-response","524","1621031","0.0-6.0-0.74","2563455","co39298","norming","","","","","","",""
"null","../img/tt/442tt.jpg","null","mooney1","image-keyboard-response","525","1624035","0.0-6.0-1.74","2563455","co39298","norming","","","","","","",""
"4271.464999997988","","","post_mooney1_questions","survey-likert","526","1628310","0.0-6.0-2.74","2563455","co39298","norming","","","{""curiosity"":1,""confidence"":1}","[0,1]","../img/tt/442tt.jpg","",""
"3440.669999923557","","","recognition","survey-text","527","1631768","0.0-6.0-3.74","2563455","co39298","norming","","","{""guess"":""vrouw""}","","../img/tt/442tt.jpg","",""
"null","../img/gs/442gs.jpg","null","reveal","image-keyboard-response","528","1633783","0.0-6.0-4.74","2563455","co39298","norming","","","","","","",""
"null","../img/tt/442tt.jpg","null","mooney2","image-keyboard-response","529","1635785","0.0-6.0-5.74","2563455","co39298","norming","","","","","","",""
"2522.690000012517","","","post_reveal_questions","survey-likert","530","1638310","0.0-6.0-6.74","2563455","co39298","norming","","","{""aha"":0}","[0]","../img/tt/442tt.jpg","",""
"null","<div style=""font-size:60px;""> </div>","null","fixation","html-keyboard-response","531","1638522","0.0-6.0-0.75","2563455","co39298","norming","","","","","","",""
"null","../img/tt/507tt.jpg","null","mooney1","image-keyboard-response","532","1641529","0.0-6.0-1.75","2563455","co39298","norming","","","","","","",""
"2829.7000001184642","","","post_mooney1_questions","survey-likert","533","1644363","0.0-6.0-2.75","2563455","co39298","norming","","","{""curiosity"":1,""confidence"":1}","[0,1]","../img/tt/507tt.jpg","",""
"3393.584999954328","","","recognition","survey-text","534","1647767","0.0-6.0-3.75","2563455","co39298","norming","","","{""guess"":""vrouw""}","","../img/tt/507tt.jpg","",""
"null","../img/gs/507gs.jpg","null","reveal","image-keyboard-response","535","1649772","0.0-6.0-4.75","2563455","co39298","norming","","","","","","",""
"null","../img/tt/507tt.jpg","null","mooney2","image-keyboard-response","536","1651776","0.0-6.0-5.75","2563455","co39298","norming","","","","","","",""
"2272.2950000315905","","","post_reveal_questions","survey-likert","537","1654052","0.0-6.0-6.75","2563455","co39298","norming","","","{""aha"":2}","[0]","../img/tt/507tt.jpg","",""
"null","<div style=""font-size:60px;""> </div>","null","fixation","html-keyboard-response","538","1654255","0.0-6.0-0.76","2563455","co39298","norming","","","","","","",""
"null","../img/tt/1173tt.jpg","null","mooney1","image-keyboard-response","539","1657272","0.0-6.0-1.76","2563455","co39298","norming","","","","","","",""
"4615.104999858886","","","post_mooney1_questions","survey-likert","540","1661891","0.0-6.0-2.76","2563455","co39298","norming","","","{""curiosity"":1,""confidence"":3}","[0,1]","../img/tt/1173tt.jpg","",""
"4415.019999956712","","","recognition","survey-text","541","1666315","0.0-6.0-3.76","2563455","co39298","norming","","","{""guess"":""voetballers""}","","../img/tt/1173tt.jpg","",""
"null","../img/gs/1173gs.jpg","null","reveal","image-keyboard-response","542","1668343","0.0-6.0-4.76","2563455","co39298","norming","","","","","","",""
"null","../img/tt/1173tt.jpg","null","mooney2","image-keyboard-response","543","1670344","0.0-6.0-5.76","2563455","co39298","norming","","","","","","",""
"1879.1199999395758","","","post_reveal_questions","survey-likert","544","1672227","0.0-6.0-6.76","2563455","co39298","norming","","","{""aha"":2}","[0]","../img/tt/1173tt.jpg","",""
"null","<div style=""font-size:60px;""> </div>","null","fixation","html-keyboard-response","545","1672432","0.0-6.0-0.77","2563455","co39298","norming","","","","","","",""
"null","../img/tt/1086tt.jpg","null","mooney1","image-keyboard-response","546","1675437","0.0-6.0-1.77","2563455","co39298","norming","","","","","","",""
"3751.8499998841435","","","post_mooney1_questions","survey-likert","547","1679192","0.0-6.0-2.77","2563455","co39298","norming","","","{""curiosity"":2,""confidence"":0}","[0,1]","../img/tt/1086tt.jpg","",""
"686.5749999415129","","","recognition","survey-text","548","1679887","0.0-6.0-3.77","2563455","co39298","norming","","","{""guess"":""""}","","../img/tt/1086tt.jpg","",""
"null","../img/gs/1086gs.jpg","null","reveal","image-keyboard-response","549","1681891","0.0-6.0-4.77","2563455","co39298","norming","","","","","","",""
"null","../img/tt/1086tt.jpg","null","mooney2","image-keyboard-response","550","1683903","0.0-6.0-5.77","2563455","co39298","norming","","","","","","",""
"2166.5300000458956","","","post_reveal_questions","survey-likert","551","1686073","0.0-6.0-6.77","2563455","co39298","norming","","","{""aha"":2}","[0]","../img/tt/1086tt.jpg","",""
"null","<div style=""font-size:60px;""> </div>","null","fixation","html-keyboard-response","552","1686280","0.0-6.0-0.78","2563455","co39298","norming","","","","","","",""
