"rt","stimulus","key_press","test_part","trial_type","trial_index","time_elapsed","internal_node_id","totalTime","subject","experiment_name","button_pressed","success","responses","question_order","currentStim","old","correct"
"7338.000000000002","Welcome to the experiment. This is an online experiment so please don't close the tab/window until we say goodbye.  Press any key to begin.","32","instructions","html-keyboard-response","0","7354","0.0-0.0","3246010","co39223","norming","","","","","","",""
"28947","<div style='word-wrap: break-word; width: 900px'><h3>Please consider this information carefully before deciding whether to participate in this research</h3><ul style='text-align: left; font-size: .8em;'><li><b>Purpose of the research</b>: To examine how people process images.</li><li><b>What you will do in this research</b>:  Stimuli (images) will be presented on the computer and you will be asked different questions about them.</li><li><b>Time required</b>: Participation will take between 45 and 60 minutes to complete.</li><li><b>Risks</b>:  There are no anticipated risks associated with participating in this study. The effects of participating should be comparable to those you would experience from viewing a computer monitor for 30 minutes and using a mouse or keyboard.</li><li><b>Benefits</b>:  This study provides no benefits to you individually except for the credit. The study provides important information about the nature of perception and learning.</li><li><b>Confidentiality</b>:  Your participation in this study will remain confidential. No personally identifiable information will be associated with your data. Your de-identified data may be shared with other researchers and used in future projects.</li><li><b>Participation and withdrawal</b>:  Your participation in this study is completely voluntary and you may refuse to participate or you may choose to withdraw at any time without penalty.</li><li><b>How to contact the researchers</b>: If you have questions or concerns about your participation or payment, or want to request a summary of research findings, please contact Sander Van de Cruys (KU Leuven), at sander.vandecruys@kuleuven.be.</li></ul><p>The nature and purpose of this research have been sufficiently explained and I agree to participate in this study.  I understand that I am free to withdraw at any time without incurring any penalty.</p><p>Please consent by clicking the button below to continue. Otherwise, please exit the study at this time.</p></div>","","instructions","html-button-response","1","36302","0.0-1.0","3246010","co39223","norming","0","","","","","",""
"","","","instructions","fullscreen","2","52249","0.0-2.0","3246010","co39223","norming","","true","","","","",""
"25982","","","sona","survey-html-form","3","78233","0.0-3.0","3246010","co39223","norming","","","[{""name"":""sonaid"",""value"":""39223""},{""name"":""debrief"",""value"":""no""},{""name"":""datajoin"",""value"":""yes""}]","","","",""
"71229","<div style='word-wrap: break-word; width: 900px'><h3>Instructions</h3><p>This experiment will have 3 parts. In the first part you will see a series of distorted images like the one below on the left. As you can see in the righthand image, the distorted images are derived from actual photographs. In what follows, you will <strong>briefly</strong> be presented with <strong>only</strong> the distorted image.</p> <div style='float: left; margin-right: 20px;'><img src='../img/018tt.jpg' height='250' width='250'></img></div><div style='float: right; margin-left: 20px;'><img src='../img/018gs.jpg' height='250' width='250'></img></div><p>Subsequently you will be asked a few questions about the image: One question on how <strong>curious</strong> you are about the solution and one on how <strong>confident</strong> you are that you know the solution.</p>Next, we ask you to make a guess on what is in the image. Note that it is OK to name just the <strong>basic level category</strong>. For example when you see a parrot in the image, 'parrot' will obviously be a correct answer but also correct is 'bird'. However, 'animal' will <strong>not</strong> be counted as a correct response. For the example above, 'rose' would be correct or 'flower', but not 'plant'. When soccer players are depicted, 'soccer', 'football', 'soccer players' will be correct, but not 'humans', 'outdoors', or 'sports'. You do not need to describe the image in full, just name the main object in it <strong>in one or two words</strong>. All images depict objects from one of the following broad level categories: animals, inanimate objects, plants, sports, vehicles, and food. Recognizing means knowing <strong>more</strong> than these broad labels for a given image. But we always encourage you to <strong>make a guess</strong> if you can. Note that you are allowed to use <strong>Dutch and English</strong> in your answers, whatever comes easiest for you.</p><p>Press any key to continue.</p></div>","32","instructions","html-keyboard-response","4","149463","0.0-4.0","3246010","co39223","norming","","","","","","",""
"23948","<div style='word-wrap: break-word; width: 900px'><h3>Instructions</h3> <p>Next, the solution image will be revealed to you and you'll be asked to indicate how strong your <strong>aha-experience</strong> was after seeing the solution. This describes the positive feeling of the 'click' you sometimes experience, when the pieces of the 'puzzle' fall together and you suddenly have 'insight' in the image.</p><img src='aha.jpg' height='188' width='250'></img><p>Note that there are no right or wrong answers. We are interested in what <strong>you</strong> see in the image and how <strong>you</strong> feel about it.</p><p>Press any key to start the experiment.</p></div>","32","instructions","html-keyboard-response","5","173412","0.0-5.0","3246010","co39223","norming","","","","","","",""
"null","<div style=""font-size:60px;""> </div>","null","fixation","html-keyboard-response","6","173614","0.0-6.0-0.0","3246010","co39223","norming","","","","","","",""
"null","../img/tt/468tt.jpg","null","mooney1","image-keyboard-response","7","176617","0.0-6.0-1.0","3246010","co39223","norming","","","","","","",""
"12511","","","post_mooney1_questions","survey-likert","8","189131","0.0-6.0-2.0","3246010","co39223","norming","","","{""curiosity"":6,""confidence"":2}","[0,1]","../img/tt/468tt.jpg","",""
"16131","","","recognition","survey-text","9","205270","0.0-6.0-3.0","3246010","co39223","norming","","","{""guess"":""goat""}","","../img/tt/468tt.jpg","",""
"null","../img/gs/468gs.jpg","null","reveal","image-keyboard-response","10","207271","0.0-6.0-4.0","3246010","co39223","norming","","","","","","",""
"null","../img/tt/468tt.jpg","null","mooney2","image-keyboard-response","11","209273","0.0-6.0-5.0","3246010","co39223","norming","","","","","","",""
"6924","","","post_reveal_questions","survey-likert","12","216198","0.0-6.0-6.0","3246010","co39223","norming","","","{""aha"":2}","[0]","../img/tt/468tt.jpg","",""
"null","<div style=""font-size:60px;""> </div>","null","fixation","html-keyboard-response","13","216402","0.0-6.0-0.1","3246010","co39223","norming","","","","","","",""
"null","../img/tt/163tt.jpg","null","mooney1","image-keyboard-response","14","219405","0.0-6.0-1.1","3246010","co39223","norming","","","","","","",""
"8105","","","post_mooney1_questions","survey-likert","15","227512","0.0-6.0-2.1","3246010","co39223","norming","","","{""curiosity"":5,""confidence"":0}","[0,1]","../img/tt/163tt.jpg","",""
"4312","","","recognition","survey-text","16","231830","0.0-6.0-3.1","3246010","co39223","norming","","","{""guess"":""""}","","../img/tt/163tt.jpg","",""
"null","../img/gs/163gs.jpg","null","reveal","image-keyboard-response","17","233832","0.0-6.0-4.1","3246010","co39223","norming","","","","","","",""
"null","../img/tt/163tt.jpg","null","mooney2","image-keyboard-response","18","235834","0.0-6.0-5.1","3246010","co39223","norming","","","","","","",""
"4472.000000000029","","","post_reveal_questions","survey-likert","19","240308","0.0-6.0-6.1","3246010","co39223","norming","","","{""aha"":4}","[0]","../img/tt/163tt.jpg","",""
"null","<div style=""font-size:60px;""> </div>","null","fixation","html-keyboard-response","20","240511","0.0-6.0-0.2","3246010","co39223","norming","","","","","","",""
"null","../img/tt/1089tt.jpg","null","mooney1","image-keyboard-response","21","243513","0.0-6.0-1.2","3246010","co39223","norming","","","","","","",""
"4685","","","post_mooney1_questions","survey-likert","22","248200","0.0-6.0-2.2","3246010","co39223","norming","","","{""curiosity"":4,""confidence"":4}","[0,1]","../img/tt/1089tt.jpg","",""
"9931.99999999997","","","recognition","survey-text","23","258139","0.0-6.0-3.2","3246010","co39223","norming","","","{""guess"":""boerderij""}","","../img/tt/1089tt.jpg","",""
"null","../img/gs/1089gs.jpg","null","reveal","image-keyboard-response","24","260140","0.0-6.0-4.2","3246010","co39223","norming","","","","","","",""
"null","../img/tt/1089tt.jpg","null","mooney2","image-keyboard-response","25","262143","0.0-6.0-5.2","3246010","co39223","norming","","","","","","",""
"3565","","","post_reveal_questions","survey-likert","26","265708","0.0-6.0-6.2","3246010","co39223","norming","","","{""aha"":2}","[0]","../img/tt/1089tt.jpg","",""
"null","<div style=""font-size:60px;""> </div>","null","fixation","html-keyboard-response","27","265911","0.0-6.0-0.3","3246010","co39223","norming","","","","","","",""
"null","../img/tt/1130tt.jpg","null","mooney1","image-keyboard-response","28","268913","0.0-6.0-1.3","3246010","co39223","norming","","","","","","",""
"5813","","","post_mooney1_questions","survey-likert","29","274728","0.0-6.0-2.3","3246010","co39223","norming","","","{""curiosity"":4,""confidence"":4}","[0,1]","../img/tt/1130tt.jpg","",""
"5279","","","recognition","survey-text","30","280013","0.0-6.0-3.3","3246010","co39223","norming","","","{""guess"":""fietsende man""}","","../img/tt/1130tt.jpg","",""
"null","../img/gs/1130gs.jpg","null","reveal","image-keyboard-response","31","282015","0.0-6.0-4.3","3246010","co39223","norming","","","","","","",""
"null","../img/tt/1130tt.jpg","null","mooney2","image-keyboard-response","32","284018","0.0-6.0-5.3","3246010","co39223","norming","","","","","","",""
"5926","","","post_reveal_questions","survey-likert","33","289944","0.0-6.0-6.3","3246010","co39223","norming","","","{""aha"":3}","[0]","../img/tt/1130tt.jpg","",""
"null","<div style=""font-size:60px;""> </div>","null","fixation","html-keyboard-response","34","290147","0.0-6.0-0.4","3246010","co39223","norming","","","","","","",""
"null","../img/tt/497tt.jpg","null","mooney1","image-keyboard-response","35","293149","0.0-6.0-1.4","3246010","co39223","norming","","","","","","",""
"9330","","","post_mooney1_questions","survey-likert","36","302482","0.0-6.0-2.4","3246010","co39223","norming","","","{""curiosity"":5,""confidence"":1}","[0,1]","../img/tt/497tt.jpg","",""
"27878","","","recognition","survey-text","37","330366","0.0-6.0-3.4","3246010","co39223","norming","","","{""guess"":""pottenbakken""}","","../img/tt/497tt.jpg","",""
"null","../img/gs/497gs.jpg","null","reveal","image-keyboard-response","38","332368","0.0-6.0-4.4","3246010","co39223","norming","","","","","","",""
"null","../img/tt/497tt.jpg","null","mooney2","image-keyboard-response","39","334370","0.0-6.0-5.4","3246010","co39223","norming","","","","","","",""
"2307","","","post_reveal_questions","survey-likert","40","336679","0.0-6.0-6.4","3246010","co39223","norming","","","{""aha"":4}","[0]","../img/tt/497tt.jpg","",""
"null","<div style=""font-size:60px;""> </div>","null","fixation","html-keyboard-response","41","336882","0.0-6.0-0.5","3246010","co39223","norming","","","","","","",""
"null","../img/tt/1254tt.jpg","null","mooney1","image-keyboard-response","42","339884","0.0-6.0-1.5","3246010","co39223","norming","","","","","","",""
"6776.000000000058","","","post_mooney1_questions","survey-likert","43","346662","0.0-6.0-2.5","3246010","co39223","norming","","","{""curiosity"":3,""confidence"":4}","[0,1]","../img/tt/1254tt.jpg","",""
"3122","","","recognition","survey-text","44","349790","0.0-6.0-3.5","3246010","co39223","norming","","","{""guess"":""konijn""}","","../img/tt/1254tt.jpg","",""
"null","../img/gs/1254gs.jpg","null","reveal","image-keyboard-response","45","351792","0.0-6.0-4.5","3246010","co39223","norming","","","","","","",""
"null","../img/tt/1254tt.jpg","null","mooney2","image-keyboard-response","46","353794","0.0-6.0-5.5","3246010","co39223","norming","","","","","","",""
"3441","","","post_reveal_questions","survey-likert","47","357237","0.0-6.0-6.5","3246010","co39223","norming","","","{""aha"":5}","[0]","../img/tt/1254tt.jpg","",""
"null","<div style=""font-size:60px;""> </div>","null","fixation","html-keyboard-response","48","357440","0.0-6.0-0.6","3246010","co39223","norming","","","","","","",""
"null","../img/tt/194tt.jpg","null","mooney1","image-keyboard-response","49","360443","0.0-6.0-1.6","3246010","co39223","norming","","","","","","",""
"10017","","","post_mooney1_questions","survey-likert","50","370462","0.0-6.0-2.6","3246010","co39223","norming","","","{""curiosity"":1,""confidence"":6}","[0,1]","../img/tt/194tt.jpg","",""
"23138","","","recognition","survey-text","51","393606","0.0-6.0-3.6","3246010","co39223","norming","","","{""guess"":""vrouw harp""}","","../img/tt/194tt.jpg","",""
"null","../img/gs/194gs.jpg","null","reveal","image-keyboard-response","52","395609","0.0-6.0-4.6","3246010","co39223","norming","","","","","","",""
"null","../img/tt/194tt.jpg","null","mooney2","image-keyboard-response","53","397610","0.0-6.0-5.6","3246010","co39223","norming","","","","","","",""
"4141","","","post_reveal_questions","survey-likert","54","401753","0.0-6.0-6.6","3246010","co39223","norming","","","{""aha"":4}","[0]","../img/tt/194tt.jpg","",""
"null","<div style=""font-size:60px;""> </div>","null","fixation","html-keyboard-response","55","401955","0.0-6.0-0.7","3246010","co39223","norming","","","","","","",""
"null","../img/tt/013tt.jpg","null","mooney1","image-keyboard-response","56","404957","0.0-6.0-1.7","3246010","co39223","norming","","","","","","",""
"4004.999999999942","","","post_mooney1_questions","survey-likert","57","408965","0.0-6.0-2.7","3246010","co39223","norming","","","{""curiosity"":5,""confidence"":1}","[0,1]","../img/tt/013tt.jpg","",""
"2937.999999999942","","","recognition","survey-text","58","411909","0.0-6.0-3.7","3246010","co39223","norming","","","{""guess"":""piano""}","","../img/tt/013tt.jpg","",""
"null","../img/gs/013gs.jpg","null","reveal","image-keyboard-response","59","413910","0.0-6.0-4.7","3246010","co39223","norming","","","","","","",""
"null","../img/tt/013tt.jpg","null","mooney2","image-keyboard-response","60","415913","0.0-6.0-5.7","3246010","co39223","norming","","","","","","",""
"1859","","","post_reveal_questions","survey-likert","61","417774","0.0-6.0-6.7","3246010","co39223","norming","","","{""aha"":5}","[0]","../img/tt/013tt.jpg","",""
"null","<div style=""font-size:60px;""> </div>","null","fixation","html-keyboard-response","62","417976","0.0-6.0-0.8","3246010","co39223","norming","","","","","","",""
"null","../img/tt/1127tt.jpg","null","mooney1","image-keyboard-response","63","420979","0.0-6.0-1.8","3246010","co39223","norming","","","","","","",""
"7105","","","post_mooney1_questions","survey-likert","64","428085","0.0-6.0-2.8","3246010","co39223","norming","","","{""curiosity"":3,""confidence"":5}","[0,1]","../img/tt/1127tt.jpg","",""
"2299.999999999942","","","recognition","survey-text","65","430392","0.0-6.0-3.8","3246010","co39223","norming","","","{""guess"":""piano""}","","../img/tt/1127tt.jpg","",""
"null","../img/gs/1127gs.jpg","null","reveal","image-keyboard-response","66","432393","0.0-6.0-4.8","3246010","co39223","norming","","","","","","",""
"null","../img/tt/1127tt.jpg","null","mooney2","image-keyboard-response","67","434395","0.0-6.0-5.8","3246010","co39223","norming","","","","","","",""
"5612","","","post_reveal_questions","survey-likert","68","440010","0.0-6.0-6.8","3246010","co39223","norming","","","{""aha"":2}","[0]","../img/tt/1127tt.jpg","",""
"null","<div style=""font-size:60px;""> </div>","null","fixation","html-keyboard-response","69","440212","0.0-6.0-0.9","3246010","co39223","norming","","","","","","",""
"null","../img/tt/082tt.jpg","null","mooney1","image-keyboard-response","70","443214","0.0-6.0-1.9","3246010","co39223","norming","","","","","","",""
"4901.999999999942","","","post_mooney1_questions","survey-likert","71","448118","0.0-6.0-2.9","3246010","co39223","norming","","","{""curiosity"":4,""confidence"":4}","[0,1]","../img/tt/082tt.jpg","",""
"2351","","","recognition","survey-text","72","450475","0.0-6.0-3.9","3246010","co39223","norming","","","{""guess"":""stoel""}","","../img/tt/082tt.jpg","",""
"null","../img/gs/082gs.jpg","null","reveal","image-keyboard-response","73","452478","0.0-6.0-4.9","3246010","co39223","norming","","","","","","",""
"null","../img/tt/082tt.jpg","null","mooney2","image-keyboard-response","74","454480","0.0-6.0-5.9","3246010","co39223","norming","","","","","","",""
"4180.000000000058","","","post_reveal_questions","survey-likert","75","458661","0.0-6.0-6.9","3246010","co39223","norming","","","{""aha"":2}","[0]","../img/tt/082tt.jpg","",""
"null","<div style=""font-size:60px;""> </div>","null","fixation","html-keyboard-response","76","458864","0.0-6.0-0.10","3246010","co39223","norming","","","","","","",""
"null","../img/tt/1006tt.jpg","null","mooney1","image-keyboard-response","77","461866","0.0-6.0-1.10","3246010","co39223","norming","","","","","","",""
"5725","","","post_mooney1_questions","survey-likert","78","467593","0.0-6.0-2.10","3246010","co39223","norming","","","{""curiosity"":4,""confidence"":1}","[0,1]","../img/tt/1006tt.jpg","",""
"1796","","","recognition","survey-text","79","469396","0.0-6.0-3.10","3246010","co39223","norming","","","{""guess"":""gras""}","","../img/tt/1006tt.jpg","",""
"null","../img/gs/1006gs.jpg","null","reveal","image-keyboard-response","80","471398","0.0-6.0-4.10","3246010","co39223","norming","","","","","","",""
"null","../img/tt/1006tt.jpg","null","mooney2","image-keyboard-response","81","473400","0.0-6.0-5.10","3246010","co39223","norming","","","","","","",""
"3421.000000000058","","","post_reveal_questions","survey-likert","82","476823","0.0-6.0-6.10","3246010","co39223","norming","","","{""aha"":4}","[0]","../img/tt/1006tt.jpg","",""
"null","<div style=""font-size:60px;""> </div>","null","fixation","html-keyboard-response","83","477026","0.0-6.0-0.11","3246010","co39223","norming","","","","","","",""
"null","../img/tt/1181tt.jpg","null","mooney1","image-keyboard-response","84","480028","0.0-6.0-1.11","3246010","co39223","norming","","","","","","",""
"11253","","","post_mooney1_questions","survey-likert","85","491283","0.0-6.0-2.11","3246010","co39223","norming","","","{""curiosity"":4,""confidence"":4}","[0,1]","../img/tt/1181tt.jpg","",""
"2578","","","recognition","survey-text","86","493868","0.0-6.0-3.11","3246010","co39223","norming","","","{""guess"":""mensen""}","","../img/tt/1181tt.jpg","",""
"null","../img/gs/1181gs.jpg","null","reveal","image-keyboard-response","87","495870","0.0-6.0-4.11","3246010","co39223","norming","","","","","","",""
"null","../img/tt/1181tt.jpg","null","mooney2","image-keyboard-response","88","497872","0.0-6.0-5.11","3246010","co39223","norming","","","","","","",""
"4100","","","post_reveal_questions","survey-likert","89","501974","0.0-6.0-6.11","3246010","co39223","norming","","","{""aha"":2}","[0]","../img/tt/1181tt.jpg","",""
"null","<div style=""font-size:60px;""> </div>","null","fixation","html-keyboard-response","90","502176","0.0-6.0-0.12","3246010","co39223","norming","","","","","","",""
"null","../img/tt/189tt.jpg","null","mooney1","image-keyboard-response","91","505179","0.0-6.0-1.12","3246010","co39223","norming","","","","","","",""
"9534.999999999942","","","post_mooney1_questions","survey-likert","92","514716","0.0-6.0-2.12","3246010","co39223","norming","","","{""curiosity"":3,""confidence"":0}","[0,1]","../img/tt/189tt.jpg","",""
"775","","","recognition","survey-text","93","515497","0.0-6.0-3.12","3246010","co39223","norming","","","{""guess"":""""}","","../img/tt/189tt.jpg","",""
"null","../img/gs/189gs.jpg","null","reveal","image-keyboard-response","94","517499","0.0-6.0-4.12","3246010","co39223","norming","","","","","","",""
"null","../img/tt/189tt.jpg","null","mooney2","image-keyboard-response","95","519501","0.0-6.0-5.12","3246010","co39223","norming","","","","","","",""
"2697","","","post_reveal_questions","survey-likert","96","522200","0.0-6.0-6.12","3246010","co39223","norming","","","{""aha"":4}","[0]","../img/tt/189tt.jpg","",""
"null","<div style=""font-size:60px;""> </div>","null","fixation","html-keyboard-response","97","522403","0.0-6.0-0.13","3246010","co39223","norming","","","","","","",""
"null","../img/tt/1242tt.jpg","null","mooney1","image-keyboard-response","98","525405","0.0-6.0-1.13","3246010","co39223","norming","","","","","","",""
"5471","","","post_mooney1_questions","survey-likert","99","530878","0.0-6.0-2.13","3246010","co39223","norming","","","{""curiosity"":5,""confidence"":2}","[0,1]","../img/tt/1242tt.jpg","",""
"3371","","","recognition","survey-text","100","534255","0.0-6.0-3.13","3246010","co39223","norming","","","{""guess"":""""}","","../img/tt/1242tt.jpg","",""
"null","../img/gs/1242gs.jpg","null","reveal","image-keyboard-response","101","536257","0.0-6.0-4.13","3246010","co39223","norming","","","","","","",""
"null","../img/tt/1242tt.jpg","null","mooney2","image-keyboard-response","102","538260","0.0-6.0-5.13","3246010","co39223","norming","","","","","","",""
"4726","","","post_reveal_questions","survey-likert","103","542987","0.0-6.0-6.13","3246010","co39223","norming","","","{""aha"":4}","[0]","../img/tt/1242tt.jpg","",""
"null","<div style=""font-size:60px;""> </div>","null","fixation","html-keyboard-response","104","543190","0.0-6.0-0.14","3246010","co39223","norming","","","","","","",""
"null","../img/tt/358tt.jpg","null","mooney1","image-keyboard-response","105","546192","0.0-6.0-1.14","3246010","co39223","norming","","","","","","",""
"7826","","","post_mooney1_questions","survey-likert","106","554020","0.0-6.0-2.14","3246010","co39223","norming","","","{""curiosity"":3,""confidence"":4}","[0,1]","../img/tt/358tt.jpg","",""
"4012","","","recognition","survey-text","107","558039","0.0-6.0-3.14","3246010","co39223","norming","","","{""guess"":""zwarte man""}","","../img/tt/358tt.jpg","",""
"null","../img/gs/358gs.jpg","null","reveal","image-keyboard-response","108","560041","0.0-6.0-4.14","3246010","co39223","norming","","","","","","",""
"null","../img/tt/358tt.jpg","null","mooney2","image-keyboard-response","109","562043","0.0-6.0-5.14","3246010","co39223","norming","","","","","","",""
"9311.999999999884","","","post_reveal_questions","survey-likert","110","571357","0.0-6.0-6.14","3246010","co39223","norming","","","{""aha"":1}","[0]","../img/tt/358tt.jpg","",""
"null","<div style=""font-size:60px;""> </div>","null","fixation","html-keyboard-response","111","571560","0.0-6.0-0.15","3246010","co39223","norming","","","","","","",""
"null","../img/tt/1116tt.jpg","null","mooney1","image-keyboard-response","112","574562","0.0-6.0-1.15","3246010","co39223","norming","","","","","","",""
"10295","","","post_mooney1_questions","survey-likert","113","584858","0.0-6.0-2.15","3246010","co39223","norming","","","{""curiosity"":4,""confidence"":4}","[0,1]","../img/tt/1116tt.jpg","",""
"2016","","","recognition","survey-text","114","586881","0.0-6.0-3.15","3246010","co39223","norming","","","{""guess"":""raketten""}","","../img/tt/1116tt.jpg","",""
"null","../img/gs/1116gs.jpg","null","reveal","image-keyboard-response","115","588883","0.0-6.0-4.15","3246010","co39223","norming","","","","","","",""
"null","../img/tt/1116tt.jpg","null","mooney2","image-keyboard-response","116","590885","0.0-6.0-5.15","3246010","co39223","norming","","","","","","",""
"3011","","","post_reveal_questions","survey-likert","117","593897","0.0-6.0-6.15","3246010","co39223","norming","","","{""aha"":2}","[0]","../img/tt/1116tt.jpg","",""
"null","<div style=""font-size:60px;""> </div>","null","fixation","html-keyboard-response","118","594100","0.0-6.0-0.16","3246010","co39223","norming","","","","","","",""
"null","../img/tt/319tt.jpg","null","mooney1","image-keyboard-response","119","597102","0.0-6.0-1.16","3246010","co39223","norming","","","","","","",""
"6493.000000000116","","","post_mooney1_questions","survey-likert","120","603597","0.0-6.0-2.16","3246010","co39223","norming","","","{""curiosity"":2,""confidence"":5}","[0,1]","../img/tt/319tt.jpg","",""
"2029","","","recognition","survey-text","121","605630","0.0-6.0-3.16","3246010","co39223","norming","","","{""guess"":""kameel""}","","../img/tt/319tt.jpg","",""
"null","../img/gs/319gs.jpg","null","reveal","image-keyboard-response","122","607633","0.0-6.0-4.16","3246010","co39223","norming","","","","","","",""
"null","../img/tt/319tt.jpg","null","mooney2","image-keyboard-response","123","609635","0.0-6.0-5.16","3246010","co39223","norming","","","","","","",""
"4480","","","post_reveal_questions","survey-likert","124","614116","0.0-6.0-6.16","3246010","co39223","norming","","","{""aha"":1}","[0]","../img/tt/319tt.jpg","",""
"null","<div style=""font-size:60px;""> </div>","null","fixation","html-keyboard-response","125","614319","0.0-6.0-0.17","3246010","co39223","norming","","","","","","",""
"null","../img/tt/1199tt.jpg","null","mooney1","image-keyboard-response","126","617322","0.0-6.0-1.17","3246010","co39223","norming","","","","","","",""
"8221.999999999884","","","post_mooney1_questions","survey-likert","127","625546","0.0-6.0-2.17","3246010","co39223","norming","","","{""curiosity"":4,""confidence"":1}","[0,1]","../img/tt/1199tt.jpg","",""
"3595","","","recognition","survey-text","128","629147","0.0-6.0-3.17","3246010","co39223","norming","","","{""guess"":""venetië""}","","../img/tt/1199tt.jpg","",""
"null","../img/gs/1199gs.jpg","null","reveal","image-keyboard-response","129","631149","0.0-6.0-4.17","3246010","co39223","norming","","","","","","",""
"null","../img/tt/1199tt.jpg","null","mooney2","image-keyboard-response","130","633152","0.0-6.0-5.17","3246010","co39223","norming","","","","","","",""
"2866","","","post_reveal_questions","survey-likert","131","636019","0.0-6.0-6.17","3246010","co39223","norming","","","{""aha"":5}","[0]","../img/tt/1199tt.jpg","",""
"null","<div style=""font-size:60px;""> </div>","null","fixation","html-keyboard-response","132","636222","0.0-6.0-0.18","3246010","co39223","norming","","","","","","",""
"null","../img/tt/1200tt.jpg","null","mooney1","image-keyboard-response","133","639224","0.0-6.0-1.18","3246010","co39223","norming","","","","","","",""
"4435","","","post_mooney1_questions","survey-likert","134","643660","0.0-6.0-2.18","3246010","co39223","norming","","","{""curiosity"":4,""confidence"":1}","[0,1]","../img/tt/1200tt.jpg","",""
"1426.0000000001164","","","recognition","survey-text","135","645092","0.0-6.0-3.18","3246010","co39223","norming","","","{""guess"":""kano""}","","../img/tt/1200tt.jpg","",""
"null","../img/gs/1200gs.jpg","null","reveal","image-keyboard-response","136","647094","0.0-6.0-4.18","3246010","co39223","norming","","","","","","",""
"null","../img/tt/1200tt.jpg","null","mooney2","image-keyboard-response","137","649095","0.0-6.0-5.18","3246010","co39223","norming","","","","","","",""
"1823.9999999998836","","","post_reveal_questions","survey-likert","138","650922","0.0-6.0-6.18","3246010","co39223","norming","","","{""aha"":5}","[0]","../img/tt/1200tt.jpg","",""
"null","<div style=""font-size:60px;""> </div>","null","fixation","html-keyboard-response","139","651124","0.0-6.0-0.19","3246010","co39223","norming","","","","","","",""
"null","../img/tt/515tt.jpg","null","mooney1","image-keyboard-response","140","654126","0.0-6.0-1.19","3246010","co39223","norming","","","","","","",""
"6240","","","post_mooney1_questions","survey-likert","141","660367","0.0-6.0-2.19","3246010","co39223","norming","","","{""curiosity"":5,""confidence"":0}","[0,1]","../img/tt/515tt.jpg","",""
"813","","","recognition","survey-text","142","661186","0.0-6.0-3.19","3246010","co39223","norming","","","{""guess"":""""}","","../img/tt/515tt.jpg","",""
"null","../img/gs/515gs.jpg","null","reveal","image-keyboard-response","143","663188","0.0-6.0-4.19","3246010","co39223","norming","","","","","","",""
"null","../img/tt/515tt.jpg","null","mooney2","image-keyboard-response","144","665191","0.0-6.0-5.19","3246010","co39223","norming","","","","","","",""
"2324","","","post_reveal_questions","survey-likert","145","667516","0.0-6.0-6.19","3246010","co39223","norming","","","{""aha"":1}","[0]","../img/tt/515tt.jpg","",""
"null","<div style=""font-size:60px;""> </div>","null","fixation","html-keyboard-response","146","667719","0.0-6.0-0.20","3246010","co39223","norming","","","","","","",""
"null","../img/tt/1053tt.jpg","null","mooney1","image-keyboard-response","147","670722","0.0-6.0-1.20","3246010","co39223","norming","","","","","","",""
"7242","","","post_mooney1_questions","survey-likert","148","677965","0.0-6.0-2.20","3246010","co39223","norming","","","{""curiosity"":5,""confidence"":5}","[0,1]","../img/tt/1053tt.jpg","",""
"1067","","","recognition","survey-text","149","679039","0.0-6.0-3.20","3246010","co39223","norming","","","{""guess"":""koe""}","","../img/tt/1053tt.jpg","",""
"null","../img/gs/1053gs.jpg","null","reveal","image-keyboard-response","150","681041","0.0-6.0-4.20","3246010","co39223","norming","","","","","","",""
"null","../img/tt/1053tt.jpg","null","mooney2","image-keyboard-response","151","683043","0.0-6.0-5.20","3246010","co39223","norming","","","","","","",""
"2711.9999999998836","","","post_reveal_questions","survey-likert","152","685756","0.0-6.0-6.20","3246010","co39223","norming","","","{""aha"":4}","[0]","../img/tt/1053tt.jpg","",""
"null","<div style=""font-size:60px;""> </div>","null","fixation","html-keyboard-response","153","685959","0.0-6.0-0.21","3246010","co39223","norming","","","","","","",""
"null","../img/tt/1086tt.jpg","null","mooney1","image-keyboard-response","154","688961","0.0-6.0-1.21","3246010","co39223","norming","","","","","","",""
"6084","","","post_mooney1_questions","survey-likert","155","695047","0.0-6.0-2.21","3246010","co39223","norming","","","{""curiosity"":5,""confidence"":2}","[0,1]","../img/tt/1086tt.jpg","",""
"4736","","","recognition","survey-text","156","699789","0.0-6.0-3.21","3246010","co39223","norming","","","{""guess"":""maskers""}","","../img/tt/1086tt.jpg","",""
"null","../img/gs/1086gs.jpg","null","reveal","image-keyboard-response","157","701791","0.0-6.0-4.21","3246010","co39223","norming","","","","","","",""
"null","../img/tt/1086tt.jpg","null","mooney2","image-keyboard-response","158","703793","0.0-6.0-5.21","3246010","co39223","norming","","","","","","",""
"2702","","","post_reveal_questions","survey-likert","159","706498","0.0-6.0-6.21","3246010","co39223","norming","","","{""aha"":1}","[0]","../img/tt/1086tt.jpg","",""
"null","<div style=""font-size:60px;""> </div>","null","fixation","html-keyboard-response","160","706700","0.0-6.0-0.22","3246010","co39223","norming","","","","","","",""
"null","../img/tt/055tt.jpg","null","mooney1","image-keyboard-response","161","709703","0.0-6.0-1.22","3246010","co39223","norming","","","","","","",""
"7563","","","post_mooney1_questions","survey-likert","162","717267","0.0-6.0-2.22","3246010","co39223","norming","","","{""curiosity"":3,""confidence"":0}","[0,1]","../img/tt/055tt.jpg","",""
"911","","","recognition","survey-text","163","718184","0.0-6.0-3.22","3246010","co39223","norming","","","{""guess"":""""}","","../img/tt/055tt.jpg","",""
"null","../img/gs/055gs.jpg","null","reveal","image-keyboard-response","164","720186","0.0-6.0-4.22","3246010","co39223","norming","","","","","","",""
"null","../img/tt/055tt.jpg","null","mooney2","image-keyboard-response","165","722189","0.0-6.0-5.22","3246010","co39223","norming","","","","","","",""
"3520","","","post_reveal_questions","survey-likert","166","725710","0.0-6.0-6.22","3246010","co39223","norming","","","{""aha"":4}","[0]","../img/tt/055tt.jpg","",""
"null","<div style=""font-size:60px;""> </div>","null","fixation","html-keyboard-response","167","725913","0.0-6.0-0.23","3246010","co39223","norming","","","","","","",""
"null","../img/tt/1276tt.jpg","null","mooney1","image-keyboard-response","168","728915","0.0-6.0-1.23","3246010","co39223","norming","","","","","","",""
"4484","","","post_mooney1_questions","survey-likert","169","733401","0.0-6.0-2.23","3246010","co39223","norming","","","{""curiosity"":3,""confidence"":3}","[0,1]","../img/tt/1276tt.jpg","",""
"3284","","","recognition","survey-text","170","736691","0.0-6.0-3.23","3246010","co39223","norming","","","{""guess"":""schaap""}","","../img/tt/1276tt.jpg","",""
"null","../img/gs/1276gs.jpg","null","reveal","image-keyboard-response","171","738693","0.0-6.0-4.23","3246010","co39223","norming","","","","","","",""
"null","../img/tt/1276tt.jpg","null","mooney2","image-keyboard-response","172","740696","0.0-6.0-5.23","3246010","co39223","norming","","","","","","",""
"2528","","","post_reveal_questions","survey-likert","173","743225","0.0-6.0-6.23","3246010","co39223","norming","","","{""aha"":0}","[0]","../img/tt/1276tt.jpg","",""
"null","<div style=""font-size:60px;""> </div>","null","fixation","html-keyboard-response","174","743428","0.0-6.0-0.24","3246010","co39223","norming","","","","","","",""
"null","../img/tt/477tt.jpg","null","mooney1","image-keyboard-response","175","746431","0.0-6.0-1.24","3246010","co39223","norming","","","","","","",""
"9495","","","post_mooney1_questions","survey-likert","176","755927","0.0-6.0-2.24","3246010","co39223","norming","","","{""curiosity"":5,""confidence"":1}","[0,1]","../img/tt/477tt.jpg","",""
"1973","","","recognition","survey-text","177","757906","0.0-6.0-3.24","3246010","co39223","norming","","","{""guess"":""babh""}","","../img/tt/477tt.jpg","",""
"null","../img/gs/477gs.jpg","null","reveal","image-keyboard-response","178","759908","0.0-6.0-4.24","3246010","co39223","norming","","","","","","",""
"null","../img/tt/477tt.jpg","null","mooney2","image-keyboard-response","179","761909","0.0-6.0-5.24","3246010","co39223","norming","","","","","","",""
"2292.0000000001164","","","post_reveal_questions","survey-likert","180","764203","0.0-6.0-6.24","3246010","co39223","norming","","","{""aha"":0}","[0]","../img/tt/477tt.jpg","",""
"null","<div style=""font-size:60px;""> </div>","null","fixation","html-keyboard-response","181","764406","0.0-6.0-0.25","3246010","co39223","norming","","","","","","",""
"null","../img/tt/1044tt.jpg","null","mooney1","image-keyboard-response","182","767408","0.0-6.0-1.25","3246010","co39223","norming","","","","","","",""
"17627","","","post_mooney1_questions","survey-likert","183","785037","0.0-6.0-2.25","3246010","co39223","norming","","","{""curiosity"":4,""confidence"":5}","[0,1]","../img/tt/1044tt.jpg","",""
"3535.0000000001164","","","recognition","survey-text","184","788578","0.0-6.0-3.25","3246010","co39223","norming","","","{""guess"":""cowboy""}","","../img/tt/1044tt.jpg","",""
"null","../img/gs/1044gs.jpg","null","reveal","image-keyboard-response","185","790580","0.0-6.0-4.25","3246010","co39223","norming","","","","","","",""
"null","../img/tt/1044tt.jpg","null","mooney2","image-keyboard-response","186","792581","0.0-6.0-5.25","3246010","co39223","norming","","","","","","",""
"2893","","","post_reveal_questions","survey-likert","187","795475","0.0-6.0-6.25","3246010","co39223","norming","","","{""aha"":1}","[0]","../img/tt/1044tt.jpg","",""
"null","<div style=""font-size:60px;""> </div>","null","fixation","html-keyboard-response","188","795676","0.0-6.0-0.26","3246010","co39223","norming","","","","","","",""
"null","../img/tt/1279tt.jpg","null","mooney1","image-keyboard-response","189","798679","0.0-6.0-1.26","3246010","co39223","norming","","","","","","",""
"5048","","","post_mooney1_questions","survey-likert","190","803729","0.0-6.0-2.26","3246010","co39223","norming","","","{""curiosity"":2,""confidence"":2}","[0,1]","../img/tt/1279tt.jpg","",""
"1276","","","recognition","survey-text","191","805012","0.0-6.0-3.26","3246010","co39223","norming","","","{""guess"":""hek""}","","../img/tt/1279tt.jpg","",""
"null","../img/gs/1279gs.jpg","null","reveal","image-keyboard-response","192","807015","0.0-6.0-4.26","3246010","co39223","norming","","","","","","",""
"null","../img/tt/1279tt.jpg","null","mooney2","image-keyboard-response","193","809017","0.0-6.0-5.26","3246010","co39223","norming","","","","","","",""
"2682","","","post_reveal_questions","survey-likert","194","811700","0.0-6.0-6.26","3246010","co39223","norming","","","{""aha"":0}","[0]","../img/tt/1279tt.jpg","",""
"null","<div style=""font-size:60px;""> </div>","null","fixation","html-keyboard-response","195","811903","0.0-6.0-0.27","3246010","co39223","norming","","","","","","",""
"null","../img/tt/534tt.jpg","null","mooney1","image-keyboard-response","196","814906","0.0-6.0-1.27","3246010","co39223","norming","","","","","","",""
"4872","","","post_mooney1_questions","survey-likert","197","819779","0.0-6.0-2.27","3246010","co39223","norming","","","{""curiosity"":4,""confidence"":5}","[0,1]","../img/tt/534tt.jpg","",""
"1902","","","recognition","survey-text","198","821687","0.0-6.0-3.27","3246010","co39223","norming","","","{""guess"":""cactus""}","","../img/tt/534tt.jpg","",""
"null","../img/gs/534gs.jpg","null","reveal","image-keyboard-response","199","823689","0.0-6.0-4.27","3246010","co39223","norming","","","","","","",""
"null","../img/tt/534tt.jpg","null","mooney2","image-keyboard-response","200","825691","0.0-6.0-5.27","3246010","co39223","norming","","","","","","",""
"2719.9999999998836","","","post_reveal_questions","survey-likert","201","828412","0.0-6.0-6.27","3246010","co39223","norming","","","{""aha"":4}","[0]","../img/tt/534tt.jpg","",""
"null","<div style=""font-size:60px;""> </div>","null","fixation","html-keyboard-response","202","828615","0.0-6.0-0.28","3246010","co39223","norming","","","","","","",""
"null","../img/tt/1290tt.jpg","null","mooney1","image-keyboard-response","203","831618","0.0-6.0-1.28","3246010","co39223","norming","","","","","","",""
"7184.000000000116","","","post_mooney1_questions","survey-likert","204","838804","0.0-6.0-2.28","3246010","co39223","norming","","","{""curiosity"":5,""confidence"":5}","[0,1]","../img/tt/1290tt.jpg","",""
"4662","","","recognition","survey-text","205","843473","0.0-6.0-3.28","3246010","co39223","norming","","","{""guess"":""eitjeslift""}","","../img/tt/1290tt.jpg","",""
"null","../img/gs/1290gs.jpg","null","reveal","image-keyboard-response","206","845476","0.0-6.0-4.28","3246010","co39223","norming","","","","","","",""
"null","../img/tt/1290tt.jpg","null","mooney2","image-keyboard-response","207","847478","0.0-6.0-5.28","3246010","co39223","norming","","","","","","",""
"2149","","","post_reveal_questions","survey-likert","208","849629","0.0-6.0-6.28","3246010","co39223","norming","","","{""aha"":5}","[0]","../img/tt/1290tt.jpg","",""
"null","<div style=""font-size:60px;""> </div>","null","fixation","html-keyboard-response","209","849832","0.0-6.0-0.29","3246010","co39223","norming","","","","","","",""
"null","../img/tt/1226tt.jpg","null","mooney1","image-keyboard-response","210","852834","0.0-6.0-1.29","3246010","co39223","norming","","","","","","",""
"4887","","","post_mooney1_questions","survey-likert","211","857723","0.0-6.0-2.29","3246010","co39223","norming","","","{""curiosity"":5,""confidence"":5}","[0,1]","../img/tt/1226tt.jpg","",""
"1425","","","recognition","survey-text","212","859155","0.0-6.0-3.29","3246010","co39223","norming","","","{""guess"":""kip""}","","../img/tt/1226tt.jpg","",""
"null","../img/gs/1226gs.jpg","null","reveal","image-keyboard-response","213","861157","0.0-6.0-4.29","3246010","co39223","norming","","","","","","",""
"null","../img/tt/1226tt.jpg","null","mooney2","image-keyboard-response","214","863159","0.0-6.0-5.29","3246010","co39223","norming","","","","","","",""
"4610","","","post_reveal_questions","survey-likert","215","867771","0.0-6.0-6.29","3246010","co39223","norming","","","{""aha"":3}","[0]","../img/tt/1226tt.jpg","",""
"null","<div style=""font-size:60px;""> </div>","null","fixation","html-keyboard-response","216","867974","0.0-6.0-0.30","3246010","co39223","norming","","","","","","",""
"null","../img/tt/598tt.jpg","null","mooney1","image-keyboard-response","217","870976","0.0-6.0-1.30","3246010","co39223","norming","","","","","","",""
"6507","","","post_mooney1_questions","survey-likert","218","877485","0.0-6.0-2.30","3246010","co39223","norming","","","{""curiosity"":3,""confidence"":2}","[0,1]","../img/tt/598tt.jpg","",""
"2429","","","recognition","survey-text","219","879921","0.0-6.0-3.30","3246010","co39223","norming","","","{""guess"":""wereldbol""}","","../img/tt/598tt.jpg","",""
"null","../img/gs/598gs.jpg","null","reveal","image-keyboard-response","220","881923","0.0-6.0-4.30","3246010","co39223","norming","","","","","","",""
"null","../img/tt/598tt.jpg","null","mooney2","image-keyboard-response","221","883925","0.0-6.0-5.30","3246010","co39223","norming","","","","","","",""
"3626","","","post_reveal_questions","survey-likert","222","887553","0.0-6.0-6.30","3246010","co39223","norming","","","{""aha"":0}","[0]","../img/tt/598tt.jpg","",""
"null","<div style=""font-size:60px;""> </div>","null","fixation","html-keyboard-response","223","887755","0.0-6.0-0.31","3246010","co39223","norming","","","","","","",""
"null","../img/tt/1055tt.jpg","null","mooney1","image-keyboard-response","224","890757","0.0-6.0-1.31","3246010","co39223","norming","","","","","","",""
"4705","","","post_mooney1_questions","survey-likert","225","895464","0.0-6.0-2.31","3246010","co39223","norming","","","{""curiosity"":3,""confidence"":4}","[0,1]","../img/tt/1055tt.jpg","",""
"1602.0000000001164","","","recognition","survey-text","226","897073","0.0-6.0-3.31","3246010","co39223","norming","","","{""guess"":""meer""}","","../img/tt/1055tt.jpg","",""
"null","../img/gs/1055gs.jpg","null","reveal","image-keyboard-response","227","899075","0.0-6.0-4.31","3246010","co39223","norming","","","","","","",""
"null","../img/tt/1055tt.jpg","null","mooney2","image-keyboard-response","228","901076","0.0-6.0-5.31","3246010","co39223","norming","","","","","","",""
"4776.999999999884","","","post_reveal_questions","survey-likert","229","905854","0.0-6.0-6.31","3246010","co39223","norming","","","{""aha"":5}","[0]","../img/tt/1055tt.jpg","",""
"null","<div style=""font-size:60px;""> </div>","null","fixation","html-keyboard-response","230","906057","0.0-6.0-0.32","3246010","co39223","norming","","","","","","",""
"null","../img/tt/118tt.jpg","null","mooney1","image-keyboard-response","231","909060","0.0-6.0-1.32","3246010","co39223","norming","","","","","","",""
"7718","","","post_mooney1_questions","survey-likert","232","916780","0.0-6.0-2.32","3246010","co39223","norming","","","{""curiosity"":5,""confidence"":2}","[0,1]","../img/tt/118tt.jpg","",""
"4006","","","recognition","survey-text","233","920792","0.0-6.0-3.32","3246010","co39223","norming","","","{""guess"":""spatel""}","","../img/tt/118tt.jpg","",""
"null","../img/gs/118gs.jpg","null","reveal","image-keyboard-response","234","922795","0.0-6.0-4.32","3246010","co39223","norming","","","","","","",""
"null","../img/tt/118tt.jpg","null","mooney2","image-keyboard-response","235","924797","0.0-6.0-5.32","3246010","co39223","norming","","","","","","",""
"2563.9999999998836","","","post_reveal_questions","survey-likert","236","927363","0.0-6.0-6.32","3246010","co39223","norming","","","{""aha"":5}","[0]","../img/tt/118tt.jpg","",""
"null","<div style=""font-size:60px;""> </div>","null","fixation","html-keyboard-response","237","927566","0.0-6.0-0.33","3246010","co39223","norming","","","","","","",""
"null","../img/tt/296tt.jpg","null","mooney1","image-keyboard-response","238","930568","0.0-6.0-1.33","3246010","co39223","norming","","","","","","",""
"6594.000000000116","","","post_mooney1_questions","survey-likert","239","937164","0.0-6.0-2.33","3246010","co39223","norming","","","{""curiosity"":3,""confidence"":4}","[0,1]","../img/tt/296tt.jpg","",""
"1880","","","recognition","survey-text","240","939050","0.0-6.0-3.33","3246010","co39223","norming","","","{""guess"":""ligbed""}","","../img/tt/296tt.jpg","",""
"null","../img/gs/296gs.jpg","null","reveal","image-keyboard-response","241","941052","0.0-6.0-4.33","3246010","co39223","norming","","","","","","",""
"null","../img/tt/296tt.jpg","null","mooney2","image-keyboard-response","242","943055","0.0-6.0-5.33","3246010","co39223","norming","","","","","","",""
"2114","","","post_reveal_questions","survey-likert","243","945170","0.0-6.0-6.33","3246010","co39223","norming","","","{""aha"":1}","[0]","../img/tt/296tt.jpg","",""
"null","<div style=""font-size:60px;""> </div>","null","fixation","html-keyboard-response","244","945373","0.0-6.0-0.34","3246010","co39223","norming","","","","","","",""
"null","../img/tt/1125tt.jpg","null","mooney1","image-keyboard-response","245","948375","0.0-6.0-1.34","3246010","co39223","norming","","","","","","",""
"5813","","","post_mooney1_questions","survey-likert","246","954190","0.0-6.0-2.34","3246010","co39223","norming","","","{""curiosity"":3,""confidence"":4}","[0,1]","../img/tt/1125tt.jpg","",""
"5715","","","recognition","survey-text","247","959912","0.0-6.0-3.34","3246010","co39223","norming","","","{""guess"":""Manneke Pis""}","","../img/tt/1125tt.jpg","",""
"null","../img/gs/1125gs.jpg","null","reveal","image-keyboard-response","248","961914","0.0-6.0-4.34","3246010","co39223","norming","","","","","","",""
"null","../img/tt/1125tt.jpg","null","mooney2","image-keyboard-response","249","963916","0.0-6.0-5.34","3246010","co39223","norming","","","","","","",""
"2696","","","post_reveal_questions","survey-likert","250","966614","0.0-6.0-6.34","3246010","co39223","norming","","","{""aha"":4}","[0]","../img/tt/1125tt.jpg","",""
"null","<div style=""font-size:60px;""> </div>","null","fixation","html-keyboard-response","251","966817","0.0-6.0-0.35","3246010","co39223","norming","","","","","","",""
"null","../img/tt/378tt.jpg","null","mooney1","image-keyboard-response","252","969819","0.0-6.0-1.35","3246010","co39223","norming","","","","","","",""
"5530","","","post_mooney1_questions","survey-likert","253","975351","0.0-6.0-2.35","3246010","co39223","norming","","","{""curiosity"":2,""confidence"":0}","[0,1]","../img/tt/378tt.jpg","",""
"702","","","recognition","survey-text","254","976059","0.0-6.0-3.35","3246010","co39223","norming","","","{""guess"":""""}","","../img/tt/378tt.jpg","",""
"null","../img/gs/378gs.jpg","null","reveal","image-keyboard-response","255","978061","0.0-6.0-4.35","3246010","co39223","norming","","","","","","",""
"null","../img/tt/378tt.jpg","null","mooney2","image-keyboard-response","256","980063","0.0-6.0-5.35","3246010","co39223","norming","","","","","","",""
"2084","","","post_reveal_questions","survey-likert","257","982148","0.0-6.0-6.35","3246010","co39223","norming","","","{""aha"":1}","[0]","../img/tt/378tt.jpg","",""
"null","<div style=""font-size:60px;""> </div>","null","fixation","html-keyboard-response","258","982351","0.0-6.0-0.36","3246010","co39223","norming","","","","","","",""
"null","../img/tt/442tt.jpg","null","mooney1","image-keyboard-response","259","985354","0.0-6.0-1.36","3246010","co39223","norming","","","","","","",""
"5293","","","post_mooney1_questions","survey-likert","260","990649","0.0-6.0-2.36","3246010","co39223","norming","","","{""curiosity"":2,""confidence"":1}","[0,1]","../img/tt/442tt.jpg","",""
"1081.0000000001164","","","recognition","survey-text","261","991735","0.0-6.0-3.36","3246010","co39223","norming","","","{""guess"":""vis""}","","../img/tt/442tt.jpg","",""
"null","../img/gs/442gs.jpg","null","reveal","image-keyboard-response","262","993738","0.0-6.0-4.36","3246010","co39223","norming","","","","","","",""
"null","../img/tt/442tt.jpg","null","mooney2","image-keyboard-response","263","995740","0.0-6.0-5.36","3246010","co39223","norming","","","","","","",""
"3247","","","post_reveal_questions","survey-likert","264","998989","0.0-6.0-6.36","3246010","co39223","norming","","","{""aha"":0}","[0]","../img/tt/442tt.jpg","",""
"null","<div style=""font-size:60px;""> </div>","null","fixation","html-keyboard-response","265","999191","0.0-6.0-0.37","3246010","co39223","norming","","","","","","",""
"null","../img/tt/1186tt.jpg","null","mooney1","image-keyboard-response","266","1002194","0.0-6.0-1.37","3246010","co39223","norming","","","","","","",""
"8240","","","post_mooney1_questions","survey-likert","267","1010436","0.0-6.0-2.37","3246010","co39223","norming","","","{""curiosity"":5,""confidence"":2}","[0,1]","../img/tt/1186tt.jpg","",""
"4140.999999999884","","","recognition","survey-text","268","1014584","0.0-6.0-3.37","3246010","co39223","norming","","","{""guess"":""wandelend iemand""}","","../img/tt/1186tt.jpg","",""
"null","../img/gs/1186gs.jpg","null","reveal","image-keyboard-response","269","1016585","0.0-6.0-4.37","3246010","co39223","norming","","","","","","",""
"null","../img/tt/1186tt.jpg","null","mooney2","image-keyboard-response","270","1018587","0.0-6.0-5.37","3246010","co39223","norming","","","","","","",""
"2730","","","post_reveal_questions","survey-likert","271","1021319","0.0-6.0-6.37","3246010","co39223","norming","","","{""aha"":5}","[0]","../img/tt/1186tt.jpg","",""
"null","<div style=""font-size:60px;""> </div>","null","fixation","html-keyboard-response","272","1021521","0.0-6.0-0.38","3246010","co39223","norming","","","","","","",""
"null","../img/tt/1072tt.jpg","null","mooney1","image-keyboard-response","273","1024524","0.0-6.0-1.38","3246010","co39223","norming","","","","","","",""
"5430","","","post_mooney1_questions","survey-likert","274","1029955","0.0-6.0-2.38","3246010","co39223","norming","","","{""curiosity"":5,""confidence"":5}","[0,1]","../img/tt/1072tt.jpg","",""
"2255.9999999998836","","","recognition","survey-text","275","1032217","0.0-6.0-3.38","3246010","co39223","norming","","","{""guess"":""straat""}","","../img/tt/1072tt.jpg","",""
"null","../img/gs/1072gs.jpg","null","reveal","image-keyboard-response","276","1034219","0.0-6.0-4.38","3246010","co39223","norming","","","","","","",""
"null","../img/tt/1072tt.jpg","null","mooney2","image-keyboard-response","277","1036221","0.0-6.0-5.38","3246010","co39223","norming","","","","","","",""
"2194","","","post_reveal_questions","survey-likert","278","1038416","0.0-6.0-6.38","3246010","co39223","norming","","","{""aha"":3}","[0]","../img/tt/1072tt.jpg","",""
"null","<div style=""font-size:60px;""> </div>","null","fixation","html-keyboard-response","279","1038619","0.0-6.0-0.39","3246010","co39223","norming","","","","","","",""
"null","../img/tt/1118tt.jpg","null","mooney1","image-keyboard-response","280","1041622","0.0-6.0-1.39","3246010","co39223","norming","","","","","","",""
"10579.999999999884","","","post_mooney1_questions","survey-likert","281","1052204","0.0-6.0-2.39","3246010","co39223","norming","","","{""curiosity"":3,""confidence"":2}","[0,1]","../img/tt/1118tt.jpg","",""
"1904","","","recognition","survey-text","282","1054115","0.0-6.0-3.39","3246010","co39223","norming","","","{""guess"":""haven""}","","../img/tt/1118tt.jpg","",""
"null","../img/gs/1118gs.jpg","null","reveal","image-keyboard-response","283","1056117","0.0-6.0-4.39","3246010","co39223","norming","","","","","","",""
"null","../img/tt/1118tt.jpg","null","mooney2","image-keyboard-response","284","1058119","0.0-6.0-5.39","3246010","co39223","norming","","","","","","",""
"2794","","","post_reveal_questions","survey-likert","285","1060914","0.0-6.0-6.39","3246010","co39223","norming","","","{""aha"":1}","[0]","../img/tt/1118tt.jpg","",""
"null","<div style=""font-size:60px;""> </div>","null","fixation","html-keyboard-response","286","1061117","0.0-6.0-0.40","3246010","co39223","norming","","","","","","",""
"null","../img/tt/1247tt.jpg","null","mooney1","image-keyboard-response","287","1064120","0.0-6.0-1.40","3246010","co39223","norming","","","","","","",""
"4638","","","post_mooney1_questions","survey-likert","288","1068760","0.0-6.0-2.40","3246010","co39223","norming","","","{""curiosity"":1,""confidence"":0}","[0,1]","../img/tt/1247tt.jpg","",""
"821","","","recognition","survey-text","289","1069587","0.0-6.0-3.40","3246010","co39223","norming","","","{""guess"":""""}","","../img/tt/1247tt.jpg","",""
"null","../img/gs/1247gs.jpg","null","reveal","image-keyboard-response","290","1071589","0.0-6.0-4.40","3246010","co39223","norming","","","","","","",""
"null","../img/tt/1247tt.jpg","null","mooney2","image-keyboard-response","291","1073591","0.0-6.0-5.40","3246010","co39223","norming","","","","","","",""
"1821","","","post_reveal_questions","survey-likert","292","1075414","0.0-6.0-6.40","3246010","co39223","norming","","","{""aha"":5}","[0]","../img/tt/1247tt.jpg","",""
"null","<div style=""font-size:60px;""> </div>","null","fixation","html-keyboard-response","293","1075616","0.0-6.0-0.41","3246010","co39223","norming","","","","","","",""
"null","../img/tt/063tt.jpg","null","mooney1","image-keyboard-response","294","1078619","0.0-6.0-1.41","3246010","co39223","norming","","","","","","",""
"8051.000000000233","","","post_mooney1_questions","survey-likert","295","1086671","0.0-6.0-2.41","3246010","co39223","norming","","","{""curiosity"":4,""confidence"":6}","[0,1]","../img/tt/063tt.jpg","",""
"2241","","","recognition","survey-text","296","1088918","0.0-6.0-3.41","3246010","co39223","norming","","","{""guess"":""accordeon""}","","../img/tt/063tt.jpg","",""
"null","../img/gs/063gs.jpg","null","reveal","image-keyboard-response","297","1090920","0.0-6.0-4.41","3246010","co39223","norming","","","","","","",""
"null","../img/tt/063tt.jpg","null","mooney2","image-keyboard-response","298","1092922","0.0-6.0-5.41","3246010","co39223","norming","","","","","","",""
"2876","","","post_reveal_questions","survey-likert","299","1095799","0.0-6.0-6.41","3246010","co39223","norming","","","{""aha"":0}","[0]","../img/tt/063tt.jpg","",""
"null","<div style=""font-size:60px;""> </div>","null","fixation","html-keyboard-response","300","1096002","0.0-6.0-0.42","3246010","co39223","norming","","","","","","",""
"null","../img/tt/1234tt.jpg","null","mooney1","image-keyboard-response","301","1099004","0.0-6.0-1.42","3246010","co39223","norming","","","","","","",""
"6228","","","post_mooney1_questions","survey-likert","302","1105234","0.0-6.0-2.42","3246010","co39223","norming","","","{""curiosity"":5,""confidence"":5}","[0,1]","../img/tt/1234tt.jpg","",""
"11711","","","recognition","survey-text","303","1116952","0.0-6.0-3.42","3246010","co39223","norming","","","{""guess"":""roeiende man in bootje""}","","../img/tt/1234tt.jpg","",""
"null","../img/gs/1234gs.jpg","null","reveal","image-keyboard-response","304","1118954","0.0-6.0-4.42","3246010","co39223","norming","","","","","","",""
"null","../img/tt/1234tt.jpg","null","mooney2","image-keyboard-response","305","1120956","0.0-6.0-5.42","3246010","co39223","norming","","","","","","",""
"3047","","","post_reveal_questions","survey-likert","306","1124005","0.0-6.0-6.42","3246010","co39223","norming","","","{""aha"":5}","[0]","../img/tt/1234tt.jpg","",""
"null","<div style=""font-size:60px;""> </div>","null","fixation","html-keyboard-response","307","1124208","0.0-6.0-0.43","3246010","co39223","norming","","","","","","",""
"null","../img/tt/273tt.jpg","null","mooney1","image-keyboard-response","308","1127210","0.0-6.0-1.43","3246010","co39223","norming","","","","","","",""
"4375","","","post_mooney1_questions","survey-likert","309","1131586","0.0-6.0-2.43","3246010","co39223","norming","","","{""curiosity"":3,""confidence"":6}","[0,1]","../img/tt/273tt.jpg","",""
"3126.000000000233","","","recognition","survey-text","310","1134718","0.0-6.0-3.43","3246010","co39223","norming","","","{""guess"":""blokjes""}","","../img/tt/273tt.jpg","",""
"null","../img/gs/273gs.jpg","null","reveal","image-keyboard-response","311","1136721","0.0-6.0-4.43","3246010","co39223","norming","","","","","","",""
"null","../img/tt/273tt.jpg","null","mooney2","image-keyboard-response","312","1138723","0.0-6.0-5.43","3246010","co39223","norming","","","","","","",""
"1909","","","post_reveal_questions","survey-likert","313","1140634","0.0-6.0-6.43","3246010","co39223","norming","","","{""aha"":1}","[0]","../img/tt/273tt.jpg","",""
"null","<div style=""font-size:60px;""> </div>","null","fixation","html-keyboard-response","314","1140837","0.0-6.0-0.44","3246010","co39223","norming","","","","","","",""
"null","../img/tt/056tt.jpg","null","mooney1","image-keyboard-response","315","1143839","0.0-6.0-1.44","3246010","co39223","norming","","","","","","",""
"4830.000000000233","","","post_mooney1_questions","survey-likert","316","1148671","0.0-6.0-2.44","3246010","co39223","norming","","","{""curiosity"":2,""confidence"":0}","[0,1]","../img/tt/056tt.jpg","",""
"895","","","recognition","survey-text","317","1149572","0.0-6.0-3.44","3246010","co39223","norming","","","{""guess"":""""}","","../img/tt/056tt.jpg","",""
"null","../img/gs/056gs.jpg","null","reveal","image-keyboard-response","318","1151573","0.0-6.0-4.44","3246010","co39223","norming","","","","","","",""
"null","../img/tt/056tt.jpg","null","mooney2","image-keyboard-response","319","1153575","0.0-6.0-5.44","3246010","co39223","norming","","","","","","",""
"2499","","","post_reveal_questions","survey-likert","320","1156076","0.0-6.0-6.44","3246010","co39223","norming","","","{""aha"":1}","[0]","../img/tt/056tt.jpg","",""
"null","<div style=""font-size:60px;""> </div>","null","fixation","html-keyboard-response","321","1156279","0.0-6.0-0.45","3246010","co39223","norming","","","","","","",""
"null","../img/tt/1175tt.jpg","null","mooney1","image-keyboard-response","322","1159281","0.0-6.0-1.45","3246010","co39223","norming","","","","","","",""
"6553","","","post_mooney1_questions","survey-likert","323","1165836","0.0-6.0-2.45","3246010","co39223","norming","","","{""curiosity"":3,""confidence"":1}","[0,1]","../img/tt/1175tt.jpg","",""
"4513","","","recognition","survey-text","324","1170355","0.0-6.0-3.45","3246010","co39223","norming","","","{""guess"":""grassen""}","","../img/tt/1175tt.jpg","",""
"null","../img/gs/1175gs.jpg","null","reveal","image-keyboard-response","325","1172357","0.0-6.0-4.45","3246010","co39223","norming","","","","","","",""
"null","../img/tt/1175tt.jpg","null","mooney2","image-keyboard-response","326","1174359","0.0-6.0-5.45","3246010","co39223","norming","","","","","","",""
"3376","","","post_reveal_questions","survey-likert","327","1177736","0.0-6.0-6.45","3246010","co39223","norming","","","{""aha"":4}","[0]","../img/tt/1175tt.jpg","",""
"null","<div style=""font-size:60px;""> </div>","null","fixation","html-keyboard-response","328","1177939","0.0-6.0-0.46","3246010","co39223","norming","","","","","","",""
"null","../img/tt/1069tt.jpg","null","mooney1","image-keyboard-response","329","1180941","0.0-6.0-1.46","3246010","co39223","norming","","","","","","",""
"4504","","","post_mooney1_questions","survey-likert","330","1185446","0.0-6.0-2.46","3246010","co39223","norming","","","{""curiosity"":5,""confidence"":4}","[0,1]","../img/tt/1069tt.jpg","",""
"2177","","","recognition","survey-text","331","1187630","0.0-6.0-3.46","3246010","co39223","norming","","","{""guess"":""kameel""}","","../img/tt/1069tt.jpg","",""
"null","../img/gs/1069gs.jpg","null","reveal","image-keyboard-response","332","1189631","0.0-6.0-4.46","3246010","co39223","norming","","","","","","",""
"null","../img/tt/1069tt.jpg","null","mooney2","image-keyboard-response","333","1191632","0.0-6.0-5.46","3246010","co39223","norming","","","","","","",""
"1841","","","post_reveal_questions","survey-likert","334","1193474","0.0-6.0-6.46","3246010","co39223","norming","","","{""aha"":4}","[0]","../img/tt/1069tt.jpg","",""
"null","<div style=""font-size:60px;""> </div>","null","fixation","html-keyboard-response","335","1193677","0.0-6.0-0.47","3246010","co39223","norming","","","","","","",""
"null","../img/tt/1237tt.jpg","null","mooney1","image-keyboard-response","336","1196679","0.0-6.0-1.47","3246010","co39223","norming","","","","","","",""
"8745","","","post_mooney1_questions","survey-likert","337","1205427","0.0-6.0-2.47","3246010","co39223","norming","","","{""curiosity"":2,""confidence"":3}","[0,1]","../img/tt/1237tt.jpg","",""
"1966","","","recognition","survey-text","338","1207399","0.0-6.0-3.47","3246010","co39223","norming","","","{""guess"":""eend""}","","../img/tt/1237tt.jpg","",""
"null","../img/gs/1237gs.jpg","null","reveal","image-keyboard-response","339","1209401","0.0-6.0-4.47","3246010","co39223","norming","","","","","","",""
"null","../img/tt/1237tt.jpg","null","mooney2","image-keyboard-response","340","1211403","0.0-6.0-5.47","3246010","co39223","norming","","","","","","",""
"2381","","","post_reveal_questions","survey-likert","341","1213785","0.0-6.0-6.47","3246010","co39223","norming","","","{""aha"":6}","[0]","../img/tt/1237tt.jpg","",""
"null","<div style=""font-size:60px;""> </div>","null","fixation","html-keyboard-response","342","1213988","0.0-6.0-0.48","3246010","co39223","norming","","","","","","",""
"null","../img/tt/078tt.jpg","null","mooney1","image-keyboard-response","343","1216990","0.0-6.0-1.48","3246010","co39223","norming","","","","","","",""
"7047","","","post_mooney1_questions","survey-likert","344","1224038","0.0-6.0-2.48","3246010","co39223","norming","","","{""curiosity"":5,""confidence"":6}","[0,1]","../img/tt/078tt.jpg","",""
"5730","","","recognition","survey-text","345","1229774","0.0-6.0-3.48","3246010","co39223","norming","","","{""guess"":""druiventak""}","","../img/tt/078tt.jpg","",""
"null","../img/gs/078gs.jpg","null","reveal","image-keyboard-response","346","1231775","0.0-6.0-4.48","3246010","co39223","norming","","","","","","",""
"null","../img/tt/078tt.jpg","null","mooney2","image-keyboard-response","347","1233776","0.0-6.0-5.48","3246010","co39223","norming","","","","","","",""
"3060","","","post_reveal_questions","survey-likert","348","1236837","0.0-6.0-6.48","3246010","co39223","norming","","","{""aha"":3}","[0]","../img/tt/078tt.jpg","",""
"null","<div style=""font-size:60px;""> </div>","null","fixation","html-keyboard-response","349","1237040","0.0-6.0-0.49","3246010","co39223","norming","","","","","","",""
"null","../img/tt/1243tt.jpg","null","mooney1","image-keyboard-response","350","1240042","0.0-6.0-1.49","3246010","co39223","norming","","","","","","",""
"4966","","","post_mooney1_questions","survey-likert","351","1245010","0.0-6.0-2.49","3246010","co39223","norming","","","{""curiosity"":5,""confidence"":6}","[0,1]","../img/tt/1243tt.jpg","",""
"1968.9999999997672","","","recognition","survey-text","352","1246986","0.0-6.0-3.49","3246010","co39223","norming","","","{""guess"":""gorilla""}","","../img/tt/1243tt.jpg","",""
"null","../img/gs/1243gs.jpg","null","reveal","image-keyboard-response","353","1248988","0.0-6.0-4.49","3246010","co39223","norming","","","","","","",""
"null","../img/tt/1243tt.jpg","null","mooney2","image-keyboard-response","354","1250990","0.0-6.0-5.49","3246010","co39223","norming","","","","","","",""
"2519","","","post_reveal_questions","survey-likert","355","1253511","0.0-6.0-6.49","3246010","co39223","norming","","","{""aha"":5}","[0]","../img/tt/1243tt.jpg","",""
"null","<div style=""font-size:60px;""> </div>","null","fixation","html-keyboard-response","356","1253713","0.0-6.0-0.50","3246010","co39223","norming","","","","","","",""
"null","../img/tt/1156tt.jpg","null","mooney1","image-keyboard-response","357","1256716","0.0-6.0-1.50","3246010","co39223","norming","","","","","","",""
"7515","","","post_mooney1_questions","survey-likert","358","1264233","0.0-6.0-2.50","3246010","co39223","norming","","","{""curiosity"":4,""confidence"":0}","[0,1]","../img/tt/1156tt.jpg","",""
"925.9999999997672","","","recognition","survey-text","359","1265164","0.0-6.0-3.50","3246010","co39223","norming","","","{""guess"":""""}","","../img/tt/1156tt.jpg","",""
"null","../img/gs/1156gs.jpg","null","reveal","image-keyboard-response","360","1267166","0.0-6.0-4.50","3246010","co39223","norming","","","","","","",""
"null","../img/tt/1156tt.jpg","null","mooney2","image-keyboard-response","361","1269168","0.0-6.0-5.50","3246010","co39223","norming","","","","","","",""
"2528","","","post_reveal_questions","survey-likert","362","1271697","0.0-6.0-6.50","3246010","co39223","norming","","","{""aha"":6}","[0]","../img/tt/1156tt.jpg","",""
"null","<div style=""font-size:60px;""> </div>","null","fixation","html-keyboard-response","363","1271900","0.0-6.0-0.51","3246010","co39223","norming","","","","","","",""
"null","../img/tt/1261tt.jpg","null","mooney1","image-keyboard-response","364","1274903","0.0-6.0-1.51","3246010","co39223","norming","","","","","","",""
"15067","","","post_mooney1_questions","survey-likert","365","1289971","0.0-6.0-2.51","3246010","co39223","norming","","","{""curiosity"":5,""confidence"":1}","[0,1]","../img/tt/1261tt.jpg","",""
"1961","","","recognition","survey-text","366","1291939","0.0-6.0-3.51","3246010","co39223","norming","","","{""guess"":""panter""}","","../img/tt/1261tt.jpg","",""
"null","../img/gs/1261gs.jpg","null","reveal","image-keyboard-response","367","1293941","0.0-6.0-4.51","3246010","co39223","norming","","","","","","",""
"null","../img/tt/1261tt.jpg","null","mooney2","image-keyboard-response","368","1295943","0.0-6.0-5.51","3246010","co39223","norming","","","","","","",""
"2470","","","post_reveal_questions","survey-likert","369","1298415","0.0-6.0-6.51","3246010","co39223","norming","","","{""aha"":5}","[0]","../img/tt/1261tt.jpg","",""
"null","<div style=""font-size:60px;""> </div>","null","fixation","html-keyboard-response","370","1298617","0.0-6.0-0.52","3246010","co39223","norming","","","","","","",""
"null","../img/tt/1123tt.jpg","null","mooney1","image-keyboard-response","371","1301620","0.0-6.0-1.52","3246010","co39223","norming","","","","","","",""
"7724","","","post_mooney1_questions","survey-likert","372","1309345","0.0-6.0-2.52","3246010","co39223","norming","","","{""curiosity"":5,""confidence"":3}","[0,1]","../img/tt/1123tt.jpg","",""
"2745","","","recognition","survey-text","373","1312096","0.0-6.0-3.52","3246010","co39223","norming","","","{""guess"":""giraf bal""}","","../img/tt/1123tt.jpg","",""
"null","../img/gs/1123gs.jpg","null","reveal","image-keyboard-response","374","1314097","0.0-6.0-4.52","3246010","co39223","norming","","","","","","",""
"null","../img/tt/1123tt.jpg","null","mooney2","image-keyboard-response","375","1316099","0.0-6.0-5.52","3246010","co39223","norming","","","","","","",""
"3464.000000000233","","","post_reveal_questions","survey-likert","376","1319565","0.0-6.0-6.52","3246010","co39223","norming","","","{""aha"":1}","[0]","../img/tt/1123tt.jpg","",""
"null","<div style=""font-size:60px;""> </div>","null","fixation","html-keyboard-response","377","1319767","0.0-6.0-0.53","3246010","co39223","norming","","","","","","",""
"null","../img/tt/1148tt.jpg","null","mooney1","image-keyboard-response","378","1322769","0.0-6.0-1.53","3246010","co39223","norming","","","","","","",""
"4460","","","post_mooney1_questions","survey-likert","379","1327231","0.0-6.0-2.53","3246010","co39223","norming","","","{""curiosity"":5,""confidence"":1}","[0,1]","../img/tt/1148tt.jpg","",""
"3028","","","recognition","survey-text","380","1330265","0.0-6.0-3.53","3246010","co39223","norming","","","{""guess"":""man""}","","../img/tt/1148tt.jpg","",""
"null","../img/gs/1148gs.jpg","null","reveal","image-keyboard-response","381","1332267","0.0-6.0-4.53","3246010","co39223","norming","","","","","","",""
"null","../img/tt/1148tt.jpg","null","mooney2","image-keyboard-response","382","1334270","0.0-6.0-5.53","3246010","co39223","norming","","","","","","",""
"2914","","","post_reveal_questions","survey-likert","383","1337185","0.0-6.0-6.53","3246010","co39223","norming","","","{""aha"":5}","[0]","../img/tt/1148tt.jpg","",""
"null","<div style=""font-size:60px;""> </div>","null","fixation","html-keyboard-response","384","1337388","0.0-6.0-0.54","3246010","co39223","norming","","","","","","",""
"null","../img/tt/1101tt.jpg","null","mooney1","image-keyboard-response","385","1340391","0.0-6.0-1.54","3246010","co39223","norming","","","","","","",""
"5269.000000000233","","","post_mooney1_questions","survey-likert","386","1345661","0.0-6.0-2.54","3246010","co39223","norming","","","{""curiosity"":4,""confidence"":5}","[0,1]","../img/tt/1101tt.jpg","",""
"2199","","","recognition","survey-text","387","1347866","0.0-6.0-3.54","3246010","co39223","norming","","","{""guess"":""keeper""}","","../img/tt/1101tt.jpg","",""
"null","../img/gs/1101gs.jpg","null","reveal","image-keyboard-response","388","1349869","0.0-6.0-4.54","3246010","co39223","norming","","","","","","",""
"null","../img/tt/1101tt.jpg","null","mooney2","image-keyboard-response","389","1351871","0.0-6.0-5.54","3246010","co39223","norming","","","","","","",""
"5594.999999999767","","","post_reveal_questions","survey-likert","390","1357467","0.0-6.0-6.54","3246010","co39223","norming","","","{""aha"":1}","[0]","../img/tt/1101tt.jpg","",""
"null","<div style=""font-size:60px;""> </div>","null","fixation","html-keyboard-response","391","1357669","0.0-6.0-0.55","3246010","co39223","norming","","","","","","",""
"null","../img/tt/1272tt.jpg","null","mooney1","image-keyboard-response","392","1360672","0.0-6.0-1.55","3246010","co39223","norming","","","","","","",""
"8236","","","post_mooney1_questions","survey-likert","393","1368910","0.0-6.0-2.55","3246010","co39223","norming","","","{""curiosity"":5,""confidence"":0}","[0,1]","../img/tt/1272tt.jpg","",""
"893","","","recognition","survey-text","394","1369809","0.0-6.0-3.55","3246010","co39223","norming","","","{""guess"":""""}","","../img/tt/1272tt.jpg","",""
"null","../img/gs/1272gs.jpg","null","reveal","image-keyboard-response","395","1371812","0.0-6.0-4.55","3246010","co39223","norming","","","","","","",""
"null","../img/tt/1272tt.jpg","null","mooney2","image-keyboard-response","396","1373814","0.0-6.0-5.55","3246010","co39223","norming","","","","","","",""
"2436","","","post_reveal_questions","survey-likert","397","1376251","0.0-6.0-6.55","3246010","co39223","norming","","","{""aha"":5}","[0]","../img/tt/1272tt.jpg","",""
"null","<div style=""font-size:60px;""> </div>","null","fixation","html-keyboard-response","398","1376453","0.0-6.0-0.56","3246010","co39223","norming","","","","","","",""
"null","../img/tt/380tt.jpg","null","mooney1","image-keyboard-response","399","1379456","0.0-6.0-1.56","3246010","co39223","norming","","","","","","",""
"7103","","","post_mooney1_questions","survey-likert","400","1386560","0.0-6.0-2.56","3246010","co39223","norming","","","{""curiosity"":3,""confidence"":1}","[0,1]","../img/tt/380tt.jpg","",""
"1175","","","recognition","survey-text","401","1387741","0.0-6.0-3.56","3246010","co39223","norming","","","{""guess"":""cavia""}","","../img/tt/380tt.jpg","",""
"null","../img/gs/380gs.jpg","null","reveal","image-keyboard-response","402","1389743","0.0-6.0-4.56","3246010","co39223","norming","","","","","","",""
"null","../img/tt/380tt.jpg","null","mooney2","image-keyboard-response","403","1391746","0.0-6.0-5.56","3246010","co39223","norming","","","","","","",""
"2638.999999999767","","","post_reveal_questions","survey-likert","404","1394386","0.0-6.0-6.56","3246010","co39223","norming","","","{""aha"":1}","[0]","../img/tt/380tt.jpg","",""
"null","<div style=""font-size:60px;""> </div>","null","fixation","html-keyboard-response","405","1394589","0.0-6.0-0.57","3246010","co39223","norming","","","","","","",""
"null","../img/tt/1070tt.jpg","null","mooney1","image-keyboard-response","406","1397591","0.0-6.0-1.57","3246010","co39223","norming","","","","","","",""
"5855","","","post_mooney1_questions","survey-likert","407","1403447","0.0-6.0-2.57","3246010","co39223","norming","","","{""curiosity"":5,""confidence"":4}","[0,1]","../img/tt/1070tt.jpg","",""
"5163","","","recognition","survey-text","408","1408618","0.0-6.0-3.57","3246010","co39223","norming","","","{""guess"":""broodje""}","","../img/tt/1070tt.jpg","",""
"null","../img/gs/1070gs.jpg","null","reveal","image-keyboard-response","409","1410620","0.0-6.0-4.57","3246010","co39223","norming","","","","","","",""
"null","../img/tt/1070tt.jpg","null","mooney2","image-keyboard-response","410","1412621","0.0-6.0-5.57","3246010","co39223","norming","","","","","","",""
"3405.999999999767","","","post_reveal_questions","survey-likert","411","1416028","0.0-6.0-6.57","3246010","co39223","norming","","","{""aha"":5}","[0]","../img/tt/1070tt.jpg","",""
"null","<div style=""font-size:60px;""> </div>","null","fixation","html-keyboard-response","412","1416230","0.0-6.0-0.58","3246010","co39223","norming","","","","","","",""
"null","../img/tt/1002tt.jpg","null","mooney1","image-keyboard-response","413","1419233","0.0-6.0-1.58","3246010","co39223","norming","","","","","","",""
"6069","","","post_mooney1_questions","survey-likert","414","1425303","0.0-6.0-2.58","3246010","co39223","norming","","","{""curiosity"":2,""confidence"":1}","[0,1]","../img/tt/1002tt.jpg","",""
"6742","","","recognition","survey-text","415","1432051","0.0-6.0-3.58","3246010","co39223","norming","","","{""guess"":""zwijn""}","","../img/tt/1002tt.jpg","",""
"null","../img/gs/1002gs.jpg","null","reveal","image-keyboard-response","416","1434053","0.0-6.0-4.58","3246010","co39223","norming","","","","","","",""
"null","../img/tt/1002tt.jpg","null","mooney2","image-keyboard-response","417","1436056","0.0-6.0-5.58","3246010","co39223","norming","","","","","","",""
"2119","","","post_reveal_questions","survey-likert","418","1438176","0.0-6.0-6.58","3246010","co39223","norming","","","{""aha"":5}","[0]","../img/tt/1002tt.jpg","",""
"null","<div style=""font-size:60px;""> </div>","null","fixation","html-keyboard-response","419","1438379","0.0-6.0-0.59","3246010","co39223","norming","","","","","","",""
"null","../img/tt/496tt.jpg","null","mooney1","image-keyboard-response","420","1441381","0.0-6.0-1.59","3246010","co39223","norming","","","","","","",""
"3231","","","post_mooney1_questions","survey-likert","421","1444613","0.0-6.0-2.59","3246010","co39223","norming","","","{""curiosity"":2,""confidence"":5}","[0,1]","../img/tt/496tt.jpg","",""
"1649","","","recognition","survey-text","422","1446268","0.0-6.0-3.59","3246010","co39223","norming","","","{""guess"":""hond""}","","../img/tt/496tt.jpg","",""
"null","../img/gs/496gs.jpg","null","reveal","image-keyboard-response","423","1448271","0.0-6.0-4.59","3246010","co39223","norming","","","","","","",""
"null","../img/tt/496tt.jpg","null","mooney2","image-keyboard-response","424","1450273","0.0-6.0-5.59","3246010","co39223","norming","","","","","","",""
"1728","","","post_reveal_questions","survey-likert","425","1452002","0.0-6.0-6.59","3246010","co39223","norming","","","{""aha"":3}","[0]","../img/tt/496tt.jpg","",""
"null","<div style=""font-size:60px;""> </div>","null","fixation","html-keyboard-response","426","1452204","0.0-6.0-0.60","3246010","co39223","norming","","","","","","",""
"null","../img/tt/1362tt.jpg","null","mooney1","image-keyboard-response","427","1455207","0.0-6.0-1.60","3246010","co39223","norming","","","","","","",""
"5078.000000000233","","","post_mooney1_questions","survey-likert","428","1460286","0.0-6.0-2.60","3246010","co39223","norming","","","{""curiosity"":5,""confidence"":5}","[0,1]","../img/tt/1362tt.jpg","",""
"2983","","","recognition","survey-text","429","1463275","0.0-6.0-3.60","3246010","co39223","norming","","","{""guess"":""platenspeler""}","","../img/tt/1362tt.jpg","",""
"null","../img/gs/1362gs.jpg","null","reveal","image-keyboard-response","430","1465278","0.0-6.0-4.60","3246010","co39223","norming","","","","","","",""
"null","../img/tt/1362tt.jpg","null","mooney2","image-keyboard-response","431","1467280","0.0-6.0-5.60","3246010","co39223","norming","","","","","","",""
"1806","","","post_reveal_questions","survey-likert","432","1469087","0.0-6.0-6.60","3246010","co39223","norming","","","{""aha"":1}","[0]","../img/tt/1362tt.jpg","",""
"null","<div style=""font-size:60px;""> </div>","null","fixation","html-keyboard-response","433","1469289","0.0-6.0-0.61","3246010","co39223","norming","","","","","","",""
"null","../img/tt/517tt.jpg","null","mooney1","image-keyboard-response","434","1472291","0.0-6.0-1.61","3246010","co39223","norming","","","","","","",""
"6650","","","post_mooney1_questions","survey-likert","435","1478943","0.0-6.0-2.61","3246010","co39223","norming","","","{""curiosity"":5,""confidence"":4}","[0,1]","../img/tt/517tt.jpg","",""
"2315","","","recognition","survey-text","436","1481265","0.0-6.0-3.61","3246010","co39223","norming","","","{""guess"":""luiaard""}","","../img/tt/517tt.jpg","",""
"null","../img/gs/517gs.jpg","null","reveal","image-keyboard-response","437","1483268","0.0-6.0-4.61","3246010","co39223","norming","","","","","","",""
"null","../img/tt/517tt.jpg","null","mooney2","image-keyboard-response","438","1485270","0.0-6.0-5.61","3246010","co39223","norming","","","","","","",""
"2566","","","post_reveal_questions","survey-likert","439","1487837","0.0-6.0-6.61","3246010","co39223","norming","","","{""aha"":2}","[0]","../img/tt/517tt.jpg","",""
"null","<div style=""font-size:60px;""> </div>","null","fixation","html-keyboard-response","440","1488040","0.0-6.0-0.62","3246010","co39223","norming","","","","","","",""
"null","../img/tt/126tt.jpg","null","mooney1","image-keyboard-response","441","1491042","0.0-6.0-1.62","3246010","co39223","norming","","","","","","",""
"6036","","","post_mooney1_questions","survey-likert","442","1497080","0.0-6.0-2.62","3246010","co39223","norming","","","{""curiosity"":3,""confidence"":0}","[0,1]","../img/tt/126tt.jpg","",""
"1646","","","recognition","survey-text","443","1498732","0.0-6.0-3.62","3246010","co39223","norming","","","{""guess"":""""}","","../img/tt/126tt.jpg","",""
"null","../img/gs/126gs.jpg","null","reveal","image-keyboard-response","444","1500734","0.0-6.0-4.62","3246010","co39223","norming","","","","","","",""
"null","../img/tt/126tt.jpg","null","mooney2","image-keyboard-response","445","1502735","0.0-6.0-5.62","3246010","co39223","norming","","","","","","",""
"2167.999999999767","","","post_reveal_questions","survey-likert","446","1504905","0.0-6.0-6.62","3246010","co39223","norming","","","{""aha"":1}","[0]","../img/tt/126tt.jpg","",""
"null","<div style=""font-size:60px;""> </div>","null","fixation","html-keyboard-response","447","1505108","0.0-6.0-0.63","3246010","co39223","norming","","","","","","",""
"null","../img/tt/222tt.jpg","null","mooney1","image-keyboard-response","448","1508110","0.0-6.0-1.63","3246010","co39223","norming","","","","","","",""
"9389.999999999767","","","post_mooney1_questions","survey-likert","449","1517503","0.0-6.0-2.63","3246010","co39223","norming","","","{""curiosity"":5,""confidence"":3}","[0,1]","../img/tt/222tt.jpg","",""
"4647","","","recognition","survey-text","450","1522156","0.0-6.0-3.63","3246010","co39223","norming","","","{""guess"":""theeservies""}","","../img/tt/222tt.jpg","",""
"null","../img/gs/222gs.jpg","null","reveal","image-keyboard-response","451","1524158","0.0-6.0-4.63","3246010","co39223","norming","","","","","","",""
"null","../img/tt/222tt.jpg","null","mooney2","image-keyboard-response","452","1526160","0.0-6.0-5.63","3246010","co39223","norming","","","","","","",""
"3036.999999999767","","","post_reveal_questions","survey-likert","453","1529198","0.0-6.0-6.63","3246010","co39223","norming","","","{""aha"":5}","[0]","../img/tt/222tt.jpg","",""
"null","<div style=""font-size:60px;""> </div>","null","fixation","html-keyboard-response","454","1529400","0.0-6.0-0.64","3246010","co39223","norming","","","","","","",""
"null","../img/tt/1235tt.jpg","null","mooney1","image-keyboard-response","455","1532402","0.0-6.0-1.64","3246010","co39223","norming","","","","","","",""
"4974","","","post_mooney1_questions","survey-likert","456","1537378","0.0-6.0-2.64","3246010","co39223","norming","","","{""curiosity"":4,""confidence"":1}","[0,1]","../img/tt/1235tt.jpg","",""
"1251","","","recognition","survey-text","457","1538634","0.0-6.0-3.64","3246010","co39223","norming","","","{""guess"":""hooi""}","","../img/tt/1235tt.jpg","",""
"null","../img/gs/1235gs.jpg","null","reveal","image-keyboard-response","458","1540636","0.0-6.0-4.64","3246010","co39223","norming","","","","","","",""
"null","../img/tt/1235tt.jpg","null","mooney2","image-keyboard-response","459","1542638","0.0-6.0-5.64","3246010","co39223","norming","","","","","","",""
"2405.000000000233","","","post_reveal_questions","survey-likert","460","1545045","0.0-6.0-6.64","3246010","co39223","norming","","","{""aha"":1}","[0]","../img/tt/1235tt.jpg","",""
"null","<div style=""font-size:60px;""> </div>","null","fixation","html-keyboard-response","461","1545248","0.0-6.0-0.65","3246010","co39223","norming","","","","","","",""
"null","../img/tt/1173tt.jpg","null","mooney1","image-keyboard-response","462","1548251","0.0-6.0-1.65","3246010","co39223","norming","","","","","","",""
"11109","","","post_mooney1_questions","survey-likert","463","1559362","0.0-6.0-2.65","3246010","co39223","norming","","","{""curiosity"":2,""confidence"":3}","[0,1]","../img/tt/1173tt.jpg","",""
"5519","","","recognition","survey-text","464","1564886","0.0-6.0-3.65","3246010","co39223","norming","","","{""guess"":""2 sporters""}","","../img/tt/1173tt.jpg","",""
"null","../img/gs/1173gs.jpg","null","reveal","image-keyboard-response","465","1566889","0.0-6.0-4.65","3246010","co39223","norming","","","","","","",""
"null","../img/tt/1173tt.jpg","null","mooney2","image-keyboard-response","466","1568891","0.0-6.0-5.65","3246010","co39223","norming","","","","","","",""
"2410","","","post_reveal_questions","survey-likert","467","1571302","0.0-6.0-6.65","3246010","co39223","norming","","","{""aha"":5}","[0]","../img/tt/1173tt.jpg","",""
"null","<div style=""font-size:60px;""> </div>","null","fixation","html-keyboard-response","468","1571505","0.0-6.0-0.66","3246010","co39223","norming","","","","","","",""
"null","../img/tt/1227tt.jpg","null","mooney1","image-keyboard-response","469","1574507","0.0-6.0-1.66","3246010","co39223","norming","","","","","","",""
"7929","","","post_mooney1_questions","survey-likert","470","1582438","0.0-6.0-2.66","3246010","co39223","norming","","","{""curiosity"":3,""confidence"":3}","[0,1]","../img/tt/1227tt.jpg","",""
"1870.0000000002328","","","recognition","survey-text","471","1584314","0.0-6.0-3.66","3246010","co39223","norming","","","{""guess"":""schapen""}","","../img/tt/1227tt.jpg","",""
"null","../img/gs/1227gs.jpg","null","reveal","image-keyboard-response","472","1586316","0.0-6.0-4.66","3246010","co39223","norming","","","","","","",""
"null","../img/tt/1227tt.jpg","null","mooney2","image-keyboard-response","473","1588319","0.0-6.0-5.66","3246010","co39223","norming","","","","","","",""
"2274","","","post_reveal_questions","survey-likert","474","1590594","0.0-6.0-6.66","3246010","co39223","norming","","","{""aha"":5}","[0]","../img/tt/1227tt.jpg","",""
"null","<div style=""font-size:60px;""> </div>","null","fixation","html-keyboard-response","475","1590797","0.0-6.0-0.67","3246010","co39223","norming","","","","","","",""
"null","../img/tt/1251tt.jpg","null","mooney1","image-keyboard-response","476","1593799","0.0-6.0-1.67","3246010","co39223","norming","","","","","","",""
"6403","","","post_mooney1_questions","survey-likert","477","1600204","0.0-6.0-2.67","3246010","co39223","norming","","","{""curiosity"":4,""confidence"":2}","[0,1]","../img/tt/1251tt.jpg","",""
"2620","","","recognition","survey-text","478","1602830","0.0-6.0-3.67","3246010","co39223","norming","","","{""guess"":""bakstenen muur""}","","../img/tt/1251tt.jpg","",""
"null","../img/gs/1251gs.jpg","null","reveal","image-keyboard-response","479","1604832","0.0-6.0-4.67","3246010","co39223","norming","","","","","","",""
"null","../img/tt/1251tt.jpg","null","mooney2","image-keyboard-response","480","1606834","0.0-6.0-5.67","3246010","co39223","norming","","","","","","",""
"2232","","","post_reveal_questions","survey-likert","481","1609068","0.0-6.0-6.67","3246010","co39223","norming","","","{""aha"":1}","[0]","../img/tt/1251tt.jpg","",""
"null","<div style=""font-size:60px;""> </div>","null","fixation","html-keyboard-response","482","1609271","0.0-6.0-0.68","3246010","co39223","norming","","","","","","",""
"null","../img/tt/091tt.jpg","null","mooney1","image-keyboard-response","483","1612274","0.0-6.0-1.68","3246010","co39223","norming","","","","","","",""
"7016.999999999767","","","post_mooney1_questions","survey-likert","484","1619293","0.0-6.0-2.68","3246010","co39223","norming","","","{""curiosity"":2,""confidence"":1}","[0,1]","../img/tt/091tt.jpg","",""
"1208","","","recognition","survey-text","485","1620508","0.0-6.0-3.68","3246010","co39223","norming","","","{""guess"":""vogel""}","","../img/tt/091tt.jpg","",""
"null","../img/gs/091gs.jpg","null","reveal","image-keyboard-response","486","1622509","0.0-6.0-4.68","3246010","co39223","norming","","","","","","",""
"null","../img/tt/091tt.jpg","null","mooney2","image-keyboard-response","487","1624512","0.0-6.0-5.68","3246010","co39223","norming","","","","","","",""
"4377","","","post_reveal_questions","survey-likert","488","1628890","0.0-6.0-6.68","3246010","co39223","norming","","","{""aha"":4}","[0]","../img/tt/091tt.jpg","",""
"null","<div style=""font-size:60px;""> </div>","null","fixation","html-keyboard-response","489","1629093","0.0-6.0-0.69","3246010","co39223","norming","","","","","","",""
"null","../img/tt/1061tt.jpg","null","mooney1","image-keyboard-response","490","1632095","0.0-6.0-1.69","3246010","co39223","norming","","","","","","",""
"5887","","","post_mooney1_questions","survey-likert","491","1637984","0.0-6.0-2.69","3246010","co39223","norming","","","{""curiosity"":5,""confidence"":4}","[0,1]","../img/tt/1061tt.jpg","",""
"9055.000000000233","","","recognition","survey-text","492","1647045","0.0-6.0-3.69","3246010","co39223","norming","","","{""guess"":""wipplank""}","","../img/tt/1061tt.jpg","",""
"null","../img/gs/1061gs.jpg","null","reveal","image-keyboard-response","493","1649047","0.0-6.0-4.69","3246010","co39223","norming","","","","","","",""
"null","../img/tt/1061tt.jpg","null","mooney2","image-keyboard-response","494","1651049","0.0-6.0-5.69","3246010","co39223","norming","","","","","","",""
"1707.0000000002328","","","post_reveal_questions","survey-likert","495","1652757","0.0-6.0-6.69","3246010","co39223","norming","","","{""aha"":5}","[0]","../img/tt/1061tt.jpg","",""
"null","<div style=""font-size:60px;""> </div>","null","fixation","html-keyboard-response","496","1652960","0.0-6.0-0.70","3246010","co39223","norming","","","","","","",""
"null","../img/tt/1250tt.jpg","null","mooney1","image-keyboard-response","497","1655963","0.0-6.0-1.70","3246010","co39223","norming","","","","","","",""
"6333","","","post_mooney1_questions","survey-likert","498","1662297","0.0-6.0-2.70","3246010","co39223","norming","","","{""curiosity"":3,""confidence"":1}","[0,1]","../img/tt/1250tt.jpg","",""
"1673","","","recognition","survey-text","499","1663978","0.0-6.0-3.70","3246010","co39223","norming","","","{""guess"":""kippen""}","","../img/tt/1250tt.jpg","",""
"null","../img/gs/1250gs.jpg","null","reveal","image-keyboard-response","500","1665980","0.0-6.0-4.70","3246010","co39223","norming","","","","","","",""
"null","../img/tt/1250tt.jpg","null","mooney2","image-keyboard-response","501","1667982","0.0-6.0-5.70","3246010","co39223","norming","","","","","","",""
"2657","","","post_reveal_questions","survey-likert","502","1670640","0.0-6.0-6.70","3246010","co39223","norming","","","{""aha"":3}","[0]","../img/tt/1250tt.jpg","",""
"null","<div style=""font-size:60px;""> </div>","null","fixation","html-keyboard-response","503","1670842","0.0-6.0-0.71","3246010","co39223","norming","","","","","","",""
"null","../img/tt/1217tt.jpg","null","mooney1","image-keyboard-response","504","1673844","0.0-6.0-1.71","3246010","co39223","norming","","","","","","",""
"12035.000000000233","","","post_mooney1_questions","survey-likert","505","1685881","0.0-6.0-2.71","3246010","co39223","norming","","","{""curiosity"":4,""confidence"":5}","[0,1]","../img/tt/1217tt.jpg","",""
"8405","","","recognition","survey-text","506","1694292","0.0-6.0-3.71","3246010","co39223","norming","","","{""guess"":""rugby spelers""}","","../img/tt/1217tt.jpg","",""
"null","../img/gs/1217gs.jpg","null","reveal","image-keyboard-response","507","1696294","0.0-6.0-4.71","3246010","co39223","norming","","","","","","",""
"null","../img/tt/1217tt.jpg","null","mooney2","image-keyboard-response","508","1698295","0.0-6.0-5.71","3246010","co39223","norming","","","","","","",""
"3167","","","post_reveal_questions","survey-likert","509","1701463","0.0-6.0-6.71","3246010","co39223","norming","","","{""aha"":1}","[0]","../img/tt/1217tt.jpg","",""
"null","<div style=""font-size:60px;""> </div>","null","fixation","html-keyboard-response","510","1701666","0.0-6.0-0.72","3246010","co39223","norming","","","","","","",""
"null","../img/tt/507tt.jpg","null","mooney1","image-keyboard-response","511","1704668","0.0-6.0-1.72","3246010","co39223","norming","","","","","","",""
"5841.999999999767","","","post_mooney1_questions","survey-likert","512","1710512","0.0-6.0-2.72","3246010","co39223","norming","","","{""curiosity"":4,""confidence"":1}","[0,1]","../img/tt/507tt.jpg","",""
"1916","","","recognition","survey-text","513","1712434","0.0-6.0-3.72","3246010","co39223","norming","","","{""guess"":""paard""}","","../img/tt/507tt.jpg","",""
"null","../img/gs/507gs.jpg","null","reveal","image-keyboard-response","514","1714436","0.0-6.0-4.72","3246010","co39223","norming","","","","","","",""
"null","../img/tt/507tt.jpg","null","mooney2","image-keyboard-response","515","1716438","0.0-6.0-5.72","3246010","co39223","norming","","","","","","",""
"2892","","","post_reveal_questions","survey-likert","516","1719331","0.0-6.0-6.72","3246010","co39223","norming","","","{""aha"":4}","[0]","../img/tt/507tt.jpg","",""
"null","<div style=""font-size:60px;""> </div>","null","fixation","html-keyboard-response","517","1719534","0.0-6.0-0.73","3246010","co39223","norming","","","","","","",""
"null","../img/tt/1309tt.jpg","null","mooney1","image-keyboard-response","518","1722537","0.0-6.0-1.73","3246010","co39223","norming","","","","","","",""
"7802","","","post_mooney1_questions","survey-likert","519","1730340","0.0-6.0-2.73","3246010","co39223","norming","","","{""curiosity"":4,""confidence"":6}","[0,1]","../img/tt/1309tt.jpg","",""
"3483","","","recognition","survey-text","520","1733828","0.0-6.0-3.73","3246010","co39223","norming","","","{""guess"":""auto bos""}","","../img/tt/1309tt.jpg","",""
"null","../img/gs/1309gs.jpg","null","reveal","image-keyboard-response","521","1735830","0.0-6.0-4.73","3246010","co39223","norming","","","","","","",""
"null","../img/tt/1309tt.jpg","null","mooney2","image-keyboard-response","522","1737833","0.0-6.0-5.73","3246010","co39223","norming","","","","","","",""
"3274.999999999767","","","post_reveal_questions","survey-likert","523","1741109","0.0-6.0-6.73","3246010","co39223","norming","","","{""aha"":1}","[0]","../img/tt/1309tt.jpg","",""
"null","<div style=""font-size:60px;""> </div>","null","fixation","html-keyboard-response","524","1741311","0.0-6.0-0.74","3246010","co39223","norming","","","","","","",""
"null","../img/tt/044tt.jpg","null","mooney1","image-keyboard-response","525","1744314","0.0-6.0-1.74","3246010","co39223","norming","","","","","","",""
"5908","","","post_mooney1_questions","survey-likert","526","1750224","0.0-6.0-2.74","3246010","co39223","norming","","","{""curiosity"":6,""confidence"":5}","[0,1]","../img/tt/044tt.jpg","",""
"12916","","","recognition","survey-text","527","1763146","0.0-6.0-3.74","3246010","co39223","norming","","","{""guess"":""schatkist onderwater""}","","../img/tt/044tt.jpg","",""
"null","../img/gs/044gs.jpg","null","reveal","image-keyboard-response","528","1765148","0.0-6.0-4.74","3246010","co39223","norming","","","","","","",""
"null","../img/tt/044tt.jpg","null","mooney2","image-keyboard-response","529","1767151","0.0-6.0-5.74","3246010","co39223","norming","","","","","","",""
"4388","","","post_reveal_questions","survey-likert","530","1771540","0.0-6.0-6.74","3246010","co39223","norming","","","{""aha"":4}","[0]","../img/tt/044tt.jpg","",""
"null","<div style=""font-size:60px;""> </div>","null","fixation","html-keyboard-response","531","1771742","0.0-6.0-0.75","3246010","co39223","norming","","","","","","",""
"null","../img/tt/1122tt.jpg","null","mooney1","image-keyboard-response","532","1774745","0.0-6.0-1.75","3246010","co39223","norming","","","","","","",""
"7399.999999999767","","","post_mooney1_questions","survey-likert","533","1782147","0.0-6.0-2.75","3246010","co39223","norming","","","{""curiosity"":5,""confidence"":6}","[0,1]","../img/tt/1122tt.jpg","",""
"2762","","","recognition","survey-text","534","1784914","0.0-6.0-3.75","3246010","co39223","norming","","","{""guess"":""haven""}","","../img/tt/1122tt.jpg","",""
"null","../img/gs/1122gs.jpg","null","reveal","image-keyboard-response","535","1786917","0.0-6.0-4.75","3246010","co39223","norming","","","","","","",""
"null","../img/tt/1122tt.jpg","null","mooney2","image-keyboard-response","536","1788919","0.0-6.0-5.75","3246010","co39223","norming","","","","","","",""
"3142.999999999767","","","post_reveal_questions","survey-likert","537","1792062","0.0-6.0-6.75","3246010","co39223","norming","","","{""aha"":2}","[0]","../img/tt/1122tt.jpg","",""
"null","<div style=""font-size:60px;""> </div>","null","fixation","html-keyboard-response","538","1792265","0.0-6.0-0.76","3246010","co39223","norming","","","","","","",""
"null","../img/tt/1260tt.jpg","null","mooney1","image-keyboard-response","539","1795268","0.0-6.0-1.76","3246010","co39223","norming","","","","","","",""
"5332","","","post_mooney1_questions","survey-likert","540","1800601","0.0-6.0-2.76","3246010","co39223","norming","","","{""curiosity"":3,""confidence"":0}","[0,1]","../img/tt/1260tt.jpg","",""
"1006.0000000002328","","","recognition","survey-text","541","1801613","0.0-6.0-3.76","3246010","co39223","norming","","","{""guess"":""""}","","../img/tt/1260tt.jpg","",""
"null","../img/gs/1260gs.jpg","null","reveal","image-keyboard-response","542","1803615","0.0-6.0-4.76","3246010","co39223","norming","","","","","","",""
"null","../img/tt/1260tt.jpg","null","mooney2","image-keyboard-response","543","1805617","0.0-6.0-5.76","3246010","co39223","norming","","","","","","",""
"4553","","","post_reveal_questions","survey-likert","544","1810171","0.0-6.0-6.76","3246010","co39223","norming","","","{""aha"":0}","[0]","../img/tt/1260tt.jpg","",""
"null","<div style=""font-size:60px;""> </div>","null","fixation","html-keyboard-response","545","1810374","0.0-6.0-0.77","3246010","co39223","norming","","","","","","",""
"null","../img/tt/1040tt.jpg","null","mooney1","image-keyboard-response","546","1813377","0.0-6.0-1.77","3246010","co39223","norming","","","","","","",""
"8053","","","post_mooney1_questions","survey-likert","547","1821430","0.0-6.0-2.77","3246010","co39223","norming","","","{""curiosity"":3,""confidence"":1}","[0,1]","../img/tt/1040tt.jpg","",""
"2284","","","recognition","survey-text","548","1823721","0.0-6.0-3.77","3246010","co39223","norming","","","{""guess"":""viool""}","","../img/tt/1040tt.jpg","",""
"null","../img/gs/1040gs.jpg","null","reveal","image-keyboard-response","549","1825723","0.0-6.0-4.77","3246010","co39223","norming","","","","","","",""
"null","../img/tt/1040tt.jpg","null","mooney2","image-keyboard-response","550","1827724","0.0-6.0-5.77","3246010","co39223","norming","","","","","","",""
"2149","","","post_reveal_questions","survey-likert","551","1829875","0.0-6.0-6.77","3246010","co39223","norming","","","{""aha"":6}","[0]","../img/tt/1040tt.jpg","",""
"null","<div style=""font-size:60px;""> </div>","null","fixation","html-keyboard-response","552","1830078","0.0-6.0-0.78","3246010","co39223","norming","","","","","","",""
"null","../img/tt/081tt.jpg","null","mooney1","image-keyboard-response","553","1833079","0.0-6.0-1.78","3246010","co39223","norming","","","","","","",""
"4688","","","post_mooney1_questions","survey-likert","554","1837768","0.0-6.0-2.78","3246010","co39223","norming","","","{""curiosity"":5,""confidence"":5}","[0,1]","../img/tt/081tt.jpg","",""
"1430","","","recognition","survey-text","555","1839205","0.0-6.0-3.78","3246010","co39223","norming","","","{""guess"":""duiker""}","","../img/tt/081tt.jpg","",""
"null","../img/gs/081gs.jpg","null","reveal","image-keyboard-response","556","1841207","0.0-6.0-4.78","3246010","co39223","norming","","","","","","",""
"null","../img/tt/081tt.jpg","null","mooney2","image-keyboard-response","557","1843209","0.0-6.0-5.78","3246010","co39223","norming","","","","","","",""
"2465","","","post_reveal_questions","survey-likert","558","1845674","0.0-6.0-6.78","3246010","co39223","norming","","","{""aha"":1}","[0]","../img/tt/081tt.jpg","",""
"null","<div style=""font-size:60px;""> </div>","null","fixation","html-keyboard-response","559","1845877","0.0-6.0-0.79","3246010","co39223","norming","","","","","","",""
"null","../img/tt/135tt.jpg","null","mooney1","image-keyboard-response","560","1848879","0.0-6.0-1.79","3246010","co39223","norming","","","","","","",""
"4462","","","post_mooney1_questions","survey-likert","561","1853343","0.0-6.0-2.79","3246010","co39223","norming","","","{""curiosity"":2,""confidence"":6}","[0,1]","../img/tt/135tt.jpg","",""
"2877.999999999767","","","recognition","survey-text","562","1856231","0.0-6.0-3.79","3246010","co39223","norming","","","{""guess"":""toilet""}","","../img/tt/135tt.jpg","",""
"null","../img/gs/135gs.jpg","null","reveal","image-keyboard-response","563","1858233","0.0-6.0-4.79","3246010","co39223","norming","","","","","","",""
"null","../img/tt/135tt.jpg","null","mooney2","image-keyboard-response","564","1860236","0.0-6.0-5.79","3246010","co39223","norming","","","","","","",""
"1770","","","post_reveal_questions","survey-likert","565","1862007","0.0-6.0-6.79","3246010","co39223","norming","","","{""aha"":1}","[0]","../img/tt/135tt.jpg","",""
