"rt","stimulus","key_press","test_part","trial_type","trial_index","time_elapsed","internal_node_id","totalTime","subject","experiment_name","button_pressed","success","responses","question_order","currentStim","old","correct"
"8868.000000000002","Welcome to the experiment. This is an online experiment so please don't close the tab/window until we say goodbye.  Press any key to begin.","78","instructions","html-keyboard-response","0","8877","0.0-0.0","2537313","co39346","norming","","","","","","",""
"6063","<div style='word-wrap: break-word; width: 900px'><h3>Please consider this information carefully before deciding whether to participate in this research</h3><ul style='text-align: left; font-size: .8em;'><li><b>Purpose of the research</b>: To examine how people process images.</li><li><b>What you will do in this research</b>:  Stimuli (images) will be presented on the computer and you will be asked different questions about them.</li><li><b>Time required</b>: Participation will take between 45 and 60 minutes to complete.</li><li><b>Risks</b>:  There are no anticipated risks associated with participating in this study. The effects of participating should be comparable to those you would experience from viewing a computer monitor for 30 minutes and using a mouse or keyboard.</li><li><b>Benefits</b>:  This study provides no benefits to you individually except for the credit. The study provides important information about the nature of perception and learning.</li><li><b>Confidentiality</b>:  Your participation in this study will remain confidential. No personally identifiable information will be associated with your data. Your de-identified data may be shared with other researchers and used in future projects.</li><li><b>Participation and withdrawal</b>:  Your participation in this study is completely voluntary and you may refuse to participate or you may choose to withdraw at any time without penalty.</li><li><b>How to contact the researchers</b>: If you have questions or concerns about your participation or payment, or want to request a summary of research findings, please contact Sander Van de Cruys (KU Leuven), at sander.vandecruys@kuleuven.be.</li></ul><p>The nature and purpose of this research have been sufficiently explained and I agree to participate in this study.  I understand that I am free to withdraw at any time without incurring any penalty.</p><p>Please consent by clicking the button below to continue. Otherwise, please exit the study at this time.</p></div>","","instructions","html-button-response","1","14941","0.0-1.0","2537313","co39346","norming","0","","","","","",""
"","","","instructions","fullscreen","2","22007","0.0-2.0","2537313","co39346","norming","","true","","","","",""
"35664","","","sona","survey-html-form","3","57671","0.0-3.0","2537313","co39346","norming","","","[{""name"":""sonaid"",""value"":""39346""},{""name"":""debrief"",""value"":""yes""},{""name"":""datajoin"",""value"":""yes""}]","","","",""
"91307","<div style='word-wrap: break-word; width: 900px'><h3>Instructions</h3><p>This experiment will have 3 parts. In the first part you will see a series of distorted images like the one below on the left. As you can see in the righthand image, the distorted images are derived from actual photographs. In what follows, you will <strong>briefly</strong> be presented with <strong>only</strong> the distorted image.</p> <div style='float: left; margin-right: 20px;'><img src='../img/018tt.jpg' height='250' width='250'></img></div><div style='float: right; margin-left: 20px;'><img src='../img/018gs.jpg' height='250' width='250'></img></div><p>Subsequently you will be asked a few questions about the image: One question on how <strong>curious</strong> you are about the solution and one on how <strong>confident</strong> you are that you know the solution.</p>Next, we ask you to make a guess on what is in the image. Note that it is OK to name just the <strong>basic level category</strong>. For example when you see a parrot in the image, 'parrot' will obviously be a correct answer but also correct is 'bird'. However, 'animal' will <strong>not</strong> be counted as a correct response. For the example above, 'rose' would be correct or 'flower', but not 'plant'. When soccer players are depicted, 'soccer', 'football', 'soccer players' will be correct, but not 'humans', 'outdoors', or 'sports'. You do not need to describe the image in full, just name the main object in it <strong>in one or two words</strong>. All images depict objects from one of the following broad level categories: animals, inanimate objects, plants, sports, vehicles, and food. Recognizing means knowing <strong>more</strong> than these broad labels for a given image. But we always encourage you to <strong>make a guess</strong> if you can. Note that you are allowed to use <strong>Dutch and English</strong> in your answers, whatever comes easiest for you.</p><p>Press any key to continue.</p></div>","75","instructions","html-keyboard-response","4","148975","0.0-4.0","2537313","co39346","norming","","","","","","",""
"39712.99999999997","<div style='word-wrap: break-word; width: 900px'><h3>Instructions</h3> <p>Next, the solution image will be revealed to you and you'll be asked to indicate how strong your <strong>aha-experience</strong> was after seeing the solution. This describes the positive feeling of the 'click' you sometimes experience, when the pieces of the 'puzzle' fall together and you suddenly have 'insight' in the image.</p><img src='aha.jpg' height='188' width='250'></img><p>Note that there are no right or wrong answers. We are interested in what <strong>you</strong> see in the image and how <strong>you</strong> feel about it.</p><p>Press any key to start the experiment.</p></div>","76","instructions","html-keyboard-response","5","188689","0.0-5.0","2537313","co39346","norming","","","","","","",""
"null","<div style=""font-size:60px;""> </div>","null","fixation","html-keyboard-response","6","188891","0.0-6.0-0.0","2537313","co39346","norming","","","","","","",""
"null","../img/tt/435tt.jpg","null","mooney1","image-keyboard-response","7","191894","0.0-6.0-1.0","2537313","co39346","norming","","","","","","",""
"10375","","","post_mooney1_questions","survey-likert","8","202270","0.0-6.0-2.0","2537313","co39346","norming","","","{""curiosity"":5,""confidence"":1}","[0,1]","../img/tt/435tt.jpg","",""
"6440","","","recognition","survey-text","9","208715","0.0-6.0-3.0","2537313","co39346","norming","","","{""guess"":""human""}","","../img/tt/435tt.jpg","",""
"null","../img/gs/435gs.jpg","null","reveal","image-keyboard-response","10","210717","0.0-6.0-4.0","2537313","co39346","norming","","","","","","",""
"null","../img/tt/435tt.jpg","null","mooney2","image-keyboard-response","11","212719","0.0-6.0-5.0","2537313","co39346","norming","","","","","","",""
"8822","","","post_reveal_questions","survey-likert","12","221542","0.0-6.0-6.0","2537313","co39346","norming","","","{""aha"":0}","[0]","../img/tt/435tt.jpg","",""
"null","<div style=""font-size:60px;""> </div>","null","fixation","html-keyboard-response","13","221744","0.0-6.0-0.1","2537313","co39346","norming","","","","","","",""
"null","../img/tt/1126tt.jpg","null","mooney1","image-keyboard-response","14","224747","0.0-6.0-1.1","2537313","co39346","norming","","","","","","",""
"7470","","","post_mooney1_questions","survey-likert","15","232218","0.0-6.0-2.1","2537313","co39346","norming","","","{""curiosity"":4,""confidence"":4}","[0,1]","../img/tt/1126tt.jpg","",""
"5565","","","recognition","survey-text","16","237787","0.0-6.0-3.1","2537313","co39346","norming","","","{""guess"":""dead human""}","","../img/tt/1126tt.jpg","",""
"null","../img/gs/1126gs.jpg","null","reveal","image-keyboard-response","17","239790","0.0-6.0-4.1","2537313","co39346","norming","","","","","","",""
"null","../img/tt/1126tt.jpg","null","mooney2","image-keyboard-response","18","241793","0.0-6.0-5.1","2537313","co39346","norming","","","","","","",""
"2878","","","post_reveal_questions","survey-likert","19","244671","0.0-6.0-6.1","2537313","co39346","norming","","","{""aha"":2}","[0]","../img/tt/1126tt.jpg","",""
"null","<div style=""font-size:60px;""> </div>","null","fixation","html-keyboard-response","20","244872","0.0-6.0-0.2","2537313","co39346","norming","","","","","","",""
"null","../img/tt/1232tt.jpg","null","mooney1","image-keyboard-response","21","247875","0.0-6.0-1.2","2537313","co39346","norming","","","","","","",""
"5313.000000000029","","","post_mooney1_questions","survey-likert","22","253188","0.0-6.0-2.2","2537313","co39346","norming","","","{""curiosity"":2,""confidence"":4}","[0,1]","../img/tt/1232tt.jpg","",""
"2651","","","recognition","survey-text","23","255844","0.0-6.0-3.2","2537313","co39346","norming","","","{""guess"":""bird""}","","../img/tt/1232tt.jpg","",""
"null","../img/gs/1232gs.jpg","null","reveal","image-keyboard-response","24","257846","0.0-6.0-4.2","2537313","co39346","norming","","","","","","",""
"null","../img/tt/1232tt.jpg","null","mooney2","image-keyboard-response","25","259849","0.0-6.0-5.2","2537313","co39346","norming","","","","","","",""
"11711","","","post_reveal_questions","survey-likert","26","271560","0.0-6.0-6.2","2537313","co39346","norming","","","{""aha"":2}","[0]","../img/tt/1232tt.jpg","",""
"null","<div style=""font-size:60px;""> </div>","null","fixation","html-keyboard-response","27","271763","0.0-6.0-0.3","2537313","co39346","norming","","","","","","",""
"null","../img/tt/1261tt.jpg","null","mooney1","image-keyboard-response","28","274766","0.0-6.0-1.3","2537313","co39346","norming","","","","","","",""
"3825","","","post_mooney1_questions","survey-likert","29","278591","0.0-6.0-2.3","2537313","co39346","norming","","","{""curiosity"":6,""confidence"":0}","[0,1]","../img/tt/1261tt.jpg","",""
"1661","","","recognition","survey-text","30","280256","0.0-6.0-3.3","2537313","co39346","norming","","","{""guess"":""""}","","../img/tt/1261tt.jpg","",""
"null","../img/gs/1261gs.jpg","null","reveal","image-keyboard-response","31","282259","0.0-6.0-4.3","2537313","co39346","norming","","","","","","",""
"null","../img/tt/1261tt.jpg","null","mooney2","image-keyboard-response","32","284261","0.0-6.0-5.3","2537313","co39346","norming","","","","","","",""
"4544","","","post_reveal_questions","survey-likert","33","288806","0.0-6.0-6.3","2537313","co39346","norming","","","{""aha"":3}","[0]","../img/tt/1261tt.jpg","",""
"null","<div style=""font-size:60px;""> </div>","null","fixation","html-keyboard-response","34","289008","0.0-6.0-0.4","2537313","co39346","norming","","","","","","",""
"null","../img/tt/1040tt.jpg","null","mooney1","image-keyboard-response","35","292010","0.0-6.0-1.4","2537313","co39346","norming","","","","","","",""
"3198","","","post_mooney1_questions","survey-likert","36","295208","0.0-6.0-2.4","2537313","co39346","norming","","","{""curiosity"":6,""confidence"":0}","[0,1]","../img/tt/1040tt.jpg","",""
"805","","","recognition","survey-text","37","296018","0.0-6.0-3.4","2537313","co39346","norming","","","{""guess"":""""}","","../img/tt/1040tt.jpg","",""
"null","../img/gs/1040gs.jpg","null","reveal","image-keyboard-response","38","298020","0.0-6.0-4.4","2537313","co39346","norming","","","","","","",""
"null","../img/tt/1040tt.jpg","null","mooney2","image-keyboard-response","39","300023","0.0-6.0-5.4","2537313","co39346","norming","","","","","","",""
"3566","","","post_reveal_questions","survey-likert","40","303589","0.0-6.0-6.4","2537313","co39346","norming","","","{""aha"":5}","[0]","../img/tt/1040tt.jpg","",""
"null","<div style=""font-size:60px;""> </div>","null","fixation","html-keyboard-response","41","303791","0.0-6.0-0.5","2537313","co39346","norming","","","","","","",""
"null","../img/tt/098tt.jpg","null","mooney1","image-keyboard-response","42","306794","0.0-6.0-1.5","2537313","co39346","norming","","","","","","",""
"2724","","","post_mooney1_questions","survey-likert","43","309519","0.0-6.0-2.5","2537313","co39346","norming","","","{""curiosity"":6,""confidence"":0}","[0,1]","../img/tt/098tt.jpg","",""
"636","","","recognition","survey-text","44","310159","0.0-6.0-3.5","2537313","co39346","norming","","","{""guess"":""""}","","../img/tt/098tt.jpg","",""
"null","../img/gs/098gs.jpg","null","reveal","image-keyboard-response","45","312162","0.0-6.0-4.5","2537313","co39346","norming","","","","","","",""
"null","../img/tt/098tt.jpg","null","mooney2","image-keyboard-response","46","314163","0.0-6.0-5.5","2537313","co39346","norming","","","","","","",""
"3961","","","post_reveal_questions","survey-likert","47","318124","0.0-6.0-6.5","2537313","co39346","norming","","","{""aha"":3}","[0]","../img/tt/098tt.jpg","",""
"null","<div style=""font-size:60px;""> </div>","null","fixation","html-keyboard-response","48","318327","0.0-6.0-0.6","2537313","co39346","norming","","","","","","",""
"null","../img/tt/412tt.jpg","null","mooney1","image-keyboard-response","49","321330","0.0-6.0-1.6","2537313","co39346","norming","","","","","","",""
"5255.999999999942","","","post_mooney1_questions","survey-likert","50","326586","0.0-6.0-2.6","2537313","co39346","norming","","","{""curiosity"":6,""confidence"":0}","[0,1]","../img/tt/412tt.jpg","",""
"973.0000000000582","","","recognition","survey-text","51","327563","0.0-6.0-3.6","2537313","co39346","norming","","","{""guess"":""""}","","../img/tt/412tt.jpg","",""
"null","../img/gs/412gs.jpg","null","reveal","image-keyboard-response","52","329565","0.0-6.0-4.6","2537313","co39346","norming","","","","","","",""
"null","../img/tt/412tt.jpg","null","mooney2","image-keyboard-response","53","331568","0.0-6.0-5.6","2537313","co39346","norming","","","","","","",""
"4556.999999999942","","","post_reveal_questions","survey-likert","54","336125","0.0-6.0-6.6","2537313","co39346","norming","","","{""aha"":3}","[0]","../img/tt/412tt.jpg","",""
"null","<div style=""font-size:60px;""> </div>","null","fixation","html-keyboard-response","55","336327","0.0-6.0-0.7","2537313","co39346","norming","","","","","","",""
"null","../img/tt/1190tt.jpg","null","mooney1","image-keyboard-response","56","339330","0.0-6.0-1.7","2537313","co39346","norming","","","","","","",""
"4569","","","post_mooney1_questions","survey-likert","57","343899","0.0-6.0-2.7","2537313","co39346","norming","","","{""curiosity"":5,""confidence"":1}","[0,1]","../img/tt/1190tt.jpg","",""
"3686","","","recognition","survey-text","58","347589","0.0-6.0-3.7","2537313","co39346","norming","","","{""guess"":""soldier""}","","../img/tt/1190tt.jpg","",""
"null","../img/gs/1190gs.jpg","null","reveal","image-keyboard-response","59","349592","0.0-6.0-4.7","2537313","co39346","norming","","","","","","",""
"null","../img/tt/1190tt.jpg","null","mooney2","image-keyboard-response","60","351595","0.0-6.0-5.7","2537313","co39346","norming","","","","","","",""
"2632","","","post_reveal_questions","survey-likert","61","354227","0.0-6.0-6.7","2537313","co39346","norming","","","{""aha"":5}","[0]","../img/tt/1190tt.jpg","",""
"null","<div style=""font-size:60px;""> </div>","null","fixation","html-keyboard-response","62","354429","0.0-6.0-0.8","2537313","co39346","norming","","","","","","",""
"null","../img/tt/1200tt.jpg","null","mooney1","image-keyboard-response","63","357432","0.0-6.0-1.8","2537313","co39346","norming","","","","","","",""
"3759","","","post_mooney1_questions","survey-likert","64","361191","0.0-6.0-2.8","2537313","co39346","norming","","","{""curiosity"":5,""confidence"":0}","[0,1]","../img/tt/1200tt.jpg","",""
"716","","","recognition","survey-text","65","361911","0.0-6.0-3.8","2537313","co39346","norming","","","{""guess"":""""}","","../img/tt/1200tt.jpg","",""
"null","../img/gs/1200gs.jpg","null","reveal","image-keyboard-response","66","363913","0.0-6.0-4.8","2537313","co39346","norming","","","","","","",""
"null","../img/tt/1200tt.jpg","null","mooney2","image-keyboard-response","67","365916","0.0-6.0-5.8","2537313","co39346","norming","","","","","","",""
"4544.000000000058","","","post_reveal_questions","survey-likert","68","370461","0.0-6.0-6.8","2537313","co39346","norming","","","{""aha"":6}","[0]","../img/tt/1200tt.jpg","",""
"null","<div style=""font-size:60px;""> </div>","null","fixation","html-keyboard-response","69","370663","0.0-6.0-0.9","2537313","co39346","norming","","","","","","",""
"null","../img/tt/001tt.jpg","null","mooney1","image-keyboard-response","70","373666","0.0-6.0-1.9","2537313","co39346","norming","","","","","","",""
"3399","","","post_mooney1_questions","survey-likert","71","377065","0.0-6.0-2.9","2537313","co39346","norming","","","{""curiosity"":6,""confidence"":0}","[0,1]","../img/tt/001tt.jpg","",""
"682.0000000000582","","","recognition","survey-text","72","377751","0.0-6.0-3.9","2537313","co39346","norming","","","{""guess"":""""}","","../img/tt/001tt.jpg","",""
"null","../img/gs/001gs.jpg","null","reveal","image-keyboard-response","73","379753","0.0-6.0-4.9","2537313","co39346","norming","","","","","","",""
"null","../img/tt/001tt.jpg","null","mooney2","image-keyboard-response","74","381756","0.0-6.0-5.9","2537313","co39346","norming","","","","","","",""
"3734","","","post_reveal_questions","survey-likert","75","385491","0.0-6.0-6.9","2537313","co39346","norming","","","{""aha"":4}","[0]","../img/tt/001tt.jpg","",""
"null","<div style=""font-size:60px;""> </div>","null","fixation","html-keyboard-response","76","385692","0.0-6.0-0.10","2537313","co39346","norming","","","","","","",""
"null","../img/tt/1142tt.jpg","null","mooney1","image-keyboard-response","77","388695","0.0-6.0-1.10","2537313","co39346","norming","","","","","","",""
"3501","","","post_mooney1_questions","survey-likert","78","392197","0.0-6.0-2.10","2537313","co39346","norming","","","{""curiosity"":5,""confidence"":3}","[0,1]","../img/tt/1142tt.jpg","",""
"5419","","","recognition","survey-text","79","397620","0.0-6.0-3.10","2537313","co39346","norming","","","{""guess"":""tennis player""}","","../img/tt/1142tt.jpg","",""
"null","../img/gs/1142gs.jpg","null","reveal","image-keyboard-response","80","399622","0.0-6.0-4.10","2537313","co39346","norming","","","","","","",""
"null","../img/tt/1142tt.jpg","null","mooney2","image-keyboard-response","81","401625","0.0-6.0-5.10","2537313","co39346","norming","","","","","","",""
"3182.999999999942","","","post_reveal_questions","survey-likert","82","404808","0.0-6.0-6.10","2537313","co39346","norming","","","{""aha"":5}","[0]","../img/tt/1142tt.jpg","",""
"null","<div style=""font-size:60px;""> </div>","null","fixation","html-keyboard-response","83","405009","0.0-6.0-0.11","2537313","co39346","norming","","","","","","",""
"null","../img/tt/418tt.jpg","null","mooney1","image-keyboard-response","84","408012","0.0-6.0-1.11","2537313","co39346","norming","","","","","","",""
"4097.999999999942","","","post_mooney1_questions","survey-likert","85","412110","0.0-6.0-2.11","2537313","co39346","norming","","","{""curiosity"":5,""confidence"":1}","[0,1]","../img/tt/418tt.jpg","",""
"2145","","","recognition","survey-text","86","414259","0.0-6.0-3.11","2537313","co39346","norming","","","{""guess"":""plant""}","","../img/tt/418tt.jpg","",""
"null","../img/gs/418gs.jpg","null","reveal","image-keyboard-response","87","416261","0.0-6.0-4.11","2537313","co39346","norming","","","","","","",""
"null","../img/tt/418tt.jpg","null","mooney2","image-keyboard-response","88","418264","0.0-6.0-5.11","2537313","co39346","norming","","","","","","",""
"4275","","","post_reveal_questions","survey-likert","89","422539","0.0-6.0-6.11","2537313","co39346","norming","","","{""aha"":5}","[0]","../img/tt/418tt.jpg","",""
"null","<div style=""font-size:60px;""> </div>","null","fixation","html-keyboard-response","90","422741","0.0-6.0-0.12","2537313","co39346","norming","","","","","","",""
"null","../img/tt/1078tt.jpg","null","mooney1","image-keyboard-response","91","425744","0.0-6.0-1.12","2537313","co39346","norming","","","","","","",""
"8562.999999999942","","","post_mooney1_questions","survey-likert","92","434307","0.0-6.0-2.12","2537313","co39346","norming","","","{""curiosity"":5,""confidence"":2}","[0,1]","../img/tt/1078tt.jpg","",""
"5992","","","recognition","survey-text","93","440304","0.0-6.0-3.12","2537313","co39346","norming","","","{""guess"":""people chilling""}","","../img/tt/1078tt.jpg","",""
"null","../img/gs/1078gs.jpg","null","reveal","image-keyboard-response","94","442306","0.0-6.0-4.12","2537313","co39346","norming","","","","","","",""
"null","../img/tt/1078tt.jpg","null","mooney2","image-keyboard-response","95","444309","0.0-6.0-5.12","2537313","co39346","norming","","","","","","",""
"2316.999999999942","","","post_reveal_questions","survey-likert","96","446626","0.0-6.0-6.12","2537313","co39346","norming","","","{""aha"":5}","[0]","../img/tt/1078tt.jpg","",""
"null","<div style=""font-size:60px;""> </div>","null","fixation","html-keyboard-response","97","446827","0.0-6.0-0.13","2537313","co39346","norming","","","","","","",""
"null","../img/tt/552tt.jpg","null","mooney1","image-keyboard-response","98","449829","0.0-6.0-1.13","2537313","co39346","norming","","","","","","",""
"4525","","","post_mooney1_questions","survey-likert","99","454355","0.0-6.0-2.13","2537313","co39346","norming","","","{""curiosity"":5,""confidence"":1}","[0,1]","../img/tt/552tt.jpg","",""
"2596","","","recognition","survey-text","100","456955","0.0-6.0-3.13","2537313","co39346","norming","","","{""guess"":""toilet""}","","../img/tt/552tt.jpg","",""
"null","../img/gs/552gs.jpg","null","reveal","image-keyboard-response","101","458957","0.0-6.0-4.13","2537313","co39346","norming","","","","","","",""
"null","../img/tt/552tt.jpg","null","mooney2","image-keyboard-response","102","460958","0.0-6.0-5.13","2537313","co39346","norming","","","","","","",""
"3059","","","post_reveal_questions","survey-likert","103","464019","0.0-6.0-6.13","2537313","co39346","norming","","","{""aha"":6}","[0]","../img/tt/552tt.jpg","",""
"null","<div style=""font-size:60px;""> </div>","null","fixation","html-keyboard-response","104","464221","0.0-6.0-0.14","2537313","co39346","norming","","","","","","",""
"null","../img/tt/559tt.jpg","null","mooney1","image-keyboard-response","105","467224","0.0-6.0-1.14","2537313","co39346","norming","","","","","","",""
"5108.999999999942","","","post_mooney1_questions","survey-likert","106","472333","0.0-6.0-2.14","2537313","co39346","norming","","","{""curiosity"":6,""confidence"":1}","[0,1]","../img/tt/559tt.jpg","",""
"4079.999999999942","","","recognition","survey-text","107","476417","0.0-6.0-3.14","2537313","co39346","norming","","","{""guess"":""vehicle""}","","../img/tt/559tt.jpg","",""
"null","../img/gs/559gs.jpg","null","reveal","image-keyboard-response","108","478420","0.0-6.0-4.14","2537313","co39346","norming","","","","","","",""
"null","../img/tt/559tt.jpg","null","mooney2","image-keyboard-response","109","480423","0.0-6.0-5.14","2537313","co39346","norming","","","","","","",""
"3678","","","post_reveal_questions","survey-likert","110","484101","0.0-6.0-6.14","2537313","co39346","norming","","","{""aha"":4}","[0]","../img/tt/559tt.jpg","",""
"null","<div style=""font-size:60px;""> </div>","null","fixation","html-keyboard-response","111","484304","0.0-6.0-0.15","2537313","co39346","norming","","","","","","",""
"null","../img/tt/567tt.jpg","null","mooney1","image-keyboard-response","112","487306","0.0-6.0-1.15","2537313","co39346","norming","","","","","","",""
"4017","","","post_mooney1_questions","survey-likert","113","491323","0.0-6.0-2.15","2537313","co39346","norming","","","{""curiosity"":6,""confidence"":0}","[0,1]","../img/tt/567tt.jpg","",""
"637","","","recognition","survey-text","114","491965","0.0-6.0-3.15","2537313","co39346","norming","","","{""guess"":""""}","","../img/tt/567tt.jpg","",""
"null","../img/gs/567gs.jpg","null","reveal","image-keyboard-response","115","493967","0.0-6.0-4.15","2537313","co39346","norming","","","","","","",""
"null","../img/tt/567tt.jpg","null","mooney2","image-keyboard-response","116","495969","0.0-6.0-5.15","2537313","co39346","norming","","","","","","",""
"3207","","","post_reveal_questions","survey-likert","117","499176","0.0-6.0-6.15","2537313","co39346","norming","","","{""aha"":5}","[0]","../img/tt/567tt.jpg","",""
"null","<div style=""font-size:60px;""> </div>","null","fixation","html-keyboard-response","118","499378","0.0-6.0-0.16","2537313","co39346","norming","","","","","","",""
"null","../img/tt/1125tt.jpg","null","mooney1","image-keyboard-response","119","502381","0.0-6.0-1.16","2537313","co39346","norming","","","","","","",""
"3095","","","post_mooney1_questions","survey-likert","120","505476","0.0-6.0-2.16","2537313","co39346","norming","","","{""curiosity"":6,""confidence"":0}","[0,1]","../img/tt/1125tt.jpg","",""
"761","","","recognition","survey-text","121","506241","0.0-6.0-3.16","2537313","co39346","norming","","","{""guess"":""""}","","../img/tt/1125tt.jpg","",""
"null","../img/gs/1125gs.jpg","null","reveal","image-keyboard-response","122","508244","0.0-6.0-4.16","2537313","co39346","norming","","","","","","",""
"null","../img/tt/1125tt.jpg","null","mooney2","image-keyboard-response","123","510245","0.0-6.0-5.16","2537313","co39346","norming","","","","","","",""
"3611.999999999942","","","post_reveal_questions","survey-likert","124","513858","0.0-6.0-6.16","2537313","co39346","norming","","","{""aha"":5}","[0]","../img/tt/1125tt.jpg","",""
"null","<div style=""font-size:60px;""> </div>","null","fixation","html-keyboard-response","125","514060","0.0-6.0-0.17","2537313","co39346","norming","","","","","","",""
"null","../img/tt/1269tt.jpg","null","mooney1","image-keyboard-response","126","517063","0.0-6.0-1.17","2537313","co39346","norming","","","","","","",""
"5017.999999999942","","","post_mooney1_questions","survey-likert","127","522082","0.0-6.0-2.17","2537313","co39346","norming","","","{""curiosity"":5,""confidence"":2}","[0,1]","../img/tt/1269tt.jpg","",""
"2180","","","recognition","survey-text","128","524265","0.0-6.0-3.17","2537313","co39346","norming","","","{""guess"":""cat""}","","../img/tt/1269tt.jpg","",""
"null","../img/gs/1269gs.jpg","null","reveal","image-keyboard-response","129","526268","0.0-6.0-4.17","2537313","co39346","norming","","","","","","",""
"null","../img/tt/1269tt.jpg","null","mooney2","image-keyboard-response","130","528270","0.0-6.0-5.17","2537313","co39346","norming","","","","","","",""
"4284","","","post_reveal_questions","survey-likert","131","532555","0.0-6.0-6.17","2537313","co39346","norming","","","{""aha"":6}","[0]","../img/tt/1269tt.jpg","",""
"null","<div style=""font-size:60px;""> </div>","null","fixation","html-keyboard-response","132","532756","0.0-6.0-0.18","2537313","co39346","norming","","","","","","",""
"null","../img/tt/306tt.jpg","null","mooney1","image-keyboard-response","133","535757","0.0-6.0-1.18","2537313","co39346","norming","","","","","","",""
"2895","","","post_mooney1_questions","survey-likert","134","538653","0.0-6.0-2.18","2537313","co39346","norming","","","{""curiosity"":6,""confidence"":0}","[0,1]","../img/tt/306tt.jpg","",""
"547","","","recognition","survey-text","135","539204","0.0-6.0-3.18","2537313","co39346","norming","","","{""guess"":""""}","","../img/tt/306tt.jpg","",""
"null","../img/gs/306gs.jpg","null","reveal","image-keyboard-response","136","541207","0.0-6.0-4.18","2537313","co39346","norming","","","","","","",""
"null","../img/tt/306tt.jpg","null","mooney2","image-keyboard-response","137","543209","0.0-6.0-5.18","2537313","co39346","norming","","","","","","",""
"3173","","","post_reveal_questions","survey-likert","138","546383","0.0-6.0-6.18","2537313","co39346","norming","","","{""aha"":5}","[0]","../img/tt/306tt.jpg","",""
"null","<div style=""font-size:60px;""> </div>","null","fixation","html-keyboard-response","139","546585","0.0-6.0-0.19","2537313","co39346","norming","","","","","","",""
"null","../img/tt/477tt.jpg","null","mooney1","image-keyboard-response","140","549587","0.0-6.0-1.19","2537313","co39346","norming","","","","","","",""
"4220","","","post_mooney1_questions","survey-likert","141","553808","0.0-6.0-2.19","2537313","co39346","norming","","","{""curiosity"":5,""confidence"":2}","[0,1]","../img/tt/477tt.jpg","",""
"2336.9999999998836","","","recognition","survey-text","142","556148","0.0-6.0-3.19","2537313","co39346","norming","","","{""guess"":""cat""}","","../img/tt/477tt.jpg","",""
"null","../img/gs/477gs.jpg","null","reveal","image-keyboard-response","143","558151","0.0-6.0-4.19","2537313","co39346","norming","","","","","","",""
"null","../img/tt/477tt.jpg","null","mooney2","image-keyboard-response","144","560154","0.0-6.0-5.19","2537313","co39346","norming","","","","","","",""
"3329","","","post_reveal_questions","survey-likert","145","563483","0.0-6.0-6.19","2537313","co39346","norming","","","{""aha"":5}","[0]","../img/tt/477tt.jpg","",""
"null","<div style=""font-size:60px;""> </div>","null","fixation","html-keyboard-response","146","563685","0.0-6.0-0.20","2537313","co39346","norming","","","","","","",""
"null","../img/tt/599tt.jpg","null","mooney1","image-keyboard-response","147","566687","0.0-6.0-1.20","2537313","co39346","norming","","","","","","",""
"5222","","","post_mooney1_questions","survey-likert","148","571910","0.0-6.0-2.20","2537313","co39346","norming","","","{""curiosity"":6,""confidence"":0}","[0,1]","../img/tt/599tt.jpg","",""
"1447","","","recognition","survey-text","149","573361","0.0-6.0-3.20","2537313","co39346","norming","","","{""guess"":""""}","","../img/tt/599tt.jpg","",""
"null","../img/gs/599gs.jpg","null","reveal","image-keyboard-response","150","575363","0.0-6.0-4.20","2537313","co39346","norming","","","","","","",""
"null","../img/tt/599tt.jpg","null","mooney2","image-keyboard-response","151","577366","0.0-6.0-5.20","2537313","co39346","norming","","","","","","",""
"2800","","","post_reveal_questions","survey-likert","152","580167","0.0-6.0-6.20","2537313","co39346","norming","","","{""aha"":6}","[0]","../img/tt/599tt.jpg","",""
"null","<div style=""font-size:60px;""> </div>","null","fixation","html-keyboard-response","153","580369","0.0-6.0-0.21","2537313","co39346","norming","","","","","","",""
"null","../img/tt/060tt.jpg","null","mooney1","image-keyboard-response","154","583371","0.0-6.0-1.21","2537313","co39346","norming","","","","","","",""
"4637","","","post_mooney1_questions","survey-likert","155","588009","0.0-6.0-2.21","2537313","co39346","norming","","","{""curiosity"":6,""confidence"":0}","[0,1]","../img/tt/060tt.jpg","",""
"839","","","recognition","survey-text","156","588852","0.0-6.0-3.21","2537313","co39346","norming","","","{""guess"":""""}","","../img/tt/060tt.jpg","",""
"null","../img/gs/060gs.jpg","null","reveal","image-keyboard-response","157","590854","0.0-6.0-4.21","2537313","co39346","norming","","","","","","",""
"null","../img/tt/060tt.jpg","null","mooney2","image-keyboard-response","158","592856","0.0-6.0-5.21","2537313","co39346","norming","","","","","","",""
"3151","","","post_reveal_questions","survey-likert","159","596008","0.0-6.0-6.21","2537313","co39346","norming","","","{""aha"":6}","[0]","../img/tt/060tt.jpg","",""
"null","<div style=""font-size:60px;""> </div>","null","fixation","html-keyboard-response","160","596209","0.0-6.0-0.22","2537313","co39346","norming","","","","","","",""
"null","../img/tt/007tt.jpg","null","mooney1","image-keyboard-response","161","599211","0.0-6.0-1.22","2537313","co39346","norming","","","","","","",""
"4728","","","post_mooney1_questions","survey-likert","162","603940","0.0-6.0-2.22","2537313","co39346","norming","","","{""curiosity"":6,""confidence"":0}","[0,1]","../img/tt/007tt.jpg","",""
"929","","","recognition","survey-text","163","604873","0.0-6.0-3.22","2537313","co39346","norming","","","{""guess"":""""}","","../img/tt/007tt.jpg","",""
"null","../img/gs/007gs.jpg","null","reveal","image-keyboard-response","164","606876","0.0-6.0-4.22","2537313","co39346","norming","","","","","","",""
"null","../img/tt/007tt.jpg","null","mooney2","image-keyboard-response","165","608877","0.0-6.0-5.22","2537313","co39346","norming","","","","","","",""
"3926.0000000001164","","","post_reveal_questions","survey-likert","166","612804","0.0-6.0-6.22","2537313","co39346","norming","","","{""aha"":5}","[0]","../img/tt/007tt.jpg","",""
"null","<div style=""font-size:60px;""> </div>","null","fixation","html-keyboard-response","167","613006","0.0-6.0-0.23","2537313","co39346","norming","","","","","","",""
"null","../img/tt/1268tt.jpg","null","mooney1","image-keyboard-response","168","616009","0.0-6.0-1.23","2537313","co39346","norming","","","","","","",""
"4253","","","post_mooney1_questions","survey-likert","169","620264","0.0-6.0-2.23","2537313","co39346","norming","","","{""curiosity"":6,""confidence"":0}","[0,1]","../img/tt/1268tt.jpg","",""
"953","","","recognition","survey-text","170","621220","0.0-6.0-3.23","2537313","co39346","norming","","","{""guess"":""""}","","../img/tt/1268tt.jpg","",""
"null","../img/gs/1268gs.jpg","null","reveal","image-keyboard-response","171","623223","0.0-6.0-4.23","2537313","co39346","norming","","","","","","",""
"null","../img/tt/1268tt.jpg","null","mooney2","image-keyboard-response","172","625225","0.0-6.0-5.23","2537313","co39346","norming","","","","","","",""
"2283","","","post_reveal_questions","survey-likert","173","627508","0.0-6.0-6.23","2537313","co39346","norming","","","{""aha"":6}","[0]","../img/tt/1268tt.jpg","",""
"null","<div style=""font-size:60px;""> </div>","null","fixation","html-keyboard-response","174","627710","0.0-6.0-0.24","2537313","co39346","norming","","","","","","",""
"null","../img/tt/111tt.jpg","null","mooney1","image-keyboard-response","175","630712","0.0-6.0-1.24","2537313","co39346","norming","","","","","","",""
"4096.999999999884","","","post_mooney1_questions","survey-likert","176","634810","0.0-6.0-2.24","2537313","co39346","norming","","","{""curiosity"":6,""confidence"":0}","[0,1]","../img/tt/111tt.jpg","",""
"2112","","","recognition","survey-text","177","636925","0.0-6.0-3.24","2537313","co39346","norming","","","{""guess"":""tool""}","","../img/tt/111tt.jpg","",""
"null","../img/gs/111gs.jpg","null","reveal","image-keyboard-response","178","638928","0.0-6.0-4.24","2537313","co39346","norming","","","","","","",""
"null","../img/tt/111tt.jpg","null","mooney2","image-keyboard-response","179","640931","0.0-6.0-5.24","2537313","co39346","norming","","","","","","",""
"3588","","","post_reveal_questions","survey-likert","180","644519","0.0-6.0-6.24","2537313","co39346","norming","","","{""aha"":6}","[0]","../img/tt/111tt.jpg","",""
"null","<div style=""font-size:60px;""> </div>","null","fixation","html-keyboard-response","181","644721","0.0-6.0-0.25","2537313","co39346","norming","","","","","","",""
"null","../img/tt/584tt.jpg","null","mooney1","image-keyboard-response","182","647724","0.0-6.0-1.25","2537313","co39346","norming","","","","","","",""
"6222","","","post_mooney1_questions","survey-likert","183","653947","0.0-6.0-2.25","2537313","co39346","norming","","","{""curiosity"":3,""confidence"":4}","[0,1]","../img/tt/584tt.jpg","",""
"4192","","","recognition","survey-text","184","658143","0.0-6.0-3.25","2537313","co39346","norming","","","{""guess"":""hands""}","","../img/tt/584tt.jpg","",""
"null","../img/gs/584gs.jpg","null","reveal","image-keyboard-response","185","660146","0.0-6.0-4.25","2537313","co39346","norming","","","","","","",""
"null","../img/tt/584tt.jpg","null","mooney2","image-keyboard-response","186","662148","0.0-6.0-5.25","2537313","co39346","norming","","","","","","",""
"5220","","","post_reveal_questions","survey-likert","187","667369","0.0-6.0-6.25","2537313","co39346","norming","","","{""aha"":5}","[0]","../img/tt/584tt.jpg","",""
"null","<div style=""font-size:60px;""> </div>","null","fixation","html-keyboard-response","188","667571","0.0-6.0-0.26","2537313","co39346","norming","","","","","","",""
"null","../img/tt/036tt.jpg","null","mooney1","image-keyboard-response","189","670574","0.0-6.0-1.26","2537313","co39346","norming","","","","","","",""
"4916","","","post_mooney1_questions","survey-likert","190","675491","0.0-6.0-2.26","2537313","co39346","norming","","","{""curiosity"":5,""confidence"":1}","[0,1]","../img/tt/036tt.jpg","",""
"5645","","","recognition","survey-text","191","681140","0.0-6.0-3.26","2537313","co39346","norming","","","{""guess"":""tree branches""}","","../img/tt/036tt.jpg","",""
"null","../img/gs/036gs.jpg","null","reveal","image-keyboard-response","192","683143","0.0-6.0-4.26","2537313","co39346","norming","","","","","","",""
"null","../img/tt/036tt.jpg","null","mooney2","image-keyboard-response","193","685146","0.0-6.0-5.26","2537313","co39346","norming","","","","","","",""
"3350","","","post_reveal_questions","survey-likert","194","688496","0.0-6.0-6.26","2537313","co39346","norming","","","{""aha"":5}","[0]","../img/tt/036tt.jpg","",""
"null","<div style=""font-size:60px;""> </div>","null","fixation","html-keyboard-response","195","688699","0.0-6.0-0.27","2537313","co39346","norming","","","","","","",""
"null","../img/tt/438tt.jpg","null","mooney1","image-keyboard-response","196","691702","0.0-6.0-1.27","2537313","co39346","norming","","","","","","",""
"3533","","","post_mooney1_questions","survey-likert","197","695236","0.0-6.0-2.27","2537313","co39346","norming","","","{""curiosity"":6,""confidence"":0}","[0,1]","../img/tt/438tt.jpg","",""
"795","","","recognition","survey-text","198","696034","0.0-6.0-3.27","2537313","co39346","norming","","","{""guess"":""""}","","../img/tt/438tt.jpg","",""
"null","../img/gs/438gs.jpg","null","reveal","image-keyboard-response","199","698036","0.0-6.0-4.27","2537313","co39346","norming","","","","","","",""
"null","../img/tt/438tt.jpg","null","mooney2","image-keyboard-response","200","700038","0.0-6.0-5.27","2537313","co39346","norming","","","","","","",""
"2318","","","post_reveal_questions","survey-likert","201","702357","0.0-6.0-6.27","2537313","co39346","norming","","","{""aha"":5}","[0]","../img/tt/438tt.jpg","",""
"null","<div style=""font-size:60px;""> </div>","null","fixation","html-keyboard-response","202","702559","0.0-6.0-0.28","2537313","co39346","norming","","","","","","",""
"null","../img/tt/1043tt.jpg","null","mooney1","image-keyboard-response","203","705562","0.0-6.0-1.28","2537313","co39346","norming","","","","","","",""
"3814","","","post_mooney1_questions","survey-likert","204","709377","0.0-6.0-2.28","2537313","co39346","norming","","","{""curiosity"":6,""confidence"":0}","[0,1]","../img/tt/1043tt.jpg","",""
"570","","","recognition","survey-text","205","709951","0.0-6.0-3.28","2537313","co39346","norming","","","{""guess"":""""}","","../img/tt/1043tt.jpg","",""
"null","../img/gs/1043gs.jpg","null","reveal","image-keyboard-response","206","711952","0.0-6.0-4.28","2537313","co39346","norming","","","","","","",""
"null","../img/tt/1043tt.jpg","null","mooney2","image-keyboard-response","207","713955","0.0-6.0-5.28","2537313","co39346","norming","","","","","","",""
"2430","","","post_reveal_questions","survey-likert","208","716386","0.0-6.0-6.28","2537313","co39346","norming","","","{""aha"":5}","[0]","../img/tt/1043tt.jpg","",""
"null","<div style=""font-size:60px;""> </div>","null","fixation","html-keyboard-response","209","716588","0.0-6.0-0.29","2537313","co39346","norming","","","","","","",""
"null","../img/tt/118tt.jpg","null","mooney1","image-keyboard-response","210","719591","0.0-6.0-1.29","2537313","co39346","norming","","","","","","",""
"3590","","","post_mooney1_questions","survey-likert","211","723181","0.0-6.0-2.29","2537313","co39346","norming","","","{""curiosity"":6,""confidence"":1}","[0,1]","../img/tt/118tt.jpg","",""
"5048","","","recognition","survey-text","212","728233","0.0-6.0-3.29","2537313","co39346","norming","","","{""guess"":""staircase""}","","../img/tt/118tt.jpg","",""
"null","../img/gs/118gs.jpg","null","reveal","image-keyboard-response","213","730236","0.0-6.0-4.29","2537313","co39346","norming","","","","","","",""
"null","../img/tt/118tt.jpg","null","mooney2","image-keyboard-response","214","732237","0.0-6.0-5.29","2537313","co39346","norming","","","","","","",""
"4961.000000000116","","","post_reveal_questions","survey-likert","215","737199","0.0-6.0-6.29","2537313","co39346","norming","","","{""aha"":0}","[0]","../img/tt/118tt.jpg","",""
"null","<div style=""font-size:60px;""> </div>","null","fixation","html-keyboard-response","216","737400","0.0-6.0-0.30","2537313","co39346","norming","","","","","","",""
"null","../img/tt/1072tt.jpg","null","mooney1","image-keyboard-response","217","740403","0.0-6.0-1.30","2537313","co39346","norming","","","","","","",""
"3039","","","post_mooney1_questions","survey-likert","218","743443","0.0-6.0-2.30","2537313","co39346","norming","","","{""curiosity"":6,""confidence"":0}","[0,1]","../img/tt/1072tt.jpg","",""
"884","","","recognition","survey-text","219","744332","0.0-6.0-3.30","2537313","co39346","norming","","","{""guess"":""""}","","../img/tt/1072tt.jpg","",""
"null","../img/gs/1072gs.jpg","null","reveal","image-keyboard-response","220","746335","0.0-6.0-4.30","2537313","co39346","norming","","","","","","",""
"null","../img/tt/1072tt.jpg","null","mooney2","image-keyboard-response","221","748337","0.0-6.0-5.30","2537313","co39346","norming","","","","","","",""
"2992","","","post_reveal_questions","survey-likert","222","751329","0.0-6.0-6.30","2537313","co39346","norming","","","{""aha"":4}","[0]","../img/tt/1072tt.jpg","",""
"null","<div style=""font-size:60px;""> </div>","null","fixation","html-keyboard-response","223","751532","0.0-6.0-0.31","2537313","co39346","norming","","","","","","",""
"null","../img/tt/1154tt.jpg","null","mooney1","image-keyboard-response","224","754535","0.0-6.0-1.31","2537313","co39346","norming","","","","","","",""
"3983","","","post_mooney1_questions","survey-likert","225","758519","0.0-6.0-2.31","2537313","co39346","norming","","","{""curiosity"":5,""confidence"":1}","[0,1]","../img/tt/1154tt.jpg","",""
"2416","","","recognition","survey-text","226","760938","0.0-6.0-3.31","2537313","co39346","norming","","","{""guess"":""kajak""}","","../img/tt/1154tt.jpg","",""
"null","../img/gs/1154gs.jpg","null","reveal","image-keyboard-response","227","762941","0.0-6.0-4.31","2537313","co39346","norming","","","","","","",""
"null","../img/tt/1154tt.jpg","null","mooney2","image-keyboard-response","228","764944","0.0-6.0-5.31","2537313","co39346","norming","","","","","","",""
"3665","","","post_reveal_questions","survey-likert","229","768610","0.0-6.0-6.31","2537313","co39346","norming","","","{""aha"":2}","[0]","../img/tt/1154tt.jpg","",""
"null","<div style=""font-size:60px;""> </div>","null","fixation","html-keyboard-response","230","768812","0.0-6.0-0.32","2537313","co39346","norming","","","","","","",""
"null","../img/tt/1241tt.jpg","null","mooney1","image-keyboard-response","231","771814","0.0-6.0-1.32","2537313","co39346","norming","","","","","","",""
"3770","","","post_mooney1_questions","survey-likert","232","775585","0.0-6.0-2.32","2537313","co39346","norming","","","{""curiosity"":5,""confidence"":1}","[0,1]","../img/tt/1241tt.jpg","",""
"1683","","","recognition","survey-text","233","777273","0.0-6.0-3.32","2537313","co39346","norming","","","{""guess"":""dog""}","","../img/tt/1241tt.jpg","",""
"null","../img/gs/1241gs.jpg","null","reveal","image-keyboard-response","234","779274","0.0-6.0-4.32","2537313","co39346","norming","","","","","","",""
"null","../img/tt/1241tt.jpg","null","mooney2","image-keyboard-response","235","781277","0.0-6.0-5.32","2537313","co39346","norming","","","","","","",""
"2509","","","post_reveal_questions","survey-likert","236","783787","0.0-6.0-6.32","2537313","co39346","norming","","","{""aha"":4}","[0]","../img/tt/1241tt.jpg","",""
"null","<div style=""font-size:60px;""> </div>","null","fixation","html-keyboard-response","237","783989","0.0-6.0-0.33","2537313","co39346","norming","","","","","","",""
"null","../img/tt/1226tt.jpg","null","mooney1","image-keyboard-response","238","786992","0.0-6.0-1.33","2537313","co39346","norming","","","","","","",""
"4050.0000000001164","","","post_mooney1_questions","survey-likert","239","791044","0.0-6.0-2.33","2537313","co39346","norming","","","{""curiosity"":6,""confidence"":0}","[0,1]","../img/tt/1226tt.jpg","",""
"1333.9999999998836","","","recognition","survey-text","240","792382","0.0-6.0-3.33","2537313","co39346","norming","","","{""guess"":""""}","","../img/tt/1226tt.jpg","",""
"null","../img/gs/1226gs.jpg","null","reveal","image-keyboard-response","241","794384","0.0-6.0-4.33","2537313","co39346","norming","","","","","","",""
"null","../img/tt/1226tt.jpg","null","mooney2","image-keyboard-response","242","796386","0.0-6.0-5.33","2537313","co39346","norming","","","","","","",""
"2441","","","post_reveal_questions","survey-likert","243","798828","0.0-6.0-6.33","2537313","co39346","norming","","","{""aha"":6}","[0]","../img/tt/1226tt.jpg","",""
"null","<div style=""font-size:60px;""> </div>","null","fixation","html-keyboard-response","244","799031","0.0-6.0-0.34","2537313","co39346","norming","","","","","","",""
"null","../img/tt/1262tt.jpg","null","mooney1","image-keyboard-response","245","802034","0.0-6.0-1.34","2537313","co39346","norming","","","","","","",""
"3173","","","post_mooney1_questions","survey-likert","246","805207","0.0-6.0-2.34","2537313","co39346","norming","","","{""curiosity"":6,""confidence"":0}","[0,1]","../img/tt/1262tt.jpg","",""
"2652","","","recognition","survey-text","247","807864","0.0-6.0-3.34","2537313","co39346","norming","","","{""guess"":""animal""}","","../img/tt/1262tt.jpg","",""
"null","../img/gs/1262gs.jpg","null","reveal","image-keyboard-response","248","809866","0.0-6.0-4.34","2537313","co39346","norming","","","","","","",""
"null","../img/tt/1262tt.jpg","null","mooney2","image-keyboard-response","249","811869","0.0-6.0-5.34","2537313","co39346","norming","","","","","","",""
"2810.9999999998836","","","post_reveal_questions","survey-likert","250","814680","0.0-6.0-6.34","2537313","co39346","norming","","","{""aha"":6}","[0]","../img/tt/1262tt.jpg","",""
"null","<div style=""font-size:60px;""> </div>","null","fixation","html-keyboard-response","251","814882","0.0-6.0-0.35","2537313","co39346","norming","","","","","","",""
"null","../img/tt/1116tt.jpg","null","mooney1","image-keyboard-response","252","817885","0.0-6.0-1.35","2537313","co39346","norming","","","","","","",""
"3938","","","post_mooney1_questions","survey-likert","253","821824","0.0-6.0-2.35","2537313","co39346","norming","","","{""curiosity"":6,""confidence"":2}","[0,1]","../img/tt/1116tt.jpg","",""
"3170","","","recognition","survey-text","254","824998","0.0-6.0-3.35","2537313","co39346","norming","","","{""guess"":""boats""}","","../img/tt/1116tt.jpg","",""
"null","../img/gs/1116gs.jpg","null","reveal","image-keyboard-response","255","827001","0.0-6.0-4.35","2537313","co39346","norming","","","","","","",""
"null","../img/tt/1116tt.jpg","null","mooney2","image-keyboard-response","256","829003","0.0-6.0-5.35","2537313","co39346","norming","","","","","","",""
"2607.9999999998836","","","post_reveal_questions","survey-likert","257","831611","0.0-6.0-6.35","2537313","co39346","norming","","","{""aha"":5}","[0]","../img/tt/1116tt.jpg","",""
"null","<div style=""font-size:60px;""> </div>","null","fixation","html-keyboard-response","258","831812","0.0-6.0-0.36","2537313","co39346","norming","","","","","","",""
"null","../img/tt/1247tt.jpg","null","mooney1","image-keyboard-response","259","834815","0.0-6.0-1.36","2537313","co39346","norming","","","","","","",""
"3433.9999999998836","","","post_mooney1_questions","survey-likert","260","838250","0.0-6.0-2.36","2537313","co39346","norming","","","{""curiosity"":6,""confidence"":0}","[0,1]","../img/tt/1247tt.jpg","",""
"1019","","","recognition","survey-text","261","839273","0.0-6.0-3.36","2537313","co39346","norming","","","{""guess"":""""}","","../img/tt/1247tt.jpg","",""
"null","../img/gs/1247gs.jpg","null","reveal","image-keyboard-response","262","841275","0.0-6.0-4.36","2537313","co39346","norming","","","","","","",""
"null","../img/tt/1247tt.jpg","null","mooney2","image-keyboard-response","263","843277","0.0-6.0-5.36","2537313","co39346","norming","","","","","","",""
"18136","","","post_reveal_questions","survey-likert","264","861414","0.0-6.0-6.36","2537313","co39346","norming","","","{""aha"":4}","[0]","../img/tt/1247tt.jpg","",""
"null","<div style=""font-size:60px;""> </div>","null","fixation","html-keyboard-response","265","861616","0.0-6.0-0.37","2537313","co39346","norming","","","","","","",""
"null","../img/tt/079tt.jpg","null","mooney1","image-keyboard-response","266","864619","0.0-6.0-1.37","2537313","co39346","norming","","","","","","",""
"3848","","","post_mooney1_questions","survey-likert","267","868468","0.0-6.0-2.37","2537313","co39346","norming","","","{""curiosity"":6,""confidence"":2}","[0,1]","../img/tt/079tt.jpg","",""
"2405","","","recognition","survey-text","268","870876","0.0-6.0-3.37","2537313","co39346","norming","","","{""guess"":""bear""}","","../img/tt/079tt.jpg","",""
"null","../img/gs/079gs.jpg","null","reveal","image-keyboard-response","269","872879","0.0-6.0-4.37","2537313","co39346","norming","","","","","","",""
"null","../img/tt/079tt.jpg","null","mooney2","image-keyboard-response","270","874881","0.0-6.0-5.37","2537313","co39346","norming","","","","","","",""
"3339","","","post_reveal_questions","survey-likert","271","878221","0.0-6.0-6.37","2537313","co39346","norming","","","{""aha"":3}","[0]","../img/tt/079tt.jpg","",""
"null","<div style=""font-size:60px;""> </div>","null","fixation","html-keyboard-response","272","878423","0.0-6.0-0.38","2537313","co39346","norming","","","","","","",""
"null","../img/tt/1027tt.jpg","null","mooney1","image-keyboard-response","273","881426","0.0-6.0-1.38","2537313","co39346","norming","","","","","","",""
"3286.0000000001164","","","post_mooney1_questions","survey-likert","274","884713","0.0-6.0-2.38","2537313","co39346","norming","","","{""curiosity"":5,""confidence"":2}","[0,1]","../img/tt/1027tt.jpg","",""
"2776","","","recognition","survey-text","275","887493","0.0-6.0-3.38","2537313","co39346","norming","","","{""guess"":""horses""}","","../img/tt/1027tt.jpg","",""
"null","../img/gs/1027gs.jpg","null","reveal","image-keyboard-response","276","889496","0.0-6.0-4.38","2537313","co39346","norming","","","","","","",""
"null","../img/tt/1027tt.jpg","null","mooney2","image-keyboard-response","277","891498","0.0-6.0-5.38","2537313","co39346","norming","","","","","","",""
"2834","","","post_reveal_questions","survey-likert","278","894333","0.0-6.0-6.38","2537313","co39346","norming","","","{""aha"":5}","[0]","../img/tt/1027tt.jpg","",""
"null","<div style=""font-size:60px;""> </div>","null","fixation","html-keyboard-response","279","894535","0.0-6.0-0.39","2537313","co39346","norming","","","","","","",""
"null","../img/tt/184tt.jpg","null","mooney1","image-keyboard-response","280","897538","0.0-6.0-1.39","2537313","co39346","norming","","","","","","",""
"3488","","","post_mooney1_questions","survey-likert","281","901027","0.0-6.0-2.39","2537313","co39346","norming","","","{""curiosity"":6,""confidence"":0}","[0,1]","../img/tt/184tt.jpg","",""
"2629","","","recognition","survey-text","282","903659","0.0-6.0-3.39","2537313","co39346","norming","","","{""guess"":""animal""}","","../img/tt/184tt.jpg","",""
"null","../img/gs/184gs.jpg","null","reveal","image-keyboard-response","283","905661","0.0-6.0-4.39","2537313","co39346","norming","","","","","","",""
"null","../img/tt/184tt.jpg","null","mooney2","image-keyboard-response","284","907663","0.0-6.0-5.39","2537313","co39346","norming","","","","","","",""
"3700.9999999998836","","","post_reveal_questions","survey-likert","285","911365","0.0-6.0-6.39","2537313","co39346","norming","","","{""aha"":4}","[0]","../img/tt/184tt.jpg","",""
"null","<div style=""font-size:60px;""> </div>","null","fixation","html-keyboard-response","286","911566","0.0-6.0-0.40","2537313","co39346","norming","","","","","","",""
"null","../img/tt/315tt.jpg","null","mooney1","image-keyboard-response","287","914569","0.0-6.0-1.40","2537313","co39346","norming","","","","","","",""
"3231","","","post_mooney1_questions","survey-likert","288","917801","0.0-6.0-2.40","2537313","co39346","norming","","","{""curiosity"":6,""confidence"":0}","[0,1]","../img/tt/315tt.jpg","",""
"637","","","recognition","survey-text","289","918442","0.0-6.0-3.40","2537313","co39346","norming","","","{""guess"":""""}","","../img/tt/315tt.jpg","",""
"null","../img/gs/315gs.jpg","null","reveal","image-keyboard-response","290","920444","0.0-6.0-4.40","2537313","co39346","norming","","","","","","",""
"null","../img/tt/315tt.jpg","null","mooney2","image-keyboard-response","291","922447","0.0-6.0-5.40","2537313","co39346","norming","","","","","","",""
"3564.9999999998836","","","post_reveal_questions","survey-likert","292","926013","0.0-6.0-6.40","2537313","co39346","norming","","","{""aha"":5}","[0]","../img/tt/315tt.jpg","",""
"null","<div style=""font-size:60px;""> </div>","null","fixation","html-keyboard-response","293","926215","0.0-6.0-0.41","2537313","co39346","norming","","","","","","",""
"null","../img/tt/019tt.jpg","null","mooney1","image-keyboard-response","294","929218","0.0-6.0-1.41","2537313","co39346","norming","","","","","","",""
"4468","","","post_mooney1_questions","survey-likert","295","933686","0.0-6.0-2.41","2537313","co39346","norming","","","{""curiosity"":6,""confidence"":2}","[0,1]","../img/tt/019tt.jpg","",""
"1808","","","recognition","survey-text","296","935498","0.0-6.0-3.41","2537313","co39346","norming","","","{""guess"":""tool""}","","../img/tt/019tt.jpg","",""
"null","../img/gs/019gs.jpg","null","reveal","image-keyboard-response","297","937501","0.0-6.0-4.41","2537313","co39346","norming","","","","","","",""
"null","../img/tt/019tt.jpg","null","mooney2","image-keyboard-response","298","939503","0.0-6.0-5.41","2537313","co39346","norming","","","","","","",""
"3329","","","post_reveal_questions","survey-likert","299","942832","0.0-6.0-6.41","2537313","co39346","norming","","","{""aha"":3}","[0]","../img/tt/019tt.jpg","",""
"null","<div style=""font-size:60px;""> </div>","null","fixation","html-keyboard-response","300","943035","0.0-6.0-0.42","2537313","co39346","norming","","","","","","",""
"null","../img/tt/436tt.jpg","null","mooney1","image-keyboard-response","301","946038","0.0-6.0-1.42","2537313","co39346","norming","","","","","","",""
"3274","","","post_mooney1_questions","survey-likert","302","949313","0.0-6.0-2.42","2537313","co39346","norming","","","{""curiosity"":6,""confidence"":0}","[0,1]","../img/tt/436tt.jpg","",""
"2684.9999999998836","","","recognition","survey-text","303","952002","0.0-6.0-3.42","2537313","co39346","norming","","","{""guess"":""krab""}","","../img/tt/436tt.jpg","",""
"null","../img/gs/436gs.jpg","null","reveal","image-keyboard-response","304","954005","0.0-6.0-4.42","2537313","co39346","norming","","","","","","",""
"null","../img/tt/436tt.jpg","null","mooney2","image-keyboard-response","305","956008","0.0-6.0-5.42","2537313","co39346","norming","","","","","","",""
"2585.9999999998836","","","post_reveal_questions","survey-likert","306","958594","0.0-6.0-6.42","2537313","co39346","norming","","","{""aha"":5}","[0]","../img/tt/436tt.jpg","",""
"null","<div style=""font-size:60px;""> </div>","null","fixation","html-keyboard-response","307","958795","0.0-6.0-0.43","2537313","co39346","norming","","","","","","",""
"null","../img/tt/1122tt.jpg","null","mooney1","image-keyboard-response","308","961797","0.0-6.0-1.43","2537313","co39346","norming","","","","","","",""
"3074","","","post_mooney1_questions","survey-likert","309","964872","0.0-6.0-2.43","2537313","co39346","norming","","","{""curiosity"":5,""confidence"":2}","[0,1]","../img/tt/1122tt.jpg","",""
"2056","","","recognition","survey-text","310","966931","0.0-6.0-3.43","2537313","co39346","norming","","","{""guess"":""boats""}","","../img/tt/1122tt.jpg","",""
"null","../img/gs/1122gs.jpg","null","reveal","image-keyboard-response","311","968934","0.0-6.0-4.43","2537313","co39346","norming","","","","","","",""
"null","../img/tt/1122tt.jpg","null","mooney2","image-keyboard-response","312","970937","0.0-6.0-5.43","2537313","co39346","norming","","","","","","",""
"2587","","","post_reveal_questions","survey-likert","313","973523","0.0-6.0-6.43","2537313","co39346","norming","","","{""aha"":4}","[0]","../img/tt/1122tt.jpg","",""
"null","<div style=""font-size:60px;""> </div>","null","fixation","html-keyboard-response","314","973724","0.0-6.0-0.44","2537313","co39346","norming","","","","","","",""
"null","../img/tt/1363tt.jpg","null","mooney1","image-keyboard-response","315","976727","0.0-6.0-1.44","2537313","co39346","norming","","","","","","",""
"2882","","","post_mooney1_questions","survey-likert","316","979610","0.0-6.0-2.44","2537313","co39346","norming","","","{""curiosity"":6,""confidence"":0}","[0,1]","../img/tt/1363tt.jpg","",""
"861.9999999998836","","","recognition","survey-text","317","980476","0.0-6.0-3.44","2537313","co39346","norming","","","{""guess"":""""}","","../img/tt/1363tt.jpg","",""
"null","../img/gs/1363gs.jpg","null","reveal","image-keyboard-response","318","982478","0.0-6.0-4.44","2537313","co39346","norming","","","","","","",""
"null","../img/tt/1363tt.jpg","null","mooney2","image-keyboard-response","319","984480","0.0-6.0-5.44","2537313","co39346","norming","","","","","","",""
"4681.000000000116","","","post_reveal_questions","survey-likert","320","989161","0.0-6.0-6.44","2537313","co39346","norming","","","{""aha"":4}","[0]","../img/tt/1363tt.jpg","",""
"null","<div style=""font-size:60px;""> </div>","null","fixation","html-keyboard-response","321","989364","0.0-6.0-0.45","2537313","co39346","norming","","","","","","",""
"null","../img/tt/1159tt.jpg","null","mooney1","image-keyboard-response","322","992367","0.0-6.0-1.45","2537313","co39346","norming","","","","","","",""
"2960","","","post_mooney1_questions","survey-likert","323","995327","0.0-6.0-2.45","2537313","co39346","norming","","","{""curiosity"":6,""confidence"":1}","[0,1]","../img/tt/1159tt.jpg","",""
"2247","","","recognition","survey-text","324","997578","0.0-6.0-3.45","2537313","co39346","norming","","","{""guess"":""wei""}","","../img/tt/1159tt.jpg","",""
"null","../img/gs/1159gs.jpg","null","reveal","image-keyboard-response","325","999581","0.0-6.0-4.45","2537313","co39346","norming","","","","","","",""
"null","../img/tt/1159tt.jpg","null","mooney2","image-keyboard-response","326","1001583","0.0-6.0-5.45","2537313","co39346","norming","","","","","","",""
"2731.9999999998836","","","post_reveal_questions","survey-likert","327","1004316","0.0-6.0-6.45","2537313","co39346","norming","","","{""aha"":5}","[0]","../img/tt/1159tt.jpg","",""
"null","<div style=""font-size:60px;""> </div>","null","fixation","html-keyboard-response","328","1004519","0.0-6.0-0.46","2537313","co39346","norming","","","","","","",""
"null","../img/tt/080tt.jpg","null","mooney1","image-keyboard-response","329","1007522","0.0-6.0-1.46","2537313","co39346","norming","","","","","","",""
"3757","","","post_mooney1_questions","survey-likert","330","1011280","0.0-6.0-2.46","2537313","co39346","norming","","","{""curiosity"":6,""confidence"":1}","[0,1]","../img/tt/080tt.jpg","",""
"12372.000000000116","","","recognition","survey-text","331","1023655","0.0-6.0-3.46","2537313","co39346","norming","","","{""guess"":""plant""}","","../img/tt/080tt.jpg","",""
"null","../img/gs/080gs.jpg","null","reveal","image-keyboard-response","332","1025656","0.0-6.0-4.46","2537313","co39346","norming","","","","","","",""
"null","../img/tt/080tt.jpg","null","mooney2","image-keyboard-response","333","1027658","0.0-6.0-5.46","2537313","co39346","norming","","","","","","",""
"4321.000000000116","","","post_reveal_questions","survey-likert","334","1031980","0.0-6.0-6.46","2537313","co39346","norming","","","{""aha"":5}","[0]","../img/tt/080tt.jpg","",""
"null","<div style=""font-size:60px;""> </div>","null","fixation","html-keyboard-response","335","1032182","0.0-6.0-0.47","2537313","co39346","norming","","","","","","",""
"null","../img/tt/1279tt.jpg","null","mooney1","image-keyboard-response","336","1035185","0.0-6.0-1.47","2537313","co39346","norming","","","","","","",""
"2904","","","post_mooney1_questions","survey-likert","337","1038089","0.0-6.0-2.47","2537313","co39346","norming","","","{""curiosity"":6,""confidence"":0}","[0,1]","../img/tt/1279tt.jpg","",""
"558.9999999998836","","","recognition","survey-text","338","1038651","0.0-6.0-3.47","2537313","co39346","norming","","","{""guess"":""""}","","../img/tt/1279tt.jpg","",""
"null","../img/gs/1279gs.jpg","null","reveal","image-keyboard-response","339","1040653","0.0-6.0-4.47","2537313","co39346","norming","","","","","","",""
"null","../img/tt/1279tt.jpg","null","mooney2","image-keyboard-response","340","1042656","0.0-6.0-5.47","2537313","co39346","norming","","","","","","",""
"3150.000000000233","","","post_reveal_questions","survey-likert","341","1045807","0.0-6.0-6.47","2537313","co39346","norming","","","{""aha"":4}","[0]","../img/tt/1279tt.jpg","",""
"null","<div style=""font-size:60px;""> </div>","null","fixation","html-keyboard-response","342","1046009","0.0-6.0-0.48","2537313","co39346","norming","","","","","","",""
"null","../img/tt/580tt.jpg","null","mooney1","image-keyboard-response","343","1049012","0.0-6.0-1.48","2537313","co39346","norming","","","","","","",""
"2892","","","post_mooney1_questions","survey-likert","344","1051905","0.0-6.0-2.48","2537313","co39346","norming","","","{""curiosity"":6,""confidence"":0}","[0,1]","../img/tt/580tt.jpg","",""
"727","","","recognition","survey-text","345","1052636","0.0-6.0-3.48","2537313","co39346","norming","","","{""guess"":""""}","","../img/tt/580tt.jpg","",""
"null","../img/gs/580gs.jpg","null","reveal","image-keyboard-response","346","1054637","0.0-6.0-4.48","2537313","co39346","norming","","","","","","",""
"null","../img/tt/580tt.jpg","null","mooney2","image-keyboard-response","347","1056640","0.0-6.0-5.48","2537313","co39346","norming","","","","","","",""
"1981","","","post_reveal_questions","survey-likert","348","1058621","0.0-6.0-6.48","2537313","co39346","norming","","","{""aha"":4}","[0]","../img/tt/580tt.jpg","",""
"null","<div style=""font-size:60px;""> </div>","null","fixation","html-keyboard-response","349","1058822","0.0-6.0-0.49","2537313","co39346","norming","","","","","","",""
"null","../img/tt/406tt.jpg","null","mooney1","image-keyboard-response","350","1061824","0.0-6.0-1.49","2537313","co39346","norming","","","","","","",""
"4097.999999999767","","","post_mooney1_questions","survey-likert","351","1065923","0.0-6.0-2.49","2537313","co39346","norming","","","{""curiosity"":6,""confidence"":0}","[0,1]","../img/tt/406tt.jpg","",""
"795","","","recognition","survey-text","352","1066721","0.0-6.0-3.49","2537313","co39346","norming","","","{""guess"":""""}","","../img/tt/406tt.jpg","",""
"null","../img/gs/406gs.jpg","null","reveal","image-keyboard-response","353","1068723","0.0-6.0-4.49","2537313","co39346","norming","","","","","","",""
"null","../img/tt/406tt.jpg","null","mooney2","image-keyboard-response","354","1070725","0.0-6.0-5.49","2537313","co39346","norming","","","","","","",""
"2330.000000000233","","","post_reveal_questions","survey-likert","355","1073055","0.0-6.0-6.49","2537313","co39346","norming","","","{""aha"":6}","[0]","../img/tt/406tt.jpg","",""
"null","<div style=""font-size:60px;""> </div>","null","fixation","html-keyboard-response","356","1073257","0.0-6.0-0.50","2537313","co39346","norming","","","","","","",""
"null","../img/tt/1069tt.jpg","null","mooney1","image-keyboard-response","357","1076261","0.0-6.0-1.50","2537313","co39346","norming","","","","","","",""
"2588","","","post_mooney1_questions","survey-likert","358","1078849","0.0-6.0-2.50","2537313","co39346","norming","","","{""curiosity"":6,""confidence"":0}","[0,1]","../img/tt/1069tt.jpg","",""
"805.9999999997672","","","recognition","survey-text","359","1079659","0.0-6.0-3.50","2537313","co39346","norming","","","{""guess"":""""}","","../img/tt/1069tt.jpg","",""
"null","../img/gs/1069gs.jpg","null","reveal","image-keyboard-response","360","1081662","0.0-6.0-4.50","2537313","co39346","norming","","","","","","",""
"null","../img/tt/1069tt.jpg","null","mooney2","image-keyboard-response","361","1083663","0.0-6.0-5.50","2537313","co39346","norming","","","","","","",""
"2970","","","post_reveal_questions","survey-likert","362","1086634","0.0-6.0-6.50","2537313","co39346","norming","","","{""aha"":4}","[0]","../img/tt/1069tt.jpg","",""
"null","<div style=""font-size:60px;""> </div>","null","fixation","html-keyboard-response","363","1086836","0.0-6.0-0.51","2537313","co39346","norming","","","","","","",""
"null","../img/tt/1353tt.jpg","null","mooney1","image-keyboard-response","364","1089839","0.0-6.0-1.51","2537313","co39346","norming","","","","","","",""
"8101","","","post_mooney1_questions","survey-likert","365","1097941","0.0-6.0-2.51","2537313","co39346","norming","","","{""curiosity"":6,""confidence"":0}","[0,1]","../img/tt/1353tt.jpg","",""
"514","","","recognition","survey-text","366","1098458","0.0-6.0-3.51","2537313","co39346","norming","","","{""guess"":""""}","","../img/tt/1353tt.jpg","",""
"null","../img/gs/1353gs.jpg","null","reveal","image-keyboard-response","367","1100461","0.0-6.0-4.51","2537313","co39346","norming","","","","","","",""
"null","../img/tt/1353tt.jpg","null","mooney2","image-keyboard-response","368","1102464","0.0-6.0-5.51","2537313","co39346","norming","","","","","","",""
"2328","","","post_reveal_questions","survey-likert","369","1104792","0.0-6.0-6.51","2537313","co39346","norming","","","{""aha"":6}","[0]","../img/tt/1353tt.jpg","",""
"null","<div style=""font-size:60px;""> </div>","null","fixation","html-keyboard-response","370","1104994","0.0-6.0-0.52","2537313","co39346","norming","","","","","","",""
"null","../img/tt/1012tt.jpg","null","mooney1","image-keyboard-response","371","1107997","0.0-6.0-1.52","2537313","co39346","norming","","","","","","",""
"3387","","","post_mooney1_questions","survey-likert","372","1111385","0.0-6.0-2.52","2537313","co39346","norming","","","{""curiosity"":6,""confidence"":0}","[0,1]","../img/tt/1012tt.jpg","",""
"1042","","","recognition","survey-text","373","1112431","0.0-6.0-3.52","2537313","co39346","norming","","","{""guess"":""""}","","../img/tt/1012tt.jpg","",""
"null","../img/gs/1012gs.jpg","null","reveal","image-keyboard-response","374","1114434","0.0-6.0-4.52","2537313","co39346","norming","","","","","","",""
"null","../img/tt/1012tt.jpg","null","mooney2","image-keyboard-response","375","1116437","0.0-6.0-5.52","2537313","co39346","norming","","","","","","",""
"1900","","","post_reveal_questions","survey-likert","376","1118337","0.0-6.0-6.52","2537313","co39346","norming","","","{""aha"":6}","[0]","../img/tt/1012tt.jpg","",""
"null","<div style=""font-size:60px;""> </div>","null","fixation","html-keyboard-response","377","1118540","0.0-6.0-0.53","2537313","co39346","norming","","","","","","",""
"null","../img/tt/405tt.jpg","null","mooney1","image-keyboard-response","378","1121543","0.0-6.0-1.53","2537313","co39346","norming","","","","","","",""
"3138.999999999767","","","post_mooney1_questions","survey-likert","379","1124683","0.0-6.0-2.53","2537313","co39346","norming","","","{""curiosity"":6,""confidence"":0}","[0,1]","../img/tt/405tt.jpg","",""
"570","","","recognition","survey-text","380","1125257","0.0-6.0-3.53","2537313","co39346","norming","","","{""guess"":""""}","","../img/tt/405tt.jpg","",""
"null","../img/gs/405gs.jpg","null","reveal","image-keyboard-response","381","1127259","0.0-6.0-4.53","2537313","co39346","norming","","","","","","",""
"null","../img/tt/405tt.jpg","null","mooney2","image-keyboard-response","382","1129262","0.0-6.0-5.53","2537313","co39346","norming","","","","","","",""
"2114","","","post_reveal_questions","survey-likert","383","1131377","0.0-6.0-6.53","2537313","co39346","norming","","","{""aha"":6}","[0]","../img/tt/405tt.jpg","",""
"null","<div style=""font-size:60px;""> </div>","null","fixation","html-keyboard-response","384","1131579","0.0-6.0-0.54","2537313","co39346","norming","","","","","","",""
"null","../img/tt/081tt.jpg","null","mooney1","image-keyboard-response","385","1134582","0.0-6.0-1.54","2537313","co39346","norming","","","","","","",""
"3826","","","post_mooney1_questions","survey-likert","386","1138409","0.0-6.0-2.54","2537313","co39346","norming","","","{""curiosity"":6,""confidence"":0}","[0,1]","../img/tt/081tt.jpg","",""
"671","","","recognition","survey-text","387","1139083","0.0-6.0-3.54","2537313","co39346","norming","","","{""guess"":""""}","","../img/tt/081tt.jpg","",""
"null","../img/gs/081gs.jpg","null","reveal","image-keyboard-response","388","1141085","0.0-6.0-4.54","2537313","co39346","norming","","","","","","",""
"null","../img/tt/081tt.jpg","null","mooney2","image-keyboard-response","389","1143087","0.0-6.0-5.54","2537313","co39346","norming","","","","","","",""
"2262","","","post_reveal_questions","survey-likert","390","1145350","0.0-6.0-6.54","2537313","co39346","norming","","","{""aha"":6}","[0]","../img/tt/081tt.jpg","",""
"null","<div style=""font-size:60px;""> </div>","null","fixation","html-keyboard-response","391","1145551","0.0-6.0-0.55","2537313","co39346","norming","","","","","","",""
"null","../img/tt/126tt.jpg","null","mooney1","image-keyboard-response","392","1148554","0.0-6.0-1.55","2537313","co39346","norming","","","","","","",""
"3556","","","post_mooney1_questions","survey-likert","393","1152111","0.0-6.0-2.55","2537313","co39346","norming","","","{""curiosity"":6,""confidence"":3}","[0,1]","../img/tt/126tt.jpg","",""
"1921","","","recognition","survey-text","394","1154036","0.0-6.0-3.55","2537313","co39346","norming","","","{""guess"":""koe""}","","../img/tt/126tt.jpg","",""
"null","../img/gs/126gs.jpg","null","reveal","image-keyboard-response","395","1156039","0.0-6.0-4.55","2537313","co39346","norming","","","","","","",""
"null","../img/tt/126tt.jpg","null","mooney2","image-keyboard-response","396","1158042","0.0-6.0-5.55","2537313","co39346","norming","","","","","","",""
"2327","","","post_reveal_questions","survey-likert","397","1160369","0.0-6.0-6.55","2537313","co39346","norming","","","{""aha"":4}","[0]","../img/tt/126tt.jpg","",""
"null","<div style=""font-size:60px;""> </div>","null","fixation","html-keyboard-response","398","1160571","0.0-6.0-0.56","2537313","co39346","norming","","","","","","",""
"null","../img/tt/1146tt.jpg","null","mooney1","image-keyboard-response","399","1163574","0.0-6.0-1.56","2537313","co39346","norming","","","","","","",""
"3173","","","post_mooney1_questions","survey-likert","400","1166748","0.0-6.0-2.56","2537313","co39346","norming","","","{""curiosity"":6,""confidence"":1}","[0,1]","../img/tt/1146tt.jpg","",""
"705","","","recognition","survey-text","401","1167456","0.0-6.0-3.56","2537313","co39346","norming","","","{""guess"":""""}","","../img/tt/1146tt.jpg","",""
"null","../img/gs/1146gs.jpg","null","reveal","image-keyboard-response","402","1169459","0.0-6.0-4.56","2537313","co39346","norming","","","","","","",""
"null","../img/tt/1146tt.jpg","null","mooney2","image-keyboard-response","403","1171462","0.0-6.0-5.56","2537313","co39346","norming","","","","","","",""
"2508","","","post_reveal_questions","survey-likert","404","1173970","0.0-6.0-6.56","2537313","co39346","norming","","","{""aha"":6}","[0]","../img/tt/1146tt.jpg","",""
"null","<div style=""font-size:60px;""> </div>","null","fixation","html-keyboard-response","405","1174173","0.0-6.0-0.57","2537313","co39346","norming","","","","","","",""
"null","../img/tt/1101tt.jpg","null","mooney1","image-keyboard-response","406","1177176","0.0-6.0-1.57","2537313","co39346","norming","","","","","","",""
"7762.999999999767","","","post_mooney1_questions","survey-likert","407","1184940","0.0-6.0-2.57","2537313","co39346","norming","","","{""curiosity"":6,""confidence"":2}","[0,1]","../img/tt/1101tt.jpg","",""
"1965","","","recognition","survey-text","408","1186909","0.0-6.0-3.57","2537313","co39346","norming","","","{""guess"":""man""}","","../img/tt/1101tt.jpg","",""
"null","../img/gs/1101gs.jpg","null","reveal","image-keyboard-response","409","1188912","0.0-6.0-4.57","2537313","co39346","norming","","","","","","",""
"null","../img/tt/1101tt.jpg","null","mooney2","image-keyboard-response","410","1190915","0.0-6.0-5.57","2537313","co39346","norming","","","","","","",""
"5129","","","post_reveal_questions","survey-likert","411","1196044","0.0-6.0-6.57","2537313","co39346","norming","","","{""aha"":6}","[0]","../img/tt/1101tt.jpg","",""
"null","<div style=""font-size:60px;""> </div>","null","fixation","html-keyboard-response","412","1196246","0.0-6.0-0.58","2537313","co39346","norming","","","","","","",""
"null","../img/tt/1087tt.jpg","null","mooney1","image-keyboard-response","413","1199249","0.0-6.0-1.58","2537313","co39346","norming","","","","","","",""
"2959","","","post_mooney1_questions","survey-likert","414","1202209","0.0-6.0-2.58","2537313","co39346","norming","","","{""curiosity"":6,""confidence"":0}","[0,1]","../img/tt/1087tt.jpg","",""
"784","","","recognition","survey-text","415","1202996","0.0-6.0-3.58","2537313","co39346","norming","","","{""guess"":""""}","","../img/tt/1087tt.jpg","",""
"null","../img/gs/1087gs.jpg","null","reveal","image-keyboard-response","416","1204999","0.0-6.0-4.58","2537313","co39346","norming","","","","","","",""
"null","../img/tt/1087tt.jpg","null","mooney2","image-keyboard-response","417","1207002","0.0-6.0-5.58","2537313","co39346","norming","","","","","","",""
"2867.999999999767","","","post_reveal_questions","survey-likert","418","1209870","0.0-6.0-6.58","2537313","co39346","norming","","","{""aha"":5}","[0]","../img/tt/1087tt.jpg","",""
"null","<div style=""font-size:60px;""> </div>","null","fixation","html-keyboard-response","419","1210072","0.0-6.0-0.59","2537313","co39346","norming","","","","","","",""
"null","../img/tt/044tt.jpg","null","mooney1","image-keyboard-response","420","1213076","0.0-6.0-1.59","2537313","co39346","norming","","","","","","",""
"3534","","","post_mooney1_questions","survey-likert","421","1216611","0.0-6.0-2.59","2537313","co39346","norming","","","{""curiosity"":6,""confidence"":0}","[0,1]","../img/tt/044tt.jpg","",""
"943","","","recognition","survey-text","422","1217566","0.0-6.0-3.59","2537313","co39346","norming","","","{""guess"":""""}","","../img/tt/044tt.jpg","",""
"null","../img/gs/044gs.jpg","null","reveal","image-keyboard-response","423","1219567","0.0-6.0-4.59","2537313","co39346","norming","","","","","","",""
"null","../img/tt/044tt.jpg","null","mooney2","image-keyboard-response","424","1221569","0.0-6.0-5.59","2537313","co39346","norming","","","","","","",""
"3027","","","post_reveal_questions","survey-likert","425","1224597","0.0-6.0-6.59","2537313","co39346","norming","","","{""aha"":5}","[0]","../img/tt/044tt.jpg","",""
"null","<div style=""font-size:60px;""> </div>","null","fixation","html-keyboard-response","426","1224798","0.0-6.0-0.60","2537313","co39346","norming","","","","","","",""
"null","../img/tt/008tt.jpg","null","mooney1","image-keyboard-response","427","1227801","0.0-6.0-1.60","2537313","co39346","norming","","","","","","",""
"4548","","","post_mooney1_questions","survey-likert","428","1232349","0.0-6.0-2.60","2537313","co39346","norming","","","{""curiosity"":5,""confidence"":2}","[0,1]","../img/tt/008tt.jpg","",""
"2607","","","recognition","survey-text","429","1234959","0.0-6.0-3.60","2537313","co39346","norming","","","{""guess"":""hunter""}","","../img/tt/008tt.jpg","",""
"null","../img/gs/008gs.jpg","null","reveal","image-keyboard-response","430","1236961","0.0-6.0-4.60","2537313","co39346","norming","","","","","","",""
"null","../img/tt/008tt.jpg","null","mooney2","image-keyboard-response","431","1238964","0.0-6.0-5.60","2537313","co39346","norming","","","","","","",""
"3329","","","post_reveal_questions","survey-likert","432","1242294","0.0-6.0-6.60","2537313","co39346","norming","","","{""aha"":5}","[0]","../img/tt/008tt.jpg","",""
"null","<div style=""font-size:60px;""> </div>","null","fixation","html-keyboard-response","433","1242496","0.0-6.0-0.61","2537313","co39346","norming","","","","","","",""
"null","../img/tt/053tt.jpg","null","mooney1","image-keyboard-response","434","1245499","0.0-6.0-1.61","2537313","co39346","norming","","","","","","",""
"6234","","","post_mooney1_questions","survey-likert","435","1251733","0.0-6.0-2.61","2537313","co39346","norming","","","{""curiosity"":5,""confidence"":1}","[0,1]","../img/tt/053tt.jpg","",""
"828","","","recognition","survey-text","436","1252565","0.0-6.0-3.61","2537313","co39346","norming","","","{""guess"":""""}","","../img/tt/053tt.jpg","",""
"null","../img/gs/053gs.jpg","null","reveal","image-keyboard-response","437","1254568","0.0-6.0-4.61","2537313","co39346","norming","","","","","","",""
"null","../img/tt/053tt.jpg","null","mooney2","image-keyboard-response","438","1256570","0.0-6.0-5.61","2537313","co39346","norming","","","","","","",""
"2576","","","post_reveal_questions","survey-likert","439","1259147","0.0-6.0-6.61","2537313","co39346","norming","","","{""aha"":6}","[0]","../img/tt/053tt.jpg","",""
"null","<div style=""font-size:60px;""> </div>","null","fixation","html-keyboard-response","440","1259349","0.0-6.0-0.62","2537313","co39346","norming","","","","","","",""
"null","../img/tt/416tt.jpg","null","mooney1","image-keyboard-response","441","1262352","0.0-6.0-1.62","2537313","co39346","norming","","","","","","",""
"3319","","","post_mooney1_questions","survey-likert","442","1265672","0.0-6.0-2.62","2537313","co39346","norming","","","{""curiosity"":6,""confidence"":0}","[0,1]","../img/tt/416tt.jpg","",""
"851","","","recognition","survey-text","443","1266527","0.0-6.0-3.62","2537313","co39346","norming","","","{""guess"":""""}","","../img/tt/416tt.jpg","",""
"null","../img/gs/416gs.jpg","null","reveal","image-keyboard-response","444","1268529","0.0-6.0-4.62","2537313","co39346","norming","","","","","","",""
"null","../img/tt/416tt.jpg","null","mooney2","image-keyboard-response","445","1270532","0.0-6.0-5.62","2537313","co39346","norming","","","","","","",""
"3183","","","post_reveal_questions","survey-likert","446","1273716","0.0-6.0-6.62","2537313","co39346","norming","","","{""aha"":5}","[0]","../img/tt/416tt.jpg","",""
"null","<div style=""font-size:60px;""> </div>","null","fixation","html-keyboard-response","447","1273918","0.0-6.0-0.63","2537313","co39346","norming","","","","","","",""
"null","../img/tt/329tt.jpg","null","mooney1","image-keyboard-response","448","1276921","0.0-6.0-1.63","2537313","co39346","norming","","","","","","",""
"2904","","","post_mooney1_questions","survey-likert","449","1279825","0.0-6.0-2.63","2537313","co39346","norming","","","{""curiosity"":6,""confidence"":0}","[0,1]","../img/tt/329tt.jpg","",""
"627","","","recognition","survey-text","450","1280455","0.0-6.0-3.63","2537313","co39346","norming","","","{""guess"":""""}","","../img/tt/329tt.jpg","",""
"null","../img/gs/329gs.jpg","null","reveal","image-keyboard-response","451","1282458","0.0-6.0-4.63","2537313","co39346","norming","","","","","","",""
"null","../img/tt/329tt.jpg","null","mooney2","image-keyboard-response","452","1284460","0.0-6.0-5.63","2537313","co39346","norming","","","","","","",""
"4173","","","post_reveal_questions","survey-likert","453","1288635","0.0-6.0-6.63","2537313","co39346","norming","","","{""aha"":5}","[0]","../img/tt/329tt.jpg","",""
"null","<div style=""font-size:60px;""> </div>","null","fixation","html-keyboard-response","454","1288837","0.0-6.0-0.64","2537313","co39346","norming","","","","","","",""
"null","../img/tt/013tt.jpg","null","mooney1","image-keyboard-response","455","1291840","0.0-6.0-1.64","2537313","co39346","norming","","","","","","",""
"8269","","","post_mooney1_questions","survey-likert","456","1300110","0.0-6.0-2.64","2537313","co39346","norming","","","{""curiosity"":5,""confidence"":1}","[0,1]","../img/tt/013tt.jpg","",""
"672","","","recognition","survey-text","457","1300784","0.0-6.0-3.64","2537313","co39346","norming","","","{""guess"":""""}","","../img/tt/013tt.jpg","",""
"null","../img/gs/013gs.jpg","null","reveal","image-keyboard-response","458","1302787","0.0-6.0-4.64","2537313","co39346","norming","","","","","","",""
"null","../img/tt/013tt.jpg","null","mooney2","image-keyboard-response","459","1304789","0.0-6.0-5.64","2537313","co39346","norming","","","","","","",""
"1935","","","post_reveal_questions","survey-likert","460","1306724","0.0-6.0-6.64","2537313","co39346","norming","","","{""aha"":6}","[0]","../img/tt/013tt.jpg","",""
"null","<div style=""font-size:60px;""> </div>","null","fixation","html-keyboard-response","461","1306926","0.0-6.0-0.65","2537313","co39346","norming","","","","","","",""
"null","../img/tt/1236tt.jpg","null","mooney1","image-keyboard-response","462","1309928","0.0-6.0-1.65","2537313","co39346","norming","","","","","","",""
"6392","","","post_mooney1_questions","survey-likert","463","1316321","0.0-6.0-2.65","2537313","co39346","norming","","","{""curiosity"":5,""confidence"":1}","[0,1]","../img/tt/1236tt.jpg","",""
"591.9999999997672","","","recognition","survey-text","464","1316917","0.0-6.0-3.65","2537313","co39346","norming","","","{""guess"":""""}","","../img/tt/1236tt.jpg","",""
"null","../img/gs/1236gs.jpg","null","reveal","image-keyboard-response","465","1318920","0.0-6.0-4.65","2537313","co39346","norming","","","","","","",""
"null","../img/tt/1236tt.jpg","null","mooney2","image-keyboard-response","466","1320922","0.0-6.0-5.65","2537313","co39346","norming","","","","","","",""
"3082","","","post_reveal_questions","survey-likert","467","1324005","0.0-6.0-6.65","2537313","co39346","norming","","","{""aha"":5}","[0]","../img/tt/1236tt.jpg","",""
"null","<div style=""font-size:60px;""> </div>","null","fixation","html-keyboard-response","468","1324207","0.0-6.0-0.66","2537313","co39346","norming","","","","","","",""
"null","../img/tt/055tt.jpg","null","mooney1","image-keyboard-response","469","1327210","0.0-6.0-1.66","2537313","co39346","norming","","","","","","",""
"3679","","","post_mooney1_questions","survey-likert","470","1330890","0.0-6.0-2.66","2537313","co39346","norming","","","{""curiosity"":6,""confidence"":0}","[0,1]","../img/tt/055tt.jpg","",""
"593","","","recognition","survey-text","471","1331487","0.0-6.0-3.66","2537313","co39346","norming","","","{""guess"":""""}","","../img/tt/055tt.jpg","",""
"null","../img/gs/055gs.jpg","null","reveal","image-keyboard-response","472","1333489","0.0-6.0-4.66","2537313","co39346","norming","","","","","","",""
"null","../img/tt/055tt.jpg","null","mooney2","image-keyboard-response","473","1335492","0.0-6.0-5.66","2537313","co39346","norming","","","","","","",""
"2462","","","post_reveal_questions","survey-likert","474","1337956","0.0-6.0-6.66","2537313","co39346","norming","","","{""aha"":5}","[0]","../img/tt/055tt.jpg","",""
"null","<div style=""font-size:60px;""> </div>","null","fixation","html-keyboard-response","475","1338158","0.0-6.0-0.67","2537313","co39346","norming","","","","","","",""
"null","../img/tt/1128tt.jpg","null","mooney1","image-keyboard-response","476","1341160","0.0-6.0-1.67","2537313","co39346","norming","","","","","","",""
"3397.999999999767","","","post_mooney1_questions","survey-likert","477","1344559","0.0-6.0-2.67","2537313","co39346","norming","","","{""curiosity"":6,""confidence"":2}","[0,1]","../img/tt/1128tt.jpg","",""
"671","","","recognition","survey-text","478","1345234","0.0-6.0-3.67","2537313","co39346","norming","","","{""guess"":""""}","","../img/tt/1128tt.jpg","",""
"null","../img/gs/1128gs.jpg","null","reveal","image-keyboard-response","479","1347236","0.0-6.0-4.67","2537313","co39346","norming","","","","","","",""
"null","../img/tt/1128tt.jpg","null","mooney2","image-keyboard-response","480","1349238","0.0-6.0-5.67","2537313","co39346","norming","","","","","","",""
"6987.999999999767","","","post_reveal_questions","survey-likert","481","1356226","0.0-6.0-6.67","2537313","co39346","norming","","","{""aha"":4}","[0]","../img/tt/1128tt.jpg","",""
"null","<div style=""font-size:60px;""> </div>","null","fixation","html-keyboard-response","482","1356428","0.0-6.0-0.68","2537313","co39346","norming","","","","","","",""
"null","../img/tt/1199tt.jpg","null","mooney1","image-keyboard-response","483","1359431","0.0-6.0-1.68","2537313","co39346","norming","","","","","","",""
"6683","","","post_mooney1_questions","survey-likert","484","1366116","0.0-6.0-2.68","2537313","co39346","norming","","","{""curiosity"":5,""confidence"":2}","[0,1]","../img/tt/1199tt.jpg","",""
"1909","","","recognition","survey-text","485","1368028","0.0-6.0-3.68","2537313","co39346","norming","","","{""guess"":""sport""}","","../img/tt/1199tt.jpg","",""
"null","../img/gs/1199gs.jpg","null","reveal","image-keyboard-response","486","1370031","0.0-6.0-4.68","2537313","co39346","norming","","","","","","",""
"null","../img/tt/1199tt.jpg","null","mooney2","image-keyboard-response","487","1372034","0.0-6.0-5.68","2537313","co39346","norming","","","","","","",""
"2226","","","post_reveal_questions","survey-likert","488","1374260","0.0-6.0-6.68","2537313","co39346","norming","","","{""aha"":5}","[0]","../img/tt/1199tt.jpg","",""
"null","<div style=""font-size:60px;""> </div>","null","fixation","html-keyboard-response","489","1374462","0.0-6.0-0.69","2537313","co39346","norming","","","","","","",""
"null","../img/tt/517tt.jpg","null","mooney1","image-keyboard-response","490","1377465","0.0-6.0-1.69","2537313","co39346","norming","","","","","","",""
"4850","","","post_mooney1_questions","survey-likert","491","1382315","0.0-6.0-2.69","2537313","co39346","norming","","","{""curiosity"":5,""confidence"":2}","[0,1]","../img/tt/517tt.jpg","",""
"2022","","","recognition","survey-text","492","1384341","0.0-6.0-3.69","2537313","co39346","norming","","","{""guess"":""panda""}","","../img/tt/517tt.jpg","",""
"null","../img/gs/517gs.jpg","null","reveal","image-keyboard-response","493","1386343","0.0-6.0-4.69","2537313","co39346","norming","","","","","","",""
"null","../img/tt/517tt.jpg","null","mooney2","image-keyboard-response","494","1388346","0.0-6.0-5.69","2537313","co39346","norming","","","","","","",""
"2744","","","post_reveal_questions","survey-likert","495","1391091","0.0-6.0-6.69","2537313","co39346","norming","","","{""aha"":5}","[0]","../img/tt/517tt.jpg","",""
"null","<div style=""font-size:60px;""> </div>","null","fixation","html-keyboard-response","496","1391293","0.0-6.0-0.70","2537313","co39346","norming","","","","","","",""
"null","../img/tt/123tt.jpg","null","mooney1","image-keyboard-response","497","1394296","0.0-6.0-1.70","2537313","co39346","norming","","","","","","",""
"4602","","","post_mooney1_questions","survey-likert","498","1398899","0.0-6.0-2.70","2537313","co39346","norming","","","{""curiosity"":4,""confidence"":0}","[0,1]","../img/tt/123tt.jpg","",""
"1031","","","recognition","survey-text","499","1399933","0.0-6.0-3.70","2537313","co39346","norming","","","{""guess"":""""}","","../img/tt/123tt.jpg","",""
"null","../img/gs/123gs.jpg","null","reveal","image-keyboard-response","500","1401936","0.0-6.0-4.70","2537313","co39346","norming","","","","","","",""
"null","../img/tt/123tt.jpg","null","mooney2","image-keyboard-response","501","1403939","0.0-6.0-5.70","2537313","co39346","norming","","","","","","",""
"2396","","","post_reveal_questions","survey-likert","502","1406335","0.0-6.0-6.70","2537313","co39346","norming","","","{""aha"":4}","[0]","../img/tt/123tt.jpg","",""
"null","<div style=""font-size:60px;""> </div>","null","fixation","html-keyboard-response","503","1406537","0.0-6.0-0.71","2537313","co39346","norming","","","","","","",""
"null","../img/tt/270tt.jpg","null","mooney1","image-keyboard-response","504","1409540","0.0-6.0-1.71","2537313","co39346","norming","","","","","","",""
"4017","","","post_mooney1_questions","survey-likert","505","1413558","0.0-6.0-2.71","2537313","co39346","norming","","","{""curiosity"":6,""confidence"":0}","[0,1]","../img/tt/270tt.jpg","",""
"727","","","recognition","survey-text","506","1414289","0.0-6.0-3.71","2537313","co39346","norming","","","{""guess"":""""}","","../img/tt/270tt.jpg","",""
"null","../img/gs/270gs.jpg","null","reveal","image-keyboard-response","507","1416292","0.0-6.0-4.71","2537313","co39346","norming","","","","","","",""
"null","../img/tt/270tt.jpg","null","mooney2","image-keyboard-response","508","1418294","0.0-6.0-5.71","2537313","co39346","norming","","","","","","",""
"2474","","","post_reveal_questions","survey-likert","509","1420769","0.0-6.0-6.71","2537313","co39346","norming","","","{""aha"":6}","[0]","../img/tt/270tt.jpg","",""
"null","<div style=""font-size:60px;""> </div>","null","fixation","html-keyboard-response","510","1420971","0.0-6.0-0.72","2537313","co39346","norming","","","","","","",""
"null","../img/tt/496tt.jpg","null","mooney1","image-keyboard-response","511","1423974","0.0-6.0-1.72","2537313","co39346","norming","","","","","","",""
"5908","","","post_mooney1_questions","survey-likert","512","1429883","0.0-6.0-2.72","2537313","co39346","norming","","","{""curiosity"":6,""confidence"":0}","[0,1]","../img/tt/496tt.jpg","",""
"626","","","recognition","survey-text","513","1430512","0.0-6.0-3.72","2537313","co39346","norming","","","{""guess"":""""}","","../img/tt/496tt.jpg","",""
"null","../img/gs/496gs.jpg","null","reveal","image-keyboard-response","514","1432514","0.0-6.0-4.72","2537313","co39346","norming","","","","","","",""
"null","../img/tt/496tt.jpg","null","mooney2","image-keyboard-response","515","1434517","0.0-6.0-5.72","2537313","co39346","norming","","","","","","",""
"2193","","","post_reveal_questions","survey-likert","516","1436710","0.0-6.0-6.72","2537313","co39346","norming","","","{""aha"":6}","[0]","../img/tt/496tt.jpg","",""
"null","<div style=""font-size:60px;""> </div>","null","fixation","html-keyboard-response","517","1436912","0.0-6.0-0.73","2537313","co39346","norming","","","","","","",""
"null","../img/tt/1290tt.jpg","null","mooney1","image-keyboard-response","518","1439914","0.0-6.0-1.73","2537313","co39346","norming","","","","","","",""
"3524","","","post_mooney1_questions","survey-likert","519","1443439","0.0-6.0-2.73","2537313","co39346","norming","","","{""curiosity"":5,""confidence"":1}","[0,1]","../img/tt/1290tt.jpg","",""
"2336","","","recognition","survey-text","520","1445780","0.0-6.0-3.73","2537313","co39346","norming","","","{""guess"":""bom""}","","../img/tt/1290tt.jpg","",""
"null","../img/gs/1290gs.jpg","null","reveal","image-keyboard-response","521","1447782","0.0-6.0-4.73","2537313","co39346","norming","","","","","","",""
"null","../img/tt/1290tt.jpg","null","mooney2","image-keyboard-response","522","1449785","0.0-6.0-5.73","2537313","co39346","norming","","","","","","",""
"5252","","","post_reveal_questions","survey-likert","523","1455037","0.0-6.0-6.73","2537313","co39346","norming","","","{""aha"":6}","[0]","../img/tt/1290tt.jpg","",""
"null","<div style=""font-size:60px;""> </div>","null","fixation","html-keyboard-response","524","1455240","0.0-6.0-0.74","2537313","co39346","norming","","","","","","",""
"null","../img/tt/481tt.jpg","null","mooney1","image-keyboard-response","525","1458242","0.0-6.0-1.74","2537313","co39346","norming","","","","","","",""
"2689.999999999767","","","post_mooney1_questions","survey-likert","526","1460933","0.0-6.0-2.74","2537313","co39346","norming","","","{""curiosity"":6,""confidence"":2}","[0,1]","../img/tt/481tt.jpg","",""
"659","","","recognition","survey-text","527","1461596","0.0-6.0-3.74","2537313","co39346","norming","","","{""guess"":""""}","","../img/tt/481tt.jpg","",""
"null","../img/gs/481gs.jpg","null","reveal","image-keyboard-response","528","1463598","0.0-6.0-4.74","2537313","co39346","norming","","","","","","",""
"null","../img/tt/481tt.jpg","null","mooney2","image-keyboard-response","529","1465601","0.0-6.0-5.74","2537313","co39346","norming","","","","","","",""
"2228","","","post_reveal_questions","survey-likert","530","1467829","0.0-6.0-6.74","2537313","co39346","norming","","","{""aha"":6}","[0]","../img/tt/481tt.jpg","",""
"null","<div style=""font-size:60px;""> </div>","null","fixation","html-keyboard-response","531","1468031","0.0-6.0-0.75","2537313","co39346","norming","","","","","","",""
"null","../img/tt/442tt.jpg","null","mooney1","image-keyboard-response","532","1471034","0.0-6.0-1.75","2537313","co39346","norming","","","","","","",""
"3556","","","post_mooney1_questions","survey-likert","533","1474591","0.0-6.0-2.75","2537313","co39346","norming","","","{""curiosity"":6,""confidence"":2}","[0,1]","../img/tt/442tt.jpg","",""
"2190","","","recognition","survey-text","534","1476785","0.0-6.0-3.75","2537313","co39346","norming","","","{""guess"":""animal""}","","../img/tt/442tt.jpg","",""
"null","../img/gs/442gs.jpg","null","reveal","image-keyboard-response","535","1478788","0.0-6.0-4.75","2537313","co39346","norming","","","","","","",""
"null","../img/tt/442tt.jpg","null","mooney2","image-keyboard-response","536","1480790","0.0-6.0-5.75","2537313","co39346","norming","","","","","","",""
"3632.999999999767","","","post_reveal_questions","survey-likert","537","1484423","0.0-6.0-6.75","2537313","co39346","norming","","","{""aha"":4}","[0]","../img/tt/442tt.jpg","",""
"null","<div style=""font-size:60px;""> </div>","null","fixation","html-keyboard-response","538","1484625","0.0-6.0-0.76","2537313","co39346","norming","","","","","","",""
"null","../img/tt/064tt.jpg","null","mooney1","image-keyboard-response","539","1487628","0.0-6.0-1.76","2537313","co39346","norming","","","","","","",""
"3140","","","post_mooney1_questions","survey-likert","540","1490769","0.0-6.0-2.76","2537313","co39346","norming","","","{""curiosity"":5,""confidence"":2}","[0,1]","../img/tt/064tt.jpg","",""
"2517","","","recognition","survey-text","541","1493289","0.0-6.0-3.76","2537313","co39346","norming","","","{""guess"":""turtle""}","","../img/tt/064tt.jpg","",""
"null","../img/gs/064gs.jpg","null","reveal","image-keyboard-response","542","1495292","0.0-6.0-4.76","2537313","co39346","norming","","","","","","",""
"null","../img/tt/064tt.jpg","null","mooney2","image-keyboard-response","543","1497295","0.0-6.0-5.76","2537313","co39346","norming","","","","","","",""
"2755","","","post_reveal_questions","survey-likert","544","1500050","0.0-6.0-6.76","2537313","co39346","norming","","","{""aha"":4}","[0]","../img/tt/064tt.jpg","",""
"null","<div style=""font-size:60px;""> </div>","null","fixation","html-keyboard-response","545","1500251","0.0-6.0-0.77","2537313","co39346","norming","","","","","","",""
"null","../img/tt/1156tt.jpg","null","mooney1","image-keyboard-response","546","1503254","0.0-6.0-1.77","2537313","co39346","norming","","","","","","",""
"5064","","","post_mooney1_questions","survey-likert","547","1508319","0.0-6.0-2.77","2537313","co39346","norming","","","{""curiosity"":5,""confidence"":2}","[0,1]","../img/tt/1156tt.jpg","",""
"3628","","","recognition","survey-text","548","1511950","0.0-6.0-3.77","2537313","co39346","norming","","","{""guess"":""sunbathing""}","","../img/tt/1156tt.jpg","",""
"null","../img/gs/1156gs.jpg","null","reveal","image-keyboard-response","549","1513953","0.0-6.0-4.77","2537313","co39346","norming","","","","","","",""
"null","../img/tt/1156tt.jpg","null","mooney2","image-keyboard-response","550","1515955","0.0-6.0-5.77","2537313","co39346","norming","","","","","","",""
"2893","","","post_reveal_questions","survey-likert","551","1518849","0.0-6.0-6.77","2537313","co39346","norming","","","{""aha"":4}","[0]","../img/tt/1156tt.jpg","",""
"null","<div style=""font-size:60px;""> </div>","null","fixation","html-keyboard-response","552","1519050","0.0-6.0-0.78","2537313","co39346","norming","","","","","","",""
"null","../img/tt/078tt.jpg","null","mooney1","image-keyboard-response","553","1522053","0.0-6.0-1.78","2537313","co39346","norming","","","","","","",""
"5897","","","post_mooney1_questions","survey-likert","554","1527951","0.0-6.0-2.78","2537313","co39346","norming","","","{""curiosity"":4,""confidence"":0}","[0,1]","../img/tt/078tt.jpg","",""
"772","","","recognition","survey-text","555","1528727","0.0-6.0-3.78","2537313","co39346","norming","","","{""guess"":""""}","","../img/tt/078tt.jpg","",""
"null","../img/gs/078gs.jpg","null","reveal","image-keyboard-response","556","1530730","0.0-6.0-4.78","2537313","co39346","norming","","","","","","",""
"null","../img/tt/078tt.jpg","null","mooney2","image-keyboard-response","557","1532732","0.0-6.0-5.78","2537313","co39346","norming","","","","","","",""
"2070","","","post_reveal_questions","survey-likert","558","1534802","0.0-6.0-6.78","2537313","co39346","norming","","","{""aha"":4}","[0]","../img/tt/078tt.jpg","",""
"null","<div style=""font-size:60px;""> </div>","null","fixation","html-keyboard-response","559","1535004","0.0-6.0-0.79","2537313","co39346","norming","","","","","","",""
"null","../img/tt/357tt.jpg","null","mooney1","image-keyboard-response","560","1538007","0.0-6.0-1.79","2537313","co39346","norming","","","","","","",""
"4017","","","post_mooney1_questions","survey-likert","561","1542026","0.0-6.0-2.79","2537313","co39346","norming","","","{""curiosity"":5,""confidence"":0}","[0,1]","../img/tt/357tt.jpg","",""
"850.9999999997672","","","recognition","survey-text","562","1542880","0.0-6.0-3.79","2537313","co39346","norming","","","{""guess"":""""}","","../img/tt/357tt.jpg","",""
"null","../img/gs/357gs.jpg","null","reveal","image-keyboard-response","563","1544883","0.0-6.0-4.79","2537313","co39346","norming","","","","","","",""
"null","../img/tt/357tt.jpg","null","mooney2","image-keyboard-response","564","1546885","0.0-6.0-5.79","2537313","co39346","norming","","","","","","",""
"2092","","","post_reveal_questions","survey-likert","565","1548978","0.0-6.0-6.79","2537313","co39346","norming","","","{""aha"":5}","[0]","../img/tt/357tt.jpg","",""
"19439","<div style='word-wrap: break-word; width: 900px'><h3>Part 2</h3><p>You completed the first phase of the experiment.</p><p>In the next phase you will again see a series of distorted images, some of which you have already encountered in the previous phase.</p><p>You will be asked to indicate whether the image was an old or a new one (one not seen in the previous phase) and subsequently to recognize what is depicted if you can.</p><p>Press any key to start the new phase</p></div>","85","instructions","html-keyboard-response","566","1568418","0.0-7.0","2537313","co39346","norming","","","","","","",""
