"rt","stimulus","key_press","test_part","trial_type","trial_index","time_elapsed","internal_node_id","totalTime","subject","experiment_name","button_pressed","success","responses","question_order","currentStim","old","correct"
"4259.4","Welcome to the experiment. This is an online experiment so please don't close the tab/window until we say goodbye.  Press any key to begin.","13","instructions","html-keyboard-response","0","4266","0.0-0.0","2467003","co39694","norming","","","","","","",""
"3831.7000000000007","<div style='word-wrap: break-word; width: 900px'><h3>Please consider this information carefully before deciding whether to participate in this research</h3><ul style='text-align: left; font-size: .8em;'><li><b>Purpose of the research</b>: To examine how people process images.</li><li><b>What you will do in this research</b>:  Stimuli (images) will be presented on the computer and you will be asked different questions about them.</li><li><b>Time required</b>: Participation will take between 45 and 60 minutes to complete.</li><li><b>Risks</b>:  There are no anticipated risks associated with participating in this study. The effects of participating should be comparable to those you would experience from viewing a computer monitor for 30 minutes and using a mouse or keyboard.</li><li><b>Benefits</b>:  This study provides no benefits to you individually except for the credit. The study provides important information about the nature of perception and learning.</li><li><b>Confidentiality</b>:  Your participation in this study will remain confidential. No personally identifiable information will be associated with your data. Your de-identified data may be shared with other researchers and used in future projects.</li><li><b>Participation and withdrawal</b>:  Your participation in this study is completely voluntary and you may refuse to participate or you may choose to withdraw at any time without penalty.</li><li><b>How to contact the researchers</b>: If you have questions or concerns about your participation or payment, or want to request a summary of research findings, please contact Sander Van de Cruys (KU Leuven), at sander.vandecruys@kuleuven.be.</li></ul><p>The nature and purpose of this research have been sufficiently explained and I agree to participate in this study.  I understand that I am free to withdraw at any time without incurring any penalty.</p><p>Please consent by clicking the button below to continue. Otherwise, please exit the study at this time.</p></div>","","instructions","html-button-response","1","8102","0.0-1.0","2467003","co39694","norming","0","","","","","",""
"","","","instructions","fullscreen","2","11649","0.0-2.0","2467003","co39694","norming","","true","","","","",""
"23141.999999999996","","","sona","survey-html-form","3","34794","0.0-3.0","2467003","co39694","norming","","","[{""name"":""sonaid"",""value"":""39694""},{""name"":""debrief"",""value"":""no""},{""name"":""datajoin"",""value"":""yes""}]","","","",""
"12211.5","<div style='word-wrap: break-word; width: 900px'><h3>Instructions</h3><p>This experiment will have 3 parts. In the first part you will see a series of distorted images like the one below on the left. As you can see in the righthand image, the distorted images are derived from actual photographs. In what follows, you will <strong>briefly</strong> be presented with <strong>only</strong> the distorted image.</p> <div style='float: left; margin-right: 20px;'><img src='../img/018tt.jpg' height='250' width='250'></img></div><div style='float: right; margin-left: 20px;'><img src='../img/018gs.jpg' height='250' width='250'></img></div><p>Subsequently you will be asked a few questions about the image: One question on how <strong>curious</strong> you are about the solution and one on how <strong>confident</strong> you are that you know the solution.</p>Next, we ask you to make a guess on what is in the image. Note that it is OK to name just the <strong>basic level category</strong>. For example when you see a parrot in the image, 'parrot' will obviously be a correct answer but also correct is 'bird'. However, 'animal' will <strong>not</strong> be counted as a correct response. For the example above, 'rose' would be correct or 'flower', but not 'plant'. When soccer players are depicted, 'soccer', 'football', 'soccer players' will be correct, but not 'humans', 'outdoors', or 'sports'. You do not need to describe the image in full, just name the main object in it <strong>in one or two words</strong>. All images depict objects from one of the following broad level categories: animals, inanimate objects, plants, sports, vehicles, and food. Recognizing means knowing <strong>more</strong> than these broad labels for a given image. But we always encourage you to <strong>make a guess</strong> if you can. Note that you are allowed to use <strong>Dutch and English</strong> in your answers, whatever comes easiest for you.</p><p>Press any key to continue.</p></div>","13","instructions","html-keyboard-response","4","47008","0.0-4.0","2467003","co39694","norming","","","","","","",""
"1641.0999999999985","<div style='word-wrap: break-word; width: 900px'><h3>Instructions</h3> <p>Next, the solution image will be revealed to you and you'll be asked to indicate how strong your <strong>aha-experience</strong> was after seeing the solution. This describes the positive feeling of the 'click' you sometimes experience, when the pieces of the 'puzzle' fall together and you suddenly have 'insight' in the image.</p><img src='aha.jpg' height='188' width='250'></img><p>Note that there are no right or wrong answers. We are interested in what <strong>you</strong> see in the image and how <strong>you</strong> feel about it.</p><p>Press any key to start the experiment.</p></div>","13","instructions","html-keyboard-response","5","48650","0.0-5.0","2467003","co39694","norming","","","","","","",""
"null","<div style=""font-size:60px;""> </div>","null","fixation","html-keyboard-response","6","48855","0.0-6.0-0.0","2467003","co39694","norming","","","","","","",""
"null","../img/tt/515tt.jpg","null","mooney1","image-keyboard-response","7","51875","0.0-6.0-1.0","2467003","co39694","norming","","","","","","",""
"7850.9000000000015","","","post_mooney1_questions","survey-likert","8","59731","0.0-6.0-2.0","2467003","co39694","norming","","","{""curiosity"":4,""confidence"":2}","[0,1]","../img/tt/515tt.jpg","",""
"5374.599999999991","","","recognition","survey-text","9","65114","0.0-6.0-3.0","2467003","co39694","norming","","","{""guess"":""""}","","../img/tt/515tt.jpg","",""
"null","../img/gs/515gs.jpg","null","reveal","image-keyboard-response","10","67126","0.0-6.0-4.0","2467003","co39694","norming","","","","","","",""
"null","../img/tt/515tt.jpg","null","mooney2","image-keyboard-response","11","69128","0.0-6.0-5.0","2467003","co39694","norming","","","","","","",""
"4373.600000000006","","","post_reveal_questions","survey-likert","12","73505","0.0-6.0-6.0","2467003","co39694","norming","","","{""aha"":6}","[0]","../img/tt/515tt.jpg","",""
"null","<div style=""font-size:60px;""> </div>","null","fixation","html-keyboard-response","13","73714","0.0-6.0-0.1","2467003","co39694","norming","","","","","","",""
"null","../img/tt/1066tt.jpg","null","mooney1","image-keyboard-response","14","76716","0.0-6.0-1.1","2467003","co39694","norming","","","","","","",""
"6688.399999999994","","","post_mooney1_questions","survey-likert","15","83408","0.0-6.0-2.1","2467003","co39694","norming","","","{""curiosity"":3,""confidence"":4}","[0,1]","../img/tt/1066tt.jpg","",""
"5366.900000000009","","","recognition","survey-text","16","88780","0.0-6.0-3.1","2467003","co39694","norming","","","{""guess"":""Town""}","","../img/tt/1066tt.jpg","",""
"null","../img/gs/1066gs.jpg","null","reveal","image-keyboard-response","17","90795","0.0-6.0-4.1","2467003","co39694","norming","","","","","","",""
"null","../img/tt/1066tt.jpg","null","mooney2","image-keyboard-response","18","92802","0.0-6.0-5.1","2467003","co39694","norming","","","","","","",""
"5530.100000000006","","","post_reveal_questions","survey-likert","19","98335","0.0-6.0-6.1","2467003","co39694","norming","","","{""aha"":6}","[0]","../img/tt/1066tt.jpg","",""
"null","<div style=""font-size:60px;""> </div>","null","fixation","html-keyboard-response","20","98542","0.0-6.0-0.2","2467003","co39694","norming","","","","","","",""
"null","../img/tt/1089tt.jpg","null","mooney1","image-keyboard-response","21","101560","0.0-6.0-1.2","2467003","co39694","norming","","","","","","",""
"5911.099999999991","","","post_mooney1_questions","survey-likert","22","107474","0.0-6.0-2.2","2467003","co39694","norming","","","{""curiosity"":4,""confidence"":4}","[0,1]","../img/tt/1089tt.jpg","",""
"3393.2000000000116","","","recognition","survey-text","23","110876","0.0-6.0-3.2","2467003","co39694","norming","","","{""guess"":""animals""}","","../img/tt/1089tt.jpg","",""
"null","../img/gs/1089gs.jpg","null","reveal","image-keyboard-response","24","112889","0.0-6.0-4.2","2467003","co39694","norming","","","","","","",""
"null","../img/tt/1089tt.jpg","null","mooney2","image-keyboard-response","25","114881","0.0-6.0-5.2","2467003","co39694","norming","","","","","","",""
"3859.800000000003","","","post_reveal_questions","survey-likert","26","118745","0.0-6.0-6.2","2467003","co39694","norming","","","{""aha"":5}","[0]","../img/tt/1089tt.jpg","",""
"null","<div style=""font-size:60px;""> </div>","null","fixation","html-keyboard-response","27","118955","0.0-6.0-0.3","2467003","co39694","norming","","","","","","",""
"null","../img/tt/085tt.jpg","null","mooney1","image-keyboard-response","28","121965","0.0-6.0-1.3","2467003","co39694","norming","","","","","","",""
"6840.299999999988","","","post_mooney1_questions","survey-likert","29","128809","0.0-6.0-2.3","2467003","co39694","norming","","","{""curiosity"":3,""confidence"":1}","[0,1]","../img/tt/085tt.jpg","",""
"4284.700000000012","","","recognition","survey-text","30","133100","0.0-6.0-3.3","2467003","co39694","norming","","","{""guess"":""man""}","","../img/tt/085tt.jpg","",""
"null","../img/gs/085gs.jpg","null","reveal","image-keyboard-response","31","135115","0.0-6.0-4.3","2467003","co39694","norming","","","","","","",""
"null","../img/tt/085tt.jpg","null","mooney2","image-keyboard-response","32","137106","0.0-6.0-5.3","2467003","co39694","norming","","","","","","",""
"5748.5","","","post_reveal_questions","survey-likert","33","142859","0.0-6.0-6.3","2467003","co39694","norming","","","{""aha"":6}","[0]","../img/tt/085tt.jpg","",""
"null","<div style=""font-size:60px;""> </div>","null","fixation","html-keyboard-response","34","143078","0.0-6.0-0.4","2467003","co39694","norming","","","","","","",""
"null","../img/tt/1261tt.jpg","null","mooney1","image-keyboard-response","35","146087","0.0-6.0-1.4","2467003","co39694","norming","","","","","","",""
"7165","","","post_mooney1_questions","survey-likert","36","153256","0.0-6.0-2.4","2467003","co39694","norming","","","{""curiosity"":5,""confidence"":0}","[0,1]","../img/tt/1261tt.jpg","",""
"2349.2000000000116","","","recognition","survey-text","37","155614","0.0-6.0-3.4","2467003","co39694","norming","","","{""guess"":""""}","","../img/tt/1261tt.jpg","",""
"null","../img/gs/1261gs.jpg","null","reveal","image-keyboard-response","38","157630","0.0-6.0-4.4","2467003","co39694","norming","","","","","","",""
"null","../img/tt/1261tt.jpg","null","mooney2","image-keyboard-response","39","159630","0.0-6.0-5.4","2467003","co39694","norming","","","","","","",""
"2625.5","","","post_reveal_questions","survey-likert","40","162258","0.0-6.0-6.4","2467003","co39694","norming","","","{""aha"":6}","[0]","../img/tt/1261tt.jpg","",""
"null","<div style=""font-size:60px;""> </div>","null","fixation","html-keyboard-response","41","162468","0.0-6.0-0.5","2467003","co39694","norming","","","","","","",""
"null","../img/tt/1363tt.jpg","null","mooney1","image-keyboard-response","42","165483","0.0-6.0-1.5","2467003","co39694","norming","","","","","","",""
"10342.800000000017","","","post_mooney1_questions","survey-likert","43","175830","0.0-6.0-2.5","2467003","co39694","norming","","","{""curiosity"":3,""confidence"":1}","[0,1]","../img/tt/1363tt.jpg","",""
"2561.2999999999883","","","recognition","survey-text","44","178400","0.0-6.0-3.5","2467003","co39694","norming","","","{""guess"":""""}","","../img/tt/1363tt.jpg","",""
"null","../img/gs/1363gs.jpg","null","reveal","image-keyboard-response","45","180404","0.0-6.0-4.5","2467003","co39694","norming","","","","","","",""
"null","../img/tt/1363tt.jpg","null","mooney2","image-keyboard-response","46","182407","0.0-6.0-5.5","2467003","co39694","norming","","","","","","",""
"2998.6999999999825","","","post_reveal_questions","survey-likert","47","185412","0.0-6.0-6.5","2467003","co39694","norming","","","{""aha"":6}","[0]","../img/tt/1363tt.jpg","",""
"null","<div style=""font-size:60px;""> </div>","null","fixation","html-keyboard-response","48","185630","0.0-6.0-0.6","2467003","co39694","norming","","","","","","",""
"null","../img/tt/1146tt.jpg","null","mooney1","image-keyboard-response","49","188640","0.0-6.0-1.6","2467003","co39694","norming","","","","","","",""
"12320.899999999994","","","post_mooney1_questions","survey-likert","50","200966","0.0-6.0-2.6","2467003","co39694","norming","","","{""curiosity"":3,""confidence"":4}","[0,1]","../img/tt/1146tt.jpg","",""
"3391.100000000006","","","recognition","survey-text","51","204365","0.0-6.0-3.6","2467003","co39694","norming","","","{""guess"":""weapon""}","","../img/tt/1146tt.jpg","",""
"null","../img/gs/1146gs.jpg","null","reveal","image-keyboard-response","52","206369","0.0-6.0-4.6","2467003","co39694","norming","","","","","","",""
"null","../img/tt/1146tt.jpg","null","mooney2","image-keyboard-response","53","208372","0.0-6.0-5.6","2467003","co39694","norming","","","","","","",""
"2723.8000000000174","","","post_reveal_questions","survey-likert","54","211099","0.0-6.0-6.6","2467003","co39694","norming","","","{""aha"":1}","[0]","../img/tt/1146tt.jpg","",""
"null","<div style=""font-size:60px;""> </div>","null","fixation","html-keyboard-response","55","211311","0.0-6.0-0.7","2467003","co39694","norming","","","","","","",""
"null","../img/tt/052tt.jpg","null","mooney1","image-keyboard-response","56","214330","0.0-6.0-1.7","2467003","co39694","norming","","","","","","",""
"6415.100000000006","","","post_mooney1_questions","survey-likert","57","220748","0.0-6.0-2.7","2467003","co39694","norming","","","{""curiosity"":4,""confidence"":4}","[0,1]","../img/tt/052tt.jpg","",""
"5891.299999999988","","","recognition","survey-text","58","226646","0.0-6.0-3.7","2467003","co39694","norming","","","{""guess"":""tampoline""}","","../img/tt/052tt.jpg","",""
"null","../img/gs/052gs.jpg","null","reveal","image-keyboard-response","59","228653","0.0-6.0-4.7","2467003","co39694","norming","","","","","","",""
"null","../img/tt/052tt.jpg","null","mooney2","image-keyboard-response","60","230653","0.0-6.0-5.7","2467003","co39694","norming","","","","","","",""
"3120.7000000000116","","","post_reveal_questions","survey-likert","61","233777","0.0-6.0-6.7","2467003","co39694","norming","","","{""aha"":6}","[0]","../img/tt/052tt.jpg","",""
"null","<div style=""font-size:60px;""> </div>","null","fixation","html-keyboard-response","62","233995","0.0-6.0-0.8","2467003","co39694","norming","","","","","","",""
"null","../img/tt/1151tt.jpg","null","mooney1","image-keyboard-response","63","237013","0.0-6.0-1.8","2467003","co39694","norming","","","","","","",""
"9537.399999999994","","","post_mooney1_questions","survey-likert","64","246554","0.0-6.0-2.8","2467003","co39694","norming","","","{""curiosity"":5,""confidence"":4}","[0,1]","../img/tt/1151tt.jpg","",""
"3705.399999999994","","","recognition","survey-text","65","250266","0.0-6.0-3.8","2467003","co39694","norming","","","{""guess"":""lawine""}","","../img/tt/1151tt.jpg","",""
"null","../img/gs/1151gs.jpg","null","reveal","image-keyboard-response","66","252279","0.0-6.0-4.8","2467003","co39694","norming","","","","","","",""
"null","../img/tt/1151tt.jpg","null","mooney2","image-keyboard-response","67","254283","0.0-6.0-5.8","2467003","co39694","norming","","","","","","",""
"2939.5","","","post_reveal_questions","survey-likert","68","257226","0.0-6.0-6.8","2467003","co39694","norming","","","{""aha"":6}","[0]","../img/tt/1151tt.jpg","",""
"null","<div style=""font-size:60px;""> </div>","null","fixation","html-keyboard-response","69","257431","0.0-6.0-0.9","2467003","co39694","norming","","","","","","",""
"null","../img/tt/1069tt.jpg","null","mooney1","image-keyboard-response","70","260433","0.0-6.0-1.9","2467003","co39694","norming","","","","","","",""
"7129.699999999953","","","post_mooney1_questions","survey-likert","71","267566","0.0-6.0-2.9","2467003","co39694","norming","","","{""curiosity"":5,""confidence"":0}","[0,1]","../img/tt/1069tt.jpg","",""
"1206.2999999999883","","","recognition","survey-text","72","268781","0.0-6.0-3.9","2467003","co39694","norming","","","{""guess"":""""}","","../img/tt/1069tt.jpg","",""
"null","../img/gs/1069gs.jpg","null","reveal","image-keyboard-response","73","270796","0.0-6.0-4.9","2467003","co39694","norming","","","","","","",""
"null","../img/tt/1069tt.jpg","null","mooney2","image-keyboard-response","74","272787","0.0-6.0-5.9","2467003","co39694","norming","","","","","","",""
"2095.7999999999883","","","post_reveal_questions","survey-likert","75","274885","0.0-6.0-6.9","2467003","co39694","norming","","","{""aha"":6}","[0]","../img/tt/1069tt.jpg","",""
"null","<div style=""font-size:60px;""> </div>","null","fixation","html-keyboard-response","76","275093","0.0-6.0-0.10","2467003","co39694","norming","","","","","","",""
"null","../img/tt/1002tt.jpg","null","mooney1","image-keyboard-response","77","278104","0.0-6.0-1.10","2467003","co39694","norming","","","","","","",""
"4324.200000000012","","","post_mooney1_questions","survey-likert","78","282430","0.0-6.0-2.10","2467003","co39694","norming","","","{""curiosity"":5,""confidence"":2}","[0,1]","../img/tt/1002tt.jpg","",""
"2161.2000000000116","","","recognition","survey-text","79","284599","0.0-6.0-3.10","2467003","co39694","norming","","","{""guess"":""horse""}","","../img/tt/1002tt.jpg","",""
"null","../img/gs/1002gs.jpg","null","reveal","image-keyboard-response","80","286609","0.0-6.0-4.10","2467003","co39694","norming","","","","","","",""
"null","../img/tt/1002tt.jpg","null","mooney2","image-keyboard-response","81","288617","0.0-6.0-5.10","2467003","co39694","norming","","","","","","",""
"2762.899999999965","","","post_reveal_questions","survey-likert","82","291384","0.0-6.0-6.10","2467003","co39694","norming","","","{""aha"":4}","[0]","../img/tt/1002tt.jpg","",""
"null","<div style=""font-size:60px;""> </div>","null","fixation","html-keyboard-response","83","291604","0.0-6.0-0.11","2467003","co39694","norming","","","","","","",""
"null","../img/tt/091tt.jpg","null","mooney1","image-keyboard-response","84","294609","0.0-6.0-1.11","2467003","co39694","norming","","","","","","",""
"6526","","","post_mooney1_questions","survey-likert","85","301140","0.0-6.0-2.11","2467003","co39694","norming","","","{""curiosity"":4,""confidence"":1}","[0,1]","../img/tt/091tt.jpg","",""
"921.6000000000349","","","recognition","survey-text","86","302070","0.0-6.0-3.11","2467003","co39694","norming","","","{""guess"":""""}","","../img/tt/091tt.jpg","",""
"null","../img/gs/091gs.jpg","null","reveal","image-keyboard-response","87","304088","0.0-6.0-4.11","2467003","co39694","norming","","","","","","",""
"null","../img/tt/091tt.jpg","null","mooney2","image-keyboard-response","88","306087","0.0-6.0-5.11","2467003","co39694","norming","","","","","","",""
"3616.2999999999883","","","post_reveal_questions","survey-likert","89","309707","0.0-6.0-6.11","2467003","co39694","norming","","","{""aha"":6}","[0]","../img/tt/091tt.jpg","",""
"null","<div style=""font-size:60px;""> </div>","null","fixation","html-keyboard-response","90","309918","0.0-6.0-0.12","2467003","co39694","norming","","","","","","",""
"null","../img/tt/497tt.jpg","null","mooney1","image-keyboard-response","91","312934","0.0-6.0-1.12","2467003","co39694","norming","","","","","","",""
"7260.5","","","post_mooney1_questions","survey-likert","92","320198","0.0-6.0-2.12","2467003","co39694","norming","","","{""curiosity"":4,""confidence"":1}","[0,1]","../img/tt/497tt.jpg","",""
"3569.5","","","recognition","survey-text","93","323774","0.0-6.0-3.12","2467003","co39694","norming","","","{""guess"":""monument""}","","../img/tt/497tt.jpg","",""
"null","../img/gs/497gs.jpg","null","reveal","image-keyboard-response","94","325778","0.0-6.0-4.12","2467003","co39694","norming","","","","","","",""
"null","../img/tt/497tt.jpg","null","mooney2","image-keyboard-response","95","327779","0.0-6.0-5.12","2467003","co39694","norming","","","","","","",""
"3242.5999999999767","","","post_reveal_questions","survey-likert","96","331024","0.0-6.0-6.12","2467003","co39694","norming","","","{""aha"":5}","[0]","../img/tt/497tt.jpg","",""
"null","<div style=""font-size:60px;""> </div>","null","fixation","html-keyboard-response","97","331226","0.0-6.0-0.13","2467003","co39694","norming","","","","","","",""
"null","../img/tt/082tt.jpg","null","mooney1","image-keyboard-response","98","334235","0.0-6.0-1.13","2467003","co39694","norming","","","","","","",""
"4746.900000000023","","","post_mooney1_questions","survey-likert","99","338987","0.0-6.0-2.13","2467003","co39694","norming","","","{""curiosity"":5,""confidence"":1}","[0,1]","../img/tt/082tt.jpg","",""
"871.2000000000116","","","recognition","survey-text","100","339866","0.0-6.0-3.13","2467003","co39694","norming","","","{""guess"":""""}","","../img/tt/082tt.jpg","",""
"null","../img/gs/082gs.jpg","null","reveal","image-keyboard-response","101","341883","0.0-6.0-4.13","2467003","co39694","norming","","","","","","",""
"null","../img/tt/082tt.jpg","null","mooney2","image-keyboard-response","102","343871","0.0-6.0-5.13","2467003","co39694","norming","","","","","","",""
"4928.400000000023","","","post_reveal_questions","survey-likert","103","348804","0.0-6.0-6.13","2467003","co39694","norming","","","{""aha"":6}","[0]","../img/tt/082tt.jpg","",""
"null","<div style=""font-size:60px;""> </div>","null","fixation","html-keyboard-response","104","349013","0.0-6.0-0.14","2467003","co39694","norming","","","","","","",""
"null","../img/tt/053tt.jpg","null","mooney1","image-keyboard-response","105","352031","0.0-6.0-1.14","2467003","co39694","norming","","","","","","",""
"4212.400000000023","","","post_mooney1_questions","survey-likert","106","356248","0.0-6.0-2.14","2467003","co39694","norming","","","{""curiosity"":5,""confidence"":2}","[0,1]","../img/tt/053tt.jpg","",""
"5120.199999999953","","","recognition","survey-text","107","361377","0.0-6.0-3.14","2467003","co39694","norming","","","{""guess"":""persons""}","","../img/tt/053tt.jpg","",""
"null","../img/gs/053gs.jpg","null","reveal","image-keyboard-response","108","363391","0.0-6.0-4.14","2467003","co39694","norming","","","","","","",""
"null","../img/tt/053tt.jpg","null","mooney2","image-keyboard-response","109","365388","0.0-6.0-5.14","2467003","co39694","norming","","","","","","",""
"3898.899999999965","","","post_reveal_questions","survey-likert","110","369290","0.0-6.0-6.14","2467003","co39694","norming","","","{""aha"":4}","[0]","../img/tt/053tt.jpg","",""
"null","<div style=""font-size:60px;""> </div>","null","fixation","html-keyboard-response","111","369498","0.0-6.0-0.15","2467003","co39694","norming","","","","","","",""
"null","../img/tt/1142tt.jpg","null","mooney1","image-keyboard-response","112","372516","0.0-6.0-1.15","2467003","co39694","norming","","","","","","",""
"5319.400000000023","","","post_mooney1_questions","survey-likert","113","377841","0.0-6.0-2.15","2467003","co39694","norming","","","{""curiosity"":5,""confidence"":5}","[0,1]","../img/tt/1142tt.jpg","",""
"7550.299999999988","","","recognition","survey-text","114","385398","0.0-6.0-3.15","2467003","co39694","norming","","","{""guess"":""sportwoman""}","","../img/tt/1142tt.jpg","",""
"null","../img/gs/1142gs.jpg","null","reveal","image-keyboard-response","115","387403","0.0-6.0-4.15","2467003","co39694","norming","","","","","","",""
"null","../img/tt/1142tt.jpg","null","mooney2","image-keyboard-response","116","389418","0.0-6.0-5.15","2467003","co39694","norming","","","","","","",""
"6215.200000000012","","","post_reveal_questions","survey-likert","117","395639","0.0-6.0-6.15","2467003","co39694","norming","","","{""aha"":4}","[0]","../img/tt/1142tt.jpg","",""
"null","<div style=""font-size:60px;""> </div>","null","fixation","html-keyboard-response","118","395851","0.0-6.0-0.16","2467003","co39694","norming","","","","","","",""
"null","../img/tt/1234tt.jpg","null","mooney1","image-keyboard-response","119","398860","0.0-6.0-1.16","2467003","co39694","norming","","","","","","",""
"4564.900000000023","","","post_mooney1_questions","survey-likert","120","403430","0.0-6.0-2.16","2467003","co39694","norming","","","{""curiosity"":5,""confidence"":4}","[0,1]","../img/tt/1234tt.jpg","",""
"2066.7000000000116","","","recognition","survey-text","121","405504","0.0-6.0-3.16","2467003","co39694","norming","","","{""guess"":""boat""}","","../img/tt/1234tt.jpg","",""
"null","../img/gs/1234gs.jpg","null","reveal","image-keyboard-response","122","407519","0.0-6.0-4.16","2467003","co39694","norming","","","","","","",""
"null","../img/tt/1234tt.jpg","null","mooney2","image-keyboard-response","123","409507","0.0-6.0-5.16","2467003","co39694","norming","","","","","","",""
"4552.099999999977","","","post_reveal_questions","survey-likert","124","414061","0.0-6.0-6.16","2467003","co39694","norming","","","{""aha"":2}","[0]","../img/tt/1234tt.jpg","",""
"null","<div style=""font-size:60px;""> </div>","null","fixation","html-keyboard-response","125","414274","0.0-6.0-0.17","2467003","co39694","norming","","","","","","",""
"null","../img/tt/1181tt.jpg","null","mooney1","image-keyboard-response","126","417284","0.0-6.0-1.17","2467003","co39694","norming","","","","","","",""
"5538.900000000023","","","post_mooney1_questions","survey-likert","127","422825","0.0-6.0-2.17","2467003","co39694","norming","","","{""curiosity"":5,""confidence"":4}","[0,1]","../img/tt/1181tt.jpg","",""
"4301.099999999977","","","recognition","survey-text","128","427135","0.0-6.0-3.17","2467003","co39694","norming","","","{""guess"":""man with cow""}","","../img/tt/1181tt.jpg","",""
"null","../img/gs/1181gs.jpg","null","reveal","image-keyboard-response","129","429154","0.0-6.0-4.17","2467003","co39694","norming","","","","","","",""
"null","../img/tt/1181tt.jpg","null","mooney2","image-keyboard-response","130","431138","0.0-6.0-5.17","2467003","co39694","norming","","","","","","",""
"3542","","","post_reveal_questions","survey-likert","131","434683","0.0-6.0-6.17","2467003","co39694","norming","","","{""aha"":0}","[0]","../img/tt/1181tt.jpg","",""
"null","<div style=""font-size:60px;""> </div>","null","fixation","html-keyboard-response","132","434888","0.0-6.0-0.18","2467003","co39694","norming","","","","","","",""
"null","../img/tt/1084tt.jpg","null","mooney1","image-keyboard-response","133","437906","0.0-6.0-1.18","2467003","co39694","norming","","","","","","",""
"5466.900000000023","","","post_mooney1_questions","survey-likert","134","443375","0.0-6.0-2.18","2467003","co39694","norming","","","{""curiosity"":5,""confidence"":0}","[0,1]","../img/tt/1084tt.jpg","",""
"1158.100000000035","","","recognition","survey-text","135","444541","0.0-6.0-3.18","2467003","co39694","norming","","","{""guess"":""""}","","../img/tt/1084tt.jpg","",""
"null","../img/gs/1084gs.jpg","null","reveal","image-keyboard-response","136","446548","0.0-6.0-4.18","2467003","co39694","norming","","","","","","",""
"null","../img/tt/1084tt.jpg","null","mooney2","image-keyboard-response","137","448557","0.0-6.0-5.18","2467003","co39694","norming","","","","","","",""
"3334.7999999999883","","","post_reveal_questions","survey-likert","138","451896","0.0-6.0-6.18","2467003","co39694","norming","","","{""aha"":6}","[0]","../img/tt/1084tt.jpg","",""
"null","<div style=""font-size:60px;""> </div>","null","fixation","html-keyboard-response","139","452100","0.0-6.0-0.19","2467003","co39694","norming","","","","","","",""
"null","../img/tt/380tt.jpg","null","mooney1","image-keyboard-response","140","455107","0.0-6.0-1.19","2467003","co39694","norming","","","","","","",""
"4697.200000000012","","","post_mooney1_questions","survey-likert","141","459808","0.0-6.0-2.19","2467003","co39694","norming","","","{""curiosity"":5,""confidence"":2}","[0,1]","../img/tt/380tt.jpg","",""
"6325.799999999988","","","recognition","survey-text","142","466143","0.0-6.0-3.19","2467003","co39694","norming","","","{""guess"":""writer""}","","../img/tt/380tt.jpg","",""
"null","../img/gs/380gs.jpg","null","reveal","image-keyboard-response","143","468156","0.0-6.0-4.19","2467003","co39694","norming","","","","","","",""
"null","../img/tt/380tt.jpg","null","mooney2","image-keyboard-response","144","470155","0.0-6.0-5.19","2467003","co39694","norming","","","","","","",""
"2113.2000000000116","","","post_reveal_questions","survey-likert","145","472273","0.0-6.0-6.19","2467003","co39694","norming","","","{""aha"":3}","[0]","../img/tt/380tt.jpg","",""
"null","<div style=""font-size:60px;""> </div>","null","fixation","html-keyboard-response","146","472478","0.0-6.0-0.20","2467003","co39694","norming","","","","","","",""
"null","../img/tt/477tt.jpg","null","mooney1","image-keyboard-response","147","475481","0.0-6.0-1.20","2467003","co39694","norming","","","","","","",""
"6602.599999999977","","","post_mooney1_questions","survey-likert","148","482088","0.0-6.0-2.20","2467003","co39694","norming","","","{""curiosity"":6,""confidence"":1}","[0,1]","../img/tt/477tt.jpg","",""
"1247.100000000035","","","recognition","survey-text","149","483344","0.0-6.0-3.20","2467003","co39694","norming","","","{""guess"":""""}","","../img/tt/477tt.jpg","",""
"null","../img/gs/477gs.jpg","null","reveal","image-keyboard-response","150","485356","0.0-6.0-4.20","2467003","co39694","norming","","","","","","",""
"null","../img/tt/477tt.jpg","null","mooney2","image-keyboard-response","151","487359","0.0-6.0-5.20","2467003","co39694","norming","","","","","","",""
"2992.7999999999883","","","post_reveal_questions","survey-likert","152","490355","0.0-6.0-6.20","2467003","co39694","norming","","","{""aha"":5}","[0]","../img/tt/477tt.jpg","",""
"null","<div style=""font-size:60px;""> </div>","null","fixation","html-keyboard-response","153","490560","0.0-6.0-0.21","2467003","co39694","norming","","","","","","",""
"null","../img/tt/1048tt.jpg","null","mooney1","image-keyboard-response","154","493571","0.0-6.0-1.21","2467003","co39694","norming","","","","","","",""
"5616.299999999988","","","post_mooney1_questions","survey-likert","155","499191","0.0-6.0-2.21","2467003","co39694","norming","","","{""curiosity"":5,""confidence"":2}","[0,1]","../img/tt/1048tt.jpg","",""
"3272.100000000035","","","recognition","survey-text","156","502471","0.0-6.0-3.21","2467003","co39694","norming","","","{""guess"":""nature""}","","../img/tt/1048tt.jpg","",""
"null","../img/gs/1048gs.jpg","null","reveal","image-keyboard-response","157","504478","0.0-6.0-4.21","2467003","co39694","norming","","","","","","",""
"null","../img/tt/1048tt.jpg","null","mooney2","image-keyboard-response","158","506478","0.0-6.0-5.21","2467003","co39694","norming","","","","","","",""
"3001.600000000035","","","post_reveal_questions","survey-likert","159","509483","0.0-6.0-6.21","2467003","co39694","norming","","","{""aha"":1}","[0]","../img/tt/1048tt.jpg","",""
"null","<div style=""font-size:60px;""> </div>","null","fixation","html-keyboard-response","160","509698","0.0-6.0-0.22","2467003","co39694","norming","","","","","","",""
"null","../img/tt/001tt.jpg","null","mooney1","image-keyboard-response","161","512712","0.0-6.0-1.22","2467003","co39694","norming","","","","","","",""
"4843.5","","","post_mooney1_questions","survey-likert","162","517560","0.0-6.0-2.22","2467003","co39694","norming","","","{""curiosity"":5,""confidence"":2}","[0,1]","../img/tt/001tt.jpg","",""
"1926.5","","","recognition","survey-text","163","519494","0.0-6.0-3.22","2467003","co39694","norming","","","{""guess"":""cow""}","","../img/tt/001tt.jpg","",""
"null","../img/gs/001gs.jpg","null","reveal","image-keyboard-response","164","521511","0.0-6.0-4.22","2467003","co39694","norming","","","","","","",""
"null","../img/tt/001tt.jpg","null","mooney2","image-keyboard-response","165","523510","0.0-6.0-5.22","2467003","co39694","norming","","","","","","",""
"2667.5999999999767","","","post_reveal_questions","survey-likert","166","526182","0.0-6.0-6.22","2467003","co39694","norming","","","{""aha"":3}","[0]","../img/tt/001tt.jpg","",""
"null","<div style=""font-size:60px;""> </div>","null","fixation","html-keyboard-response","167","526387","0.0-6.0-0.23","2467003","co39694","norming","","","","","","",""
"null","../img/tt/096tt.jpg","null","mooney1","image-keyboard-response","168","529406","0.0-6.0-1.23","2467003","co39694","norming","","","","","","",""
"6386.29999999993","","","post_mooney1_questions","survey-likert","169","535796","0.0-6.0-2.23","2467003","co39694","norming","","","{""curiosity"":4,""confidence"":6}","[0,1]","../img/tt/096tt.jpg","",""
"5662.099999999977","","","recognition","survey-text","170","541466","0.0-6.0-3.23","2467003","co39694","norming","","","{""guess"":""piano""}","","../img/tt/096tt.jpg","",""
"null","../img/gs/096gs.jpg","null","reveal","image-keyboard-response","171","543482","0.0-6.0-4.23","2467003","co39694","norming","","","","","","",""
"null","../img/tt/096tt.jpg","null","mooney2","image-keyboard-response","172","545479","0.0-6.0-5.23","2467003","co39694","norming","","","","","","",""
"2708.8000000000465","","","post_reveal_questions","survey-likert","173","548192","0.0-6.0-6.23","2467003","co39694","norming","","","{""aha"":0}","[0]","../img/tt/096tt.jpg","",""
"null","<div style=""font-size:60px;""> </div>","null","fixation","html-keyboard-response","174","548406","0.0-6.0-0.24","2467003","co39694","norming","","","","","","",""
"null","../img/tt/440tt.jpg","null","mooney1","image-keyboard-response","175","551422","0.0-6.0-1.24","2467003","co39694","norming","","","","","","",""
"5074.79999999993","","","post_mooney1_questions","survey-likert","176","556501","0.0-6.0-2.24","2467003","co39694","norming","","","{""curiosity"":5,""confidence"":3}","[0,1]","../img/tt/440tt.jpg","",""
"2685.9000000000233","","","recognition","survey-text","177","559194","0.0-6.0-3.24","2467003","co39694","norming","","","{""guess"":""animals""}","","../img/tt/440tt.jpg","",""
"null","../img/gs/440gs.jpg","null","reveal","image-keyboard-response","178","561203","0.0-6.0-4.24","2467003","co39694","norming","","","","","","",""
"null","../img/tt/440tt.jpg","null","mooney2","image-keyboard-response","179","563201","0.0-6.0-5.24","2467003","co39694","norming","","","","","","",""
"3892.5999999999767","","","post_reveal_questions","survey-likert","180","567097","0.0-6.0-6.24","2467003","co39694","norming","","","{""aha"":1}","[0]","../img/tt/440tt.jpg","",""
"null","<div style=""font-size:60px;""> </div>","null","fixation","html-keyboard-response","181","567311","0.0-6.0-0.25","2467003","co39694","norming","","","","","","",""
"null","../img/tt/1290tt.jpg","null","mooney1","image-keyboard-response","182","570329","0.0-6.0-1.25","2467003","co39694","norming","","","","","","",""
"6914.900000000023","","","post_mooney1_questions","survey-likert","183","577249","0.0-6.0-2.25","2467003","co39694","norming","","","{""curiosity"":5,""confidence"":4}","[0,1]","../img/tt/1290tt.jpg","",""
"5164.599999999977","","","recognition","survey-text","184","582423","0.0-6.0-3.25","2467003","co39694","norming","","","{""guess"":""ski in the mountain""}","","../img/tt/1290tt.jpg","",""
"null","../img/gs/1290gs.jpg","null","reveal","image-keyboard-response","185","584437","0.0-6.0-4.25","2467003","co39694","norming","","","","","","",""
"null","../img/tt/1290tt.jpg","null","mooney2","image-keyboard-response","186","586437","0.0-6.0-5.25","2467003","co39694","norming","","","","","","",""
"2244.8000000000465","","","post_reveal_questions","survey-likert","187","588686","0.0-6.0-6.25","2467003","co39694","norming","","","{""aha"":0}","[0]","../img/tt/1290tt.jpg","",""
"null","<div style=""font-size:60px;""> </div>","null","fixation","html-keyboard-response","188","588903","0.0-6.0-0.26","2467003","co39694","norming","","","","","","",""
"null","../img/tt/1278tt.jpg","null","mooney1","image-keyboard-response","189","591917","0.0-6.0-1.26","2467003","co39694","norming","","","","","","",""
"3799.0999999999767","","","post_mooney1_questions","survey-likert","190","595719","0.0-6.0-2.26","2467003","co39694","norming","","","{""curiosity"":5,""confidence"":4}","[0,1]","../img/tt/1278tt.jpg","",""
"2916.8000000000465","","","recognition","survey-text","191","598644","0.0-6.0-3.26","2467003","co39694","norming","","","{""guess"":""2 people""}","","../img/tt/1278tt.jpg","",""
"null","../img/gs/1278gs.jpg","null","reveal","image-keyboard-response","192","600653","0.0-6.0-4.26","2467003","co39694","norming","","","","","","",""
"null","../img/tt/1278tt.jpg","null","mooney2","image-keyboard-response","193","602649","0.0-6.0-5.26","2467003","co39694","norming","","","","","","",""
"4148","","","post_reveal_questions","survey-likert","194","606801","0.0-6.0-6.26","2467003","co39694","norming","","","{""aha"":5}","[0]","../img/tt/1278tt.jpg","",""
"null","<div style=""font-size:60px;""> </div>","null","fixation","html-keyboard-response","195","607008","0.0-6.0-0.27","2467003","co39694","norming","","","","","","",""
"null","../img/tt/1128tt.jpg","null","mooney1","image-keyboard-response","196","610021","0.0-6.0-1.27","2467003","co39694","norming","","","","","","",""
"5611.900000000023","","","post_mooney1_questions","survey-likert","197","615635","0.0-6.0-2.27","2467003","co39694","norming","","","{""curiosity"":5,""confidence"":5}","[0,1]","../img/tt/1128tt.jpg","",""
"3204.5","","","recognition","survey-text","198","618847","0.0-6.0-3.27","2467003","co39694","norming","","","{""guess"":""panda""}","","../img/tt/1128tt.jpg","",""
"null","../img/gs/1128gs.jpg","null","reveal","image-keyboard-response","199","620860","0.0-6.0-4.27","2467003","co39694","norming","","","","","","",""
"null","../img/tt/1128tt.jpg","null","mooney2","image-keyboard-response","200","622866","0.0-6.0-5.27","2467003","co39694","norming","","","","","","",""
"3860.6999999999534","","","post_reveal_questions","survey-likert","201","626730","0.0-6.0-6.27","2467003","co39694","norming","","","{""aha"":5}","[0]","../img/tt/1128tt.jpg","",""
"null","<div style=""font-size:60px;""> </div>","null","fixation","html-keyboard-response","202","626943","0.0-6.0-0.28","2467003","co39694","norming","","","","","","",""
"null","../img/tt/1269tt.jpg","null","mooney1","image-keyboard-response","203","629952","0.0-6.0-1.28","2467003","co39694","norming","","","","","","",""
"4102.599999999977","","","post_mooney1_questions","survey-likert","204","634059","0.0-6.0-2.28","2467003","co39694","norming","","","{""curiosity"":5,""confidence"":5}","[0,1]","../img/tt/1269tt.jpg","",""
"3150.0999999999767","","","recognition","survey-text","205","637216","0.0-6.0-3.28","2467003","co39694","norming","","","{""guess"":""animal""}","","../img/tt/1269tt.jpg","",""
"null","../img/gs/1269gs.jpg","null","reveal","image-keyboard-response","206","639224","0.0-6.0-4.28","2467003","co39694","norming","","","","","","",""
"null","../img/tt/1269tt.jpg","null","mooney2","image-keyboard-response","207","641226","0.0-6.0-5.28","2467003","co39694","norming","","","","","","",""
"3436","","","post_reveal_questions","survey-likert","208","644666","0.0-6.0-6.28","2467003","co39694","norming","","","{""aha"":3}","[0]","../img/tt/1269tt.jpg","",""
"null","<div style=""font-size:60px;""> </div>","null","fixation","html-keyboard-response","209","644885","0.0-6.0-0.29","2467003","co39694","norming","","","","","","",""
"null","../img/tt/534tt.jpg","null","mooney1","image-keyboard-response","210","647900","0.0-6.0-1.29","2467003","co39694","norming","","","","","","",""
"4938.5","","","post_mooney1_questions","survey-likert","211","652843","0.0-6.0-2.29","2467003","co39694","norming","","","{""curiosity"":4,""confidence"":1}","[0,1]","../img/tt/534tt.jpg","",""
"1325.9000000000232","","","recognition","survey-text","212","654178","0.0-6.0-3.29","2467003","co39694","norming","","","{""guess"":""""}","","../img/tt/534tt.jpg","",""
"null","../img/gs/534gs.jpg","null","reveal","image-keyboard-response","213","656183","0.0-6.0-4.29","2467003","co39694","norming","","","","","","",""
"null","../img/tt/534tt.jpg","null","mooney2","image-keyboard-response","214","658197","0.0-6.0-5.29","2467003","co39694","norming","","","","","","",""
"2120.3000000000465","","","post_reveal_questions","survey-likert","215","660321","0.0-6.0-6.29","2467003","co39694","norming","","","{""aha"":2}","[0]","../img/tt/534tt.jpg","",""
"null","<div style=""font-size:60px;""> </div>","null","fixation","html-keyboard-response","216","660540","0.0-6.0-0.30","2467003","co39694","norming","","","","","","",""
"null","../img/tt/1307tt.jpg","null","mooney1","image-keyboard-response","217","663556","0.0-6.0-1.30","2467003","co39694","norming","","","","","","",""
"4722.199999999953","","","post_mooney1_questions","survey-likert","218","668283","0.0-6.0-2.30","2467003","co39694","norming","","","{""curiosity"":5,""confidence"":4}","[0,1]","../img/tt/1307tt.jpg","",""
"2404.4000000000233","","","recognition","survey-text","219","670693","0.0-6.0-3.30","2467003","co39694","norming","","","{""guess"":""bike""}","","../img/tt/1307tt.jpg","",""
"null","../img/gs/1307gs.jpg","null","reveal","image-keyboard-response","220","672700","0.0-6.0-4.30","2467003","co39694","norming","","","","","","",""
"null","../img/tt/1307tt.jpg","null","mooney2","image-keyboard-response","221","674697","0.0-6.0-5.30","2467003","co39694","norming","","","","","","",""
"3126.1999999999534","","","post_reveal_questions","survey-likert","222","677827","0.0-6.0-6.30","2467003","co39694","norming","","","{""aha"":4}","[0]","../img/tt/1307tt.jpg","",""
"null","<div style=""font-size:60px;""> </div>","null","fixation","html-keyboard-response","223","678046","0.0-6.0-0.31","2467003","co39694","norming","","","","","","",""
"null","../img/tt/1189tt.jpg","null","mooney1","image-keyboard-response","224","681060","0.0-6.0-1.31","2467003","co39694","norming","","","","","","",""
"3967.20000000007","","","post_mooney1_questions","survey-likert","225","685030","0.0-6.0-2.31","2467003","co39694","norming","","","{""curiosity"":3,""confidence"":3}","[0,1]","../img/tt/1189tt.jpg","",""
"1479.8000000000465","","","recognition","survey-text","226","686519","0.0-6.0-3.31","2467003","co39694","norming","","","{""guess"":""""}","","../img/tt/1189tt.jpg","",""
"null","../img/gs/1189gs.jpg","null","reveal","image-keyboard-response","227","688529","0.0-6.0-4.31","2467003","co39694","norming","","","","","","",""
"null","../img/tt/1189tt.jpg","null","mooney2","image-keyboard-response","228","690532","0.0-6.0-5.31","2467003","co39694","norming","","","","","","",""
"2942.79999999993","","","post_reveal_questions","survey-likert","229","693478","0.0-6.0-6.31","2467003","co39694","norming","","","{""aha"":5}","[0]","../img/tt/1189tt.jpg","",""
"null","<div style=""font-size:60px;""> </div>","null","fixation","html-keyboard-response","230","693694","0.0-6.0-0.32","2467003","co39694","norming","","","","","","",""
"null","../img/tt/1251tt.jpg","null","mooney1","image-keyboard-response","231","696701","0.0-6.0-1.32","2467003","co39694","norming","","","","","","",""
"4162","","","post_mooney1_questions","survey-likert","232","700867","0.0-6.0-2.32","2467003","co39694","norming","","","{""curiosity"":5,""confidence"":5}","[0,1]","../img/tt/1251tt.jpg","",""
"1945.3999999999068","","","recognition","survey-text","233","702821","0.0-6.0-3.32","2467003","co39694","norming","","","{""guess"":""bear""}","","../img/tt/1251tt.jpg","",""
"null","../img/gs/1251gs.jpg","null","reveal","image-keyboard-response","234","704824","0.0-6.0-4.32","2467003","co39694","norming","","","","","","",""
"null","../img/tt/1251tt.jpg","null","mooney2","image-keyboard-response","235","706838","0.0-6.0-5.32","2467003","co39694","norming","","","","","","",""
"2081.5","","","post_reveal_questions","survey-likert","236","708924","0.0-6.0-6.32","2467003","co39694","norming","","","{""aha"":0}","[0]","../img/tt/1251tt.jpg","",""
"null","<div style=""font-size:60px;""> </div>","null","fixation","html-keyboard-response","237","709130","0.0-6.0-0.33","2467003","co39694","norming","","","","","","",""
"null","../img/tt/481tt.jpg","null","mooney1","image-keyboard-response","238","712151","0.0-6.0-1.33","2467003","co39694","norming","","","","","","",""
"5614.399999999907","","","post_mooney1_questions","survey-likert","239","717769","0.0-6.0-2.33","2467003","co39694","norming","","","{""curiosity"":3,""confidence"":4}","[0,1]","../img/tt/481tt.jpg","",""
"3069.9000000000233","","","recognition","survey-text","240","720847","0.0-6.0-3.33","2467003","co39694","norming","","","{""guess"":""animal""}","","../img/tt/481tt.jpg","",""
"null","../img/gs/481gs.jpg","null","reveal","image-keyboard-response","241","722863","0.0-6.0-4.33","2467003","co39694","norming","","","","","","",""
"null","../img/tt/481tt.jpg","null","mooney2","image-keyboard-response","242","724854","0.0-6.0-5.33","2467003","co39694","norming","","","","","","",""
"2747.29999999993","","","post_reveal_questions","survey-likert","243","727604","0.0-6.0-6.33","2467003","co39694","norming","","","{""aha"":5}","[0]","../img/tt/481tt.jpg","",""
"null","<div style=""font-size:60px;""> </div>","null","fixation","html-keyboard-response","244","727821","0.0-6.0-0.34","2467003","co39694","norming","","","","","","",""
"null","../img/tt/094tt.jpg","null","mooney1","image-keyboard-response","245","730824","0.0-6.0-1.34","2467003","co39694","norming","","","","","","",""
"3905.8000000000465","","","post_mooney1_questions","survey-likert","246","734733","0.0-6.0-2.34","2467003","co39694","norming","","","{""curiosity"":4,""confidence"":3}","[0,1]","../img/tt/094tt.jpg","",""
"1757.5999999999767","","","recognition","survey-text","247","736501","0.0-6.0-3.34","2467003","co39694","norming","","","{""guess"":""""}","","../img/tt/094tt.jpg","",""
"null","../img/gs/094gs.jpg","null","reveal","image-keyboard-response","248","738513","0.0-6.0-4.34","2467003","co39694","norming","","","","","","",""
"null","../img/tt/094tt.jpg","null","mooney2","image-keyboard-response","249","740511","0.0-6.0-5.34","2467003","co39694","norming","","","","","","",""
"2999.9000000000233","","","post_reveal_questions","survey-likert","250","743515","0.0-6.0-6.34","2467003","co39694","norming","","","{""aha"":5}","[0]","../img/tt/094tt.jpg","",""
"null","<div style=""font-size:60px;""> </div>","null","fixation","html-keyboard-response","251","743733","0.0-6.0-0.35","2467003","co39694","norming","","","","","","",""
"null","../img/tt/300tt.jpg","null","mooney1","image-keyboard-response","252","746749","0.0-6.0-1.35","2467003","co39694","norming","","","","","","",""
"5264.900000000023","","","post_mooney1_questions","survey-likert","253","752018","0.0-6.0-2.35","2467003","co39694","norming","","","{""curiosity"":4,""confidence"":0}","[0,1]","../img/tt/300tt.jpg","",""
"1115.6000000000931","","","recognition","survey-text","254","753141","0.0-6.0-3.35","2467003","co39694","norming","","","{""guess"":""""}","","../img/tt/300tt.jpg","",""
"null","../img/gs/300gs.jpg","null","reveal","image-keyboard-response","255","755146","0.0-6.0-4.35","2467003","co39694","norming","","","","","","",""
"null","../img/tt/300tt.jpg","null","mooney2","image-keyboard-response","256","757150","0.0-6.0-5.35","2467003","co39694","norming","","","","","","",""
"1988.6000000000931","","","post_reveal_questions","survey-likert","257","759142","0.0-6.0-6.35","2467003","co39694","norming","","","{""aha"":5}","[0]","../img/tt/300tt.jpg","",""
"null","<div style=""font-size:60px;""> </div>","null","fixation","html-keyboard-response","258","759355","0.0-6.0-0.36","2467003","co39694","norming","","","","","","",""
"null","../img/tt/378tt.jpg","null","mooney1","image-keyboard-response","259","762365","0.0-6.0-1.36","2467003","co39694","norming","","","","","","",""
"4643.599999999977","","","post_mooney1_questions","survey-likert","260","767010","0.0-6.0-2.36","2467003","co39694","norming","","","{""curiosity"":5,""confidence"":4}","[0,1]","../img/tt/378tt.jpg","",""
"1195.9000000000232","","","recognition","survey-text","261","768214","0.0-6.0-3.36","2467003","co39694","norming","","","{""guess"":""""}","","../img/tt/378tt.jpg","",""
"null","../img/gs/378gs.jpg","null","reveal","image-keyboard-response","262","770216","0.0-6.0-4.36","2467003","co39694","norming","","","","","","",""
"null","../img/tt/378tt.jpg","null","mooney2","image-keyboard-response","263","772217","0.0-6.0-5.36","2467003","co39694","norming","","","","","","",""
"5383.900000000023","","","post_reveal_questions","survey-likert","264","777605","0.0-6.0-6.36","2467003","co39694","norming","","","{""aha"":5}","[0]","../img/tt/378tt.jpg","",""
"null","<div style=""font-size:60px;""> </div>","null","fixation","html-keyboard-response","265","777820","0.0-6.0-0.37","2467003","co39694","norming","","","","","","",""
"null","../img/tt/1107tt.jpg","null","mooney1","image-keyboard-response","266","780828","0.0-6.0-1.37","2467003","co39694","norming","","","","","","",""
"5124.100000000093","","","post_mooney1_questions","survey-likert","267","785956","0.0-6.0-2.37","2467003","co39694","norming","","","{""curiosity"":5,""confidence"":3}","[0,1]","../img/tt/1107tt.jpg","",""
"992.2999999999301","","","recognition","survey-text","268","786961","0.0-6.0-3.37","2467003","co39694","norming","","","{""guess"":""""}","","../img/tt/1107tt.jpg","",""
"null","../img/gs/1107gs.jpg","null","reveal","image-keyboard-response","269","788979","0.0-6.0-4.37","2467003","co39694","norming","","","","","","",""
"null","../img/tt/1107tt.jpg","null","mooney2","image-keyboard-response","270","790967","0.0-6.0-5.37","2467003","co39694","norming","","","","","","",""
"3446.0999999999767","","","post_reveal_questions","survey-likert","271","794418","0.0-6.0-6.37","2467003","co39694","norming","","","{""aha"":6}","[0]","../img/tt/1107tt.jpg","",""
"null","<div style=""font-size:60px;""> </div>","null","fixation","html-keyboard-response","272","794624","0.0-6.0-0.38","2467003","co39694","norming","","","","","","",""
"null","../img/tt/1275tt.jpg","null","mooney1","image-keyboard-response","273","797636","0.0-6.0-1.38","2467003","co39694","norming","","","","","","",""
"3665","","","post_mooney1_questions","survey-likert","274","801312","0.0-6.0-2.38","2467003","co39694","norming","","","{""curiosity"":4,""confidence"":4}","[0,1]","../img/tt/1275tt.jpg","",""
"2938","","","recognition","survey-text","275","804258","0.0-6.0-3.38","2467003","co39694","norming","","","{""guess"":""nature""}","","../img/tt/1275tt.jpg","",""
"null","../img/gs/1275gs.jpg","null","reveal","image-keyboard-response","276","806276","0.0-6.0-4.38","2467003","co39694","norming","","","","","","",""
"null","../img/tt/1275tt.jpg","null","mooney2","image-keyboard-response","277","808976","0.0-6.0-5.38","2467003","co39694","norming","","","","","","",""
"3789.5","","","post_reveal_questions","survey-likert","278","812769","0.0-6.0-6.38","2467003","co39694","norming","","","{""aha"":5}","[0]","../img/tt/1275tt.jpg","",""
"null","<div style=""font-size:60px;""> </div>","null","fixation","html-keyboard-response","279","812978","0.0-6.0-0.39","2467003","co39694","norming","","","","","","",""
"null","../img/tt/031tt.jpg","null","mooney1","image-keyboard-response","280","815989","0.0-6.0-1.39","2467003","co39694","norming","","","","","","",""
"5139.100000000093","","","post_mooney1_questions","survey-likert","281","821134","0.0-6.0-2.39","2467003","co39694","norming","","","{""curiosity"":5,""confidence"":6}","[0,1]","../img/tt/031tt.jpg","",""
"1988.2000000000698","","","recognition","survey-text","282","823130","0.0-6.0-3.39","2467003","co39694","norming","","","{""guess"":""bear""}","","../img/tt/031tt.jpg","",""
"null","../img/gs/031gs.jpg","null","reveal","image-keyboard-response","283","825146","0.0-6.0-4.39","2467003","co39694","norming","","","","","","",""
"null","../img/tt/031tt.jpg","null","mooney2","image-keyboard-response","284","827133","0.0-6.0-5.39","2467003","co39694","norming","","","","","","",""
"2207.9000000000233","","","post_reveal_questions","survey-likert","285","829345","0.0-6.0-6.39","2467003","co39694","norming","","","{""aha"":0}","[0]","../img/tt/031tt.jpg","",""
"null","<div style=""font-size:60px;""> </div>","null","fixation","html-keyboard-response","286","829557","0.0-6.0-0.40","2467003","co39694","norming","","","","","","",""
"null","../img/tt/1004tt.jpg","null","mooney1","image-keyboard-response","287","832586","0.0-6.0-1.40","2467003","co39694","norming","","","","","","",""
"4206.800000000047","","","post_mooney1_questions","survey-likert","288","836797","0.0-6.0-2.40","2467003","co39694","norming","","","{""curiosity"":5,""confidence"":1}","[0,1]","../img/tt/1004tt.jpg","",""
"1178.5","","","recognition","survey-text","289","837982","0.0-6.0-3.40","2467003","co39694","norming","","","{""guess"":""""}","","../img/tt/1004tt.jpg","",""
"null","../img/gs/1004gs.jpg","null","reveal","image-keyboard-response","290","839999","0.0-6.0-4.40","2467003","co39694","norming","","","","","","",""
"null","../img/tt/1004tt.jpg","null","mooney2","image-keyboard-response","291","841990","0.0-6.0-5.40","2467003","co39694","norming","","","","","","",""
"4756","","","post_reveal_questions","survey-likert","292","846749","0.0-6.0-6.40","2467003","co39694","norming","","","{""aha"":6}","[0]","../img/tt/1004tt.jpg","",""
"null","<div style=""font-size:60px;""> </div>","null","fixation","html-keyboard-response","293","846954","0.0-6.0-0.41","2467003","co39694","norming","","","","","","",""
"null","../img/tt/358tt.jpg","null","mooney1","image-keyboard-response","294","849961","0.0-6.0-1.41","2467003","co39694","norming","","","","","","",""
"4471.199999999953","","","post_mooney1_questions","survey-likert","295","854436","0.0-6.0-2.41","2467003","co39694","norming","","","{""curiosity"":5,""confidence"":5}","[0,1]","../img/tt/358tt.jpg","",""
"2199.29999999993","","","recognition","survey-text","296","856643","0.0-6.0-3.41","2467003","co39694","norming","","","{""guess"":""animal""}","","../img/tt/358tt.jpg","",""
"null","../img/gs/358gs.jpg","null","reveal","image-keyboard-response","297","858656","0.0-6.0-4.41","2467003","co39694","norming","","","","","","",""
"null","../img/tt/358tt.jpg","null","mooney2","image-keyboard-response","298","860652","0.0-6.0-5.41","2467003","co39694","norming","","","","","","",""
"2678.4000000000233","","","post_reveal_questions","survey-likert","299","863334","0.0-6.0-6.41","2467003","co39694","norming","","","{""aha"":1}","[0]","../img/tt/358tt.jpg","",""
"null","<div style=""font-size:60px;""> </div>","null","fixation","html-keyboard-response","300","863548","0.0-6.0-0.42","2467003","co39694","norming","","","","","","",""
"null","../img/tt/1254tt.jpg","null","mooney1","image-keyboard-response","301","866563","0.0-6.0-1.42","2467003","co39694","norming","","","","","","",""
"4879.900000000023","","","post_mooney1_questions","survey-likert","302","871448","0.0-6.0-2.42","2467003","co39694","norming","","","{""curiosity"":6,""confidence"":6}","[0,1]","../img/tt/1254tt.jpg","",""
"2044.1999999999534","","","recognition","survey-text","303","873500","0.0-6.0-3.42","2467003","co39694","norming","","","{""guess"":""rabbit""}","","../img/tt/1254tt.jpg","",""
"null","../img/gs/1254gs.jpg","null","reveal","image-keyboard-response","304","875516","0.0-6.0-4.42","2467003","co39694","norming","","","","","","",""
"null","../img/tt/1254tt.jpg","null","mooney2","image-keyboard-response","305","877512","0.0-6.0-5.42","2467003","co39694","norming","","","","","","",""
"1899","","","post_reveal_questions","survey-likert","306","879416","0.0-6.0-6.42","2467003","co39694","norming","","","{""aha"":0}","[0]","../img/tt/1254tt.jpg","",""
"null","<div style=""font-size:60px;""> </div>","null","fixation","html-keyboard-response","307","879634","0.0-6.0-0.43","2467003","co39694","norming","","","","","","",""
"null","../img/tt/318tt.jpg","null","mooney1","image-keyboard-response","308","882642","0.0-6.0-1.43","2467003","co39694","norming","","","","","","",""
"4807.599999999977","","","post_mooney1_questions","survey-likert","309","887454","0.0-6.0-2.43","2467003","co39694","norming","","","{""curiosity"":5,""confidence"":4}","[0,1]","../img/tt/318tt.jpg","",""
"1989","","","recognition","survey-text","310","889451","0.0-6.0-3.43","2467003","co39694","norming","","","{""guess"":""car""}","","../img/tt/318tt.jpg","",""
"null","../img/gs/318gs.jpg","null","reveal","image-keyboard-response","311","891467","0.0-6.0-4.43","2467003","co39694","norming","","","","","","",""
"null","../img/tt/318tt.jpg","null","mooney2","image-keyboard-response","312","893468","0.0-6.0-5.43","2467003","co39694","norming","","","","","","",""
"5846.400000000023","","","post_reveal_questions","survey-likert","313","899319","0.0-6.0-6.43","2467003","co39694","norming","","","{""aha"":2}","[0]","../img/tt/318tt.jpg","",""
"null","<div style=""font-size:60px;""> </div>","null","fixation","html-keyboard-response","314","899535","0.0-6.0-0.44","2467003","co39694","norming","","","","","","",""
"null","../img/tt/044tt.jpg","null","mooney1","image-keyboard-response","315","902554","0.0-6.0-1.44","2467003","co39694","norming","","","","","","",""
"5255.699999999953","","","post_mooney1_questions","survey-likert","316","907816","0.0-6.0-2.44","2467003","co39694","norming","","","{""curiosity"":5,""confidence"":3}","[0,1]","../img/tt/044tt.jpg","",""
"1105.0999999999767","","","recognition","survey-text","317","908930","0.0-6.0-3.44","2467003","co39694","norming","","","{""guess"":""""}","","../img/tt/044tt.jpg","",""
"null","../img/gs/044gs.jpg","null","reveal","image-keyboard-response","318","910945","0.0-6.0-4.44","2467003","co39694","norming","","","","","","",""
"null","../img/tt/044tt.jpg","null","mooney2","image-keyboard-response","319","912938","0.0-6.0-5.44","2467003","co39694","norming","","","","","","",""
"3082.0999999999767","","","post_reveal_questions","survey-likert","320","916025","0.0-6.0-6.44","2467003","co39694","norming","","","{""aha"":6}","[0]","../img/tt/044tt.jpg","",""
"null","<div style=""font-size:60px;""> </div>","null","fixation","html-keyboard-response","321","916243","0.0-6.0-0.45","2467003","co39694","norming","","","","","","",""
"null","../img/tt/1235tt.jpg","null","mooney1","image-keyboard-response","322","919249","0.0-6.0-1.45","2467003","co39694","norming","","","","","","",""
"4873.400000000023","","","post_mooney1_questions","survey-likert","323","924127","0.0-6.0-2.45","2467003","co39694","norming","","","{""curiosity"":5,""confidence"":4}","[0,1]","../img/tt/1235tt.jpg","",""
"6312.5","","","recognition","survey-text","324","930447","0.0-6.0-3.45","2467003","co39694","norming","","","{""guess"":""animal""}","","../img/tt/1235tt.jpg","",""
"null","../img/gs/1235gs.jpg","null","reveal","image-keyboard-response","325","932462","0.0-6.0-4.45","2467003","co39694","norming","","","","","","",""
"null","../img/tt/1235tt.jpg","null","mooney2","image-keyboard-response","326","934463","0.0-6.0-5.45","2467003","co39694","norming","","","","","","",""
"6079.79999999993","","","post_reveal_questions","survey-likert","327","940548","0.0-6.0-6.45","2467003","co39694","norming","","","{""aha"":6}","[0]","../img/tt/1235tt.jpg","",""
"null","<div style=""font-size:60px;""> </div>","null","fixation","html-keyboard-response","328","940756","0.0-6.0-0.46","2467003","co39694","norming","","","","","","",""
"null","../img/tt/010tt.jpg","null","mooney1","image-keyboard-response","329","943765","0.0-6.0-1.46","2467003","co39694","norming","","","","","","",""
"5567.699999999953","","","post_mooney1_questions","survey-likert","330","949337","0.0-6.0-2.46","2467003","co39694","norming","","","{""curiosity"":5,""confidence"":4}","[0,1]","../img/tt/010tt.jpg","",""
"4679.800000000047","","","recognition","survey-text","331","954027","0.0-6.0-3.46","2467003","co39694","norming","","","{""guess"":""little bear""}","","../img/tt/010tt.jpg","",""
"null","../img/gs/010gs.jpg","null","reveal","image-keyboard-response","332","956043","0.0-6.0-4.46","2467003","co39694","norming","","","","","","",""
"null","../img/tt/010tt.jpg","null","mooney2","image-keyboard-response","333","958038","0.0-6.0-5.46","2467003","co39694","norming","","","","","","",""
"2157.8000000000465","","","post_reveal_questions","survey-likert","334","960201","0.0-6.0-6.46","2467003","co39694","norming","","","{""aha"":5}","[0]","../img/tt/010tt.jpg","",""
"null","<div style=""font-size:60px;""> </div>","null","fixation","html-keyboard-response","335","960406","0.0-6.0-0.47","2467003","co39694","norming","","","","","","",""
"null","../img/tt/1006tt.jpg","null","mooney1","image-keyboard-response","336","963415","0.0-6.0-1.47","2467003","co39694","norming","","","","","","",""
"3612.600000000093","","","post_mooney1_questions","survey-likert","337","967031","0.0-6.0-2.47","2467003","co39694","norming","","","{""curiosity"":4,""confidence"":5}","[0,1]","../img/tt/1006tt.jpg","",""
"923.1000000000931","","","recognition","survey-text","338","967962","0.0-6.0-3.47","2467003","co39694","norming","","","{""guess"":""""}","","../img/tt/1006tt.jpg","",""
"null","../img/gs/1006gs.jpg","null","reveal","image-keyboard-response","339","969965","0.0-6.0-4.47","2467003","co39694","norming","","","","","","",""
"null","../img/tt/1006tt.jpg","null","mooney2","image-keyboard-response","340","971969","0.0-6.0-5.47","2467003","co39694","norming","","","","","","",""
"2621.899999999907","","","post_reveal_questions","survey-likert","341","974594","0.0-6.0-6.47","2467003","co39694","norming","","","{""aha"":5}","[0]","../img/tt/1006tt.jpg","",""
"null","<div style=""font-size:60px;""> </div>","null","fixation","html-keyboard-response","342","974816","0.0-6.0-0.48","2467003","co39694","norming","","","","","","",""
"null","../img/tt/1227tt.jpg","null","mooney1","image-keyboard-response","343","977822","0.0-6.0-1.48","2467003","co39694","norming","","","","","","",""
"3116.8000000000465","","","post_mooney1_questions","survey-likert","344","980943","0.0-6.0-2.48","2467003","co39694","norming","","","{""curiosity"":4,""confidence"":2}","[0,1]","../img/tt/1227tt.jpg","",""
"962.5","","","recognition","survey-text","345","981914","0.0-6.0-3.48","2467003","co39694","norming","","","{""guess"":""""}","","../img/tt/1227tt.jpg","",""
"null","../img/gs/1227gs.jpg","null","reveal","image-keyboard-response","346","983918","0.0-6.0-4.48","2467003","co39694","norming","","","","","","",""
"null","../img/tt/1227tt.jpg","null","mooney2","image-keyboard-response","347","985920","0.0-6.0-5.48","2467003","co39694","norming","","","","","","",""
"2924.399999999907","","","post_reveal_questions","survey-likert","348","988849","0.0-6.0-6.48","2467003","co39694","norming","","","{""aha"":5}","[0]","../img/tt/1227tt.jpg","",""
"null","<div style=""font-size:60px;""> </div>","null","fixation","html-keyboard-response","349","989056","0.0-6.0-0.49","2467003","co39694","norming","","","","","","",""
"null","../img/tt/105tt.jpg","null","mooney1","image-keyboard-response","350","992073","0.0-6.0-1.49","2467003","co39694","norming","","","","","","",""
"5638.199999999953","","","post_mooney1_questions","survey-likert","351","997716","0.0-6.0-2.49","2467003","co39694","norming","","","{""curiosity"":5,""confidence"":6}","[0,1]","../img/tt/105tt.jpg","",""
"3780.29999999993","","","recognition","survey-text","352","1001504","0.0-6.0-3.49","2467003","co39694","norming","","","{""guess"":""paper clips""}","","../img/tt/105tt.jpg","",""
"null","../img/gs/105gs.jpg","null","reveal","image-keyboard-response","353","1003516","0.0-6.0-4.49","2467003","co39694","norming","","","","","","",""
"null","../img/tt/105tt.jpg","null","mooney2","image-keyboard-response","354","1005524","0.0-6.0-5.49","2467003","co39694","norming","","","","","","",""
"2667.20000000007","","","post_reveal_questions","survey-likert","355","1008195","0.0-6.0-6.49","2467003","co39694","norming","","","{""aha"":0}","[0]","../img/tt/105tt.jpg","",""
"null","<div style=""font-size:60px;""> </div>","null","fixation","html-keyboard-response","356","1008400","0.0-6.0-0.50","2467003","co39694","norming","","","","","","",""
"null","../img/tt/549tt.jpg","null","mooney1","image-keyboard-response","357","1011408","0.0-6.0-1.50","2467003","co39694","norming","","","","","","",""
"3756.4000000000233","","","post_mooney1_questions","survey-likert","358","1015169","0.0-6.0-2.50","2467003","co39694","norming","","","{""curiosity"":5,""confidence"":1}","[0,1]","../img/tt/549tt.jpg","",""
"1077.3000000000465","","","recognition","survey-text","359","1016254","0.0-6.0-3.50","2467003","co39694","norming","","","{""guess"":""""}","","../img/tt/549tt.jpg","",""
"null","../img/gs/549gs.jpg","null","reveal","image-keyboard-response","360","1018269","0.0-6.0-4.50","2467003","co39694","norming","","","","","","",""
"null","../img/tt/549tt.jpg","null","mooney2","image-keyboard-response","361","1020273","0.0-6.0-5.50","2467003","co39694","norming","","","","","","",""
"2393.3000000000465","","","post_reveal_questions","survey-likert","362","1022670","0.0-6.0-6.50","2467003","co39694","norming","","","{""aha"":5}","[0]","../img/tt/549tt.jpg","",""
"null","<div style=""font-size:60px;""> </div>","null","fixation","html-keyboard-response","363","1022873","0.0-6.0-0.51","2467003","co39694","norming","","","","","","",""
"null","../img/tt/590tt.jpg","null","mooney1","image-keyboard-response","364","1025891","0.0-6.0-1.51","2467003","co39694","norming","","","","","","",""
"5602.199999999953","","","post_mooney1_questions","survey-likert","365","1031498","0.0-6.0-2.51","2467003","co39694","norming","","","{""curiosity"":5,""confidence"":4}","[0,1]","../img/tt/590tt.jpg","",""
"3257.1999999999534","","","recognition","survey-text","366","1034763","0.0-6.0-3.51","2467003","co39694","norming","","","{""guess"":""bike""}","","../img/tt/590tt.jpg","",""
"null","../img/gs/590gs.jpg","null","reveal","image-keyboard-response","367","1036774","0.0-6.0-4.51","2467003","co39694","norming","","","","","","",""
"null","../img/tt/590tt.jpg","null","mooney2","image-keyboard-response","368","1038776","0.0-6.0-5.51","2467003","co39694","norming","","","","","","",""
"3299.4000000001397","","","post_reveal_questions","survey-likert","369","1042080","0.0-6.0-6.51","2467003","co39694","norming","","","{""aha"":4}","[0]","../img/tt/590tt.jpg","",""
"null","<div style=""font-size:60px;""> </div>","null","fixation","html-keyboard-response","370","1042301","0.0-6.0-0.52","2467003","co39694","norming","","","","","","",""
"null","../img/tt/1199tt.jpg","null","mooney1","image-keyboard-response","371","1045308","0.0-6.0-1.52","2467003","co39694","norming","","","","","","",""
"4077.600000000093","","","post_mooney1_questions","survey-likert","372","1049390","0.0-6.0-2.52","2467003","co39694","norming","","","{""curiosity"":5,""confidence"":5}","[0,1]","../img/tt/1199tt.jpg","",""
"3727.3000000000465","","","recognition","survey-text","373","1053124","0.0-6.0-3.52","2467003","co39694","norming","","","{""guess"":""circus""}","","../img/tt/1199tt.jpg","",""
"null","../img/gs/1199gs.jpg","null","reveal","image-keyboard-response","374","1055142","0.0-6.0-4.52","2467003","co39694","norming","","","","","","",""
"null","../img/tt/1199tt.jpg","null","mooney2","image-keyboard-response","375","1057136","0.0-6.0-5.52","2467003","co39694","norming","","","","","","",""
"3029.8000000000465","","","post_reveal_questions","survey-likert","376","1060170","0.0-6.0-6.52","2467003","co39694","norming","","","{""aha"":3}","[0]","../img/tt/1199tt.jpg","",""
"null","<div style=""font-size:60px;""> </div>","null","fixation","html-keyboard-response","377","1060391","0.0-6.0-0.53","2467003","co39694","norming","","","","","","",""
"null","../img/tt/1268tt.jpg","null","mooney1","image-keyboard-response","378","1063401","0.0-6.0-1.53","2467003","co39694","norming","","","","","","",""
"3428.399999999907","","","post_mooney1_questions","survey-likert","379","1066833","0.0-6.0-2.53","2467003","co39694","norming","","","{""curiosity"":5,""confidence"":2}","[0,1]","../img/tt/1268tt.jpg","",""
"1489","","","recognition","survey-text","380","1068332","0.0-6.0-3.53","2467003","co39694","norming","","","{""guess"":""""}","","../img/tt/1268tt.jpg","",""
"null","../img/gs/1268gs.jpg","null","reveal","image-keyboard-response","381","1070340","0.0-6.0-4.53","2467003","co39694","norming","","","","","","",""
"null","../img/tt/1268tt.jpg","null","mooney2","image-keyboard-response","382","1072980","0.0-6.0-5.53","2467003","co39694","norming","","","","","","",""
"21545.399999999907","","","post_reveal_questions","survey-likert","383","1094531","0.0-6.0-6.53","2467003","co39694","norming","","","{""aha"":4}","[0]","../img/tt/1268tt.jpg","",""
"null","<div style=""font-size:60px;""> </div>","null","fixation","html-keyboard-response","384","1094743","0.0-6.0-0.54","2467003","co39694","norming","","","","","","",""
"null","../img/tt/1154tt.jpg","null","mooney1","image-keyboard-response","385","1097761","0.0-6.0-1.54","2467003","co39694","norming","","","","","","",""
"4955.800000000047","","","post_mooney1_questions","survey-likert","386","1102722","0.0-6.0-2.54","2467003","co39694","norming","","","{""curiosity"":5,""confidence"":3}","[0,1]","../img/tt/1154tt.jpg","",""
"3245.399999999907","","","recognition","survey-text","387","1105976","0.0-6.0-3.54","2467003","co39694","norming","","","{""guess"":""nature""}","","../img/tt/1154tt.jpg","",""
"null","../img/gs/1154gs.jpg","null","reveal","image-keyboard-response","388","1107980","0.0-6.0-4.54","2467003","co39694","norming","","","","","","",""
"null","../img/tt/1154tt.jpg","null","mooney2","image-keyboard-response","389","1109982","0.0-6.0-5.54","2467003","co39694","norming","","","","","","",""
"2324.8000000000465","","","post_reveal_questions","survey-likert","390","1112311","0.0-6.0-6.54","2467003","co39694","norming","","","{""aha"":5}","[0]","../img/tt/1154tt.jpg","",""
"null","<div style=""font-size:60px;""> </div>","null","fixation","html-keyboard-response","391","1112515","0.0-6.0-0.55","2467003","co39694","norming","","","","","","",""
"null","../img/tt/456tt.jpg","null","mooney1","image-keyboard-response","392","1115527","0.0-6.0-1.55","2467003","co39694","norming","","","","","","",""
"3706.600000000093","","","post_mooney1_questions","survey-likert","393","1119238","0.0-6.0-2.55","2467003","co39694","norming","","","{""curiosity"":5,""confidence"":5}","[0,1]","../img/tt/456tt.jpg","",""
"3170.9000000001397","","","recognition","survey-text","394","1122418","0.0-6.0-3.55","2467003","co39694","norming","","","{""guess"":""mountain""}","","../img/tt/456tt.jpg","",""
"null","../img/gs/456gs.jpg","null","reveal","image-keyboard-response","395","1124432","0.0-6.0-4.55","2467003","co39694","norming","","","","","","",""
"null","../img/tt/456tt.jpg","null","mooney2","image-keyboard-response","396","1126439","0.0-6.0-5.55","2467003","co39694","norming","","","","","","",""
"3333","","","post_reveal_questions","survey-likert","397","1129777","0.0-6.0-6.55","2467003","co39694","norming","","","{""aha"":6}","[0]","../img/tt/456tt.jpg","",""
"null","<div style=""font-size:60px;""> </div>","null","fixation","html-keyboard-response","398","1129989","0.0-6.0-0.56","2467003","co39694","norming","","","","","","",""
"null","../img/tt/1239tt.jpg","null","mooney1","image-keyboard-response","399","1132998","0.0-6.0-1.56","2467003","co39694","norming","","","","","","",""
"5549","","","post_mooney1_questions","survey-likert","400","1138551","0.0-6.0-2.56","2467003","co39694","norming","","","{""curiosity"":5,""confidence"":6}","[0,1]","../img/tt/1239tt.jpg","",""
"2725.100000000093","","","recognition","survey-text","401","1141285","0.0-6.0-3.56","2467003","co39694","norming","","","{""guess"":""dog""}","","../img/tt/1239tt.jpg","",""
"null","../img/gs/1239gs.jpg","null","reveal","image-keyboard-response","402","1143973","0.0-6.0-4.56","2467003","co39694","norming","","","","","","",""
"null","../img/tt/1239tt.jpg","null","mooney2","image-keyboard-response","403","1145958","0.0-6.0-5.56","2467003","co39694","norming","","","","","","",""
"3828","","","post_reveal_questions","survey-likert","404","1149788","0.0-6.0-6.56","2467003","co39694","norming","","","{""aha"":0}","[0]","../img/tt/1239tt.jpg","",""
"null","<div style=""font-size:60px;""> </div>","null","fixation","html-keyboard-response","405","1149996","0.0-6.0-0.57","2467003","co39694","norming","","","","","","",""
"null","../img/tt/108tt.jpg","null","mooney1","image-keyboard-response","406","1153014","0.0-6.0-1.57","2467003","co39694","norming","","","","","","",""
"4201.5","","","post_mooney1_questions","survey-likert","407","1157222","0.0-6.0-2.57","2467003","co39694","norming","","","{""curiosity"":5,""confidence"":4}","[0,1]","../img/tt/108tt.jpg","",""
"3090.7999999998137","","","recognition","survey-text","408","1160321","0.0-6.0-3.57","2467003","co39694","norming","","","{""guess"":""pigs""}","","../img/tt/108tt.jpg","",""
"null","../img/gs/108gs.jpg","null","reveal","image-keyboard-response","409","1162338","0.0-6.0-4.57","2467003","co39694","norming","","","","","","",""
"null","../img/tt/108tt.jpg","null","mooney2","image-keyboard-response","410","1164329","0.0-6.0-5.57","2467003","co39694","norming","","","","","","",""
"2252.6999999999534","","","post_reveal_questions","survey-likert","411","1166586","0.0-6.0-6.57","2467003","co39694","norming","","","{""aha"":3}","[0]","../img/tt/108tt.jpg","",""
"null","<div style=""font-size:60px;""> </div>","null","fixation","html-keyboard-response","412","1166798","0.0-6.0-0.58","2467003","co39694","norming","","","","","","",""
"null","../img/tt/522tt.jpg","null","mooney1","image-keyboard-response","413","1169808","0.0-6.0-1.58","2467003","co39694","norming","","","","","","",""
"5786","","","post_mooney1_questions","survey-likert","414","1175598","0.0-6.0-2.58","2467003","co39694","norming","","","{""curiosity"":5,""confidence"":4}","[0,1]","../img/tt/522tt.jpg","",""
"2978.600000000093","","","recognition","survey-text","415","1178585","0.0-6.0-3.58","2467003","co39694","norming","","","{""guess"":""cat""}","","../img/tt/522tt.jpg","",""
"null","../img/gs/522gs.jpg","null","reveal","image-keyboard-response","416","1180588","0.0-6.0-4.58","2467003","co39694","norming","","","","","","",""
"null","../img/tt/522tt.jpg","null","mooney2","image-keyboard-response","417","1182602","0.0-6.0-5.58","2467003","co39694","norming","","","","","","",""
"1950.8000000000465","","","post_reveal_questions","survey-likert","418","1184557","0.0-6.0-6.58","2467003","co39694","norming","","","{""aha"":1}","[0]","../img/tt/522tt.jpg","",""
"null","<div style=""font-size:60px;""> </div>","null","fixation","html-keyboard-response","419","1184773","0.0-6.0-0.59","2467003","co39694","norming","","","","","","",""
"null","../img/tt/1087tt.jpg","null","mooney1","image-keyboard-response","420","1187779","0.0-6.0-1.59","2467003","co39694","norming","","","","","","",""
"3631.399999999907","","","post_mooney1_questions","survey-likert","421","1191416","0.0-6.0-2.59","2467003","co39694","norming","","","{""curiosity"":5,""confidence"":5}","[0,1]","../img/tt/1087tt.jpg","",""
"2827","","","recognition","survey-text","422","1194250","0.0-6.0-3.59","2467003","co39694","norming","","","{""guess"":""cows""}","","../img/tt/1087tt.jpg","",""
"null","../img/gs/1087gs.jpg","null","reveal","image-keyboard-response","423","1196265","0.0-6.0-4.59","2467003","co39694","norming","","","","","","",""
"null","../img/tt/1087tt.jpg","null","mooney2","image-keyboard-response","424","1198261","0.0-6.0-5.59","2467003","co39694","norming","","","","","","",""
"2148.7999999998137","","","post_reveal_questions","survey-likert","425","1200414","0.0-6.0-6.59","2467003","co39694","norming","","","{""aha"":6}","[0]","../img/tt/1087tt.jpg","",""
"null","<div style=""font-size:60px;""> </div>","null","fixation","html-keyboard-response","426","1200633","0.0-6.0-0.60","2467003","co39694","norming","","","","","","",""
"null","../img/tt/524tt.jpg","null","mooney1","image-keyboard-response","427","1203639","0.0-6.0-1.60","2467003","co39694","norming","","","","","","",""
"4233.100000000093","","","post_mooney1_questions","survey-likert","428","1207876","0.0-6.0-2.60","2467003","co39694","norming","","","{""curiosity"":5,""confidence"":4}","[0,1]","../img/tt/524tt.jpg","",""
"3164.7000000001862","","","recognition","survey-text","429","1211047","0.0-6.0-3.60","2467003","co39694","norming","","","{""guess"":""animal""}","","../img/tt/524tt.jpg","",""
"null","../img/gs/524gs.jpg","null","reveal","image-keyboard-response","430","1213062","0.0-6.0-4.60","2467003","co39694","norming","","","","","","",""
"null","../img/tt/524tt.jpg","null","mooney2","image-keyboard-response","431","1215056","0.0-6.0-5.60","2467003","co39694","norming","","","","","","",""
"6265.300000000047","","","post_reveal_questions","survey-likert","432","1221326","0.0-6.0-6.60","2467003","co39694","norming","","","{""aha"":5}","[0]","../img/tt/524tt.jpg","",""
"null","<div style=""font-size:60px;""> </div>","null","fixation","html-keyboard-response","433","1221543","0.0-6.0-0.61","2467003","co39694","norming","","","","","","",""
"null","../img/tt/1262tt.jpg","null","mooney1","image-keyboard-response","434","1224562","0.0-6.0-1.61","2467003","co39694","norming","","","","","","",""
"4345.699999999953","","","post_mooney1_questions","survey-likert","435","1228910","0.0-6.0-2.61","2467003","co39694","norming","","","{""curiosity"":5,""confidence"":4}","[0,1]","../img/tt/1262tt.jpg","",""
"2411.100000000093","","","recognition","survey-text","436","1231329","0.0-6.0-3.61","2467003","co39694","norming","","","{""guess"":""animal""}","","../img/tt/1262tt.jpg","",""
"null","../img/gs/1262gs.jpg","null","reveal","image-keyboard-response","437","1233343","0.0-6.0-4.61","2467003","co39694","norming","","","","","","",""
"null","../img/tt/1262tt.jpg","null","mooney2","image-keyboard-response","438","1235338","0.0-6.0-5.61","2467003","co39694","norming","","","","","","",""
"1983.7000000001862","","","post_reveal_questions","survey-likert","439","1237325","0.0-6.0-6.61","2467003","co39694","norming","","","{""aha"":6}","[0]","../img/tt/1262tt.jpg","",""
"null","<div style=""font-size:60px;""> </div>","null","fixation","html-keyboard-response","440","1237544","0.0-6.0-0.62","2467003","co39694","norming","","","","","","",""
"null","../img/tt/1143tt.jpg","null","mooney1","image-keyboard-response","441","1240561","0.0-6.0-1.62","2467003","co39694","norming","","","","","","",""
"3535.100000000093","","","post_mooney1_questions","survey-likert","442","1244101","0.0-6.0-2.62","2467003","co39694","norming","","","{""curiosity"":5,""confidence"":5}","[0,1]","../img/tt/1143tt.jpg","",""
"3744.899999999907","","","recognition","survey-text","443","1247853","0.0-6.0-3.62","2467003","co39694","norming","","","{""guess"":""fitness""}","","../img/tt/1143tt.jpg","",""
"null","../img/gs/1143gs.jpg","null","reveal","image-keyboard-response","444","1249869","0.0-6.0-4.62","2467003","co39694","norming","","","","","","",""
"null","../img/tt/1143tt.jpg","null","mooney2","image-keyboard-response","445","1251855","0.0-6.0-5.62","2467003","co39694","norming","","","","","","",""
"2280.6999999999534","","","post_reveal_questions","survey-likert","446","1254140","0.0-6.0-6.62","2467003","co39694","norming","","","{""aha"":0}","[0]","../img/tt/1143tt.jpg","",""
"null","<div style=""font-size:60px;""> </div>","null","fixation","html-keyboard-response","447","1254343","0.0-6.0-0.63","2467003","co39694","norming","","","","","","",""
"null","../img/tt/008tt.jpg","null","mooney1","image-keyboard-response","448","1257353","0.0-6.0-1.63","2467003","co39694","norming","","","","","","",""
"3508.2999999998137","","","post_mooney1_questions","survey-likert","449","1260866","0.0-6.0-2.63","2467003","co39694","norming","","","{""curiosity"":5,""confidence"":4}","[0,1]","../img/tt/008tt.jpg","",""
"4210.199999999953","","","recognition","survey-text","450","1265085","0.0-6.0-3.63","2467003","co39694","norming","","","{""guess"":""strijkijzer""}","","../img/tt/008tt.jpg","",""
"null","../img/gs/008gs.jpg","null","reveal","image-keyboard-response","451","1267095","0.0-6.0-4.63","2467003","co39694","norming","","","","","","",""
"null","../img/tt/008tt.jpg","null","mooney2","image-keyboard-response","452","1269088","0.0-6.0-5.63","2467003","co39694","norming","","","","","","",""
"1918.0999999998603","","","post_reveal_questions","survey-likert","453","1271009","0.0-6.0-6.63","2467003","co39694","norming","","","{""aha"":3}","[0]","../img/tt/008tt.jpg","",""
"null","<div style=""font-size:60px;""> </div>","null","fixation","html-keyboard-response","454","1271215","0.0-6.0-0.64","2467003","co39694","norming","","","","","","",""
"null","../img/tt/1127tt.jpg","null","mooney1","image-keyboard-response","455","1274235","0.0-6.0-1.64","2467003","co39694","norming","","","","","","",""
"5062.299999999814","","","post_mooney1_questions","survey-likert","456","1279302","0.0-6.0-2.64","2467003","co39694","norming","","","{""curiosity"":5,""confidence"":4}","[0,1]","../img/tt/1127tt.jpg","",""
"3464.899999999907","","","recognition","survey-text","457","1282776","0.0-6.0-3.64","2467003","co39694","norming","","","{""guess"":""party""}","","../img/tt/1127tt.jpg","",""
"null","../img/gs/1127gs.jpg","null","reveal","image-keyboard-response","458","1284788","0.0-6.0-4.64","2467003","co39694","norming","","","","","","",""
"null","../img/tt/1127tt.jpg","null","mooney2","image-keyboard-response","459","1286782","0.0-6.0-5.64","2467003","co39694","norming","","","","","","",""
"2629","","","post_reveal_questions","survey-likert","460","1289416","0.0-6.0-6.64","2467003","co39694","norming","","","{""aha"":4}","[0]","../img/tt/1127tt.jpg","",""
"null","<div style=""font-size:60px;""> </div>","null","fixation","html-keyboard-response","461","1289621","0.0-6.0-0.65","2467003","co39694","norming","","","","","","",""
"null","../img/tt/1224tt.jpg","null","mooney1","image-keyboard-response","462","1292640","0.0-6.0-1.65","2467003","co39694","norming","","","","","","",""
"3130.600000000093","","","post_mooney1_questions","survey-likert","463","1295775","0.0-6.0-2.65","2467003","co39694","norming","","","{""curiosity"":5,""confidence"":4}","[0,1]","../img/tt/1224tt.jpg","",""
"2590","","","recognition","survey-text","464","1298372","0.0-6.0-3.65","2467003","co39694","norming","","","{""guess"":""accident""}","","../img/tt/1224tt.jpg","",""
"null","../img/gs/1224gs.jpg","null","reveal","image-keyboard-response","465","1300389","0.0-6.0-4.65","2467003","co39694","norming","","","","","","",""
"null","../img/tt/1224tt.jpg","null","mooney2","image-keyboard-response","466","1302383","0.0-6.0-5.65","2467003","co39694","norming","","","","","","",""
"2702.6999999999534","","","post_reveal_questions","survey-likert","467","1305091","0.0-6.0-6.65","2467003","co39694","norming","","","{""aha"":5}","[0]","../img/tt/1224tt.jpg","",""
"null","<div style=""font-size:60px;""> </div>","null","fixation","html-keyboard-response","468","1305308","0.0-6.0-0.66","2467003","co39694","norming","","","","","","",""
"null","../img/tt/1053tt.jpg","null","mooney1","image-keyboard-response","469","1308313","0.0-6.0-1.66","2467003","co39694","norming","","","","","","",""
"4434.5","","","post_mooney1_questions","survey-likert","470","1312756","0.0-6.0-2.66","2467003","co39694","norming","","","{""curiosity"":5,""confidence"":3}","[0,1]","../img/tt/1053tt.jpg","",""
"3394.9000000001397","","","recognition","survey-text","471","1316159","0.0-6.0-3.66","2467003","co39694","norming","","","{""guess"":""accident""}","","../img/tt/1053tt.jpg","",""
"null","../img/gs/1053gs.jpg","null","reveal","image-keyboard-response","472","1318170","0.0-6.0-4.66","2467003","co39694","norming","","","","","","",""
"null","../img/tt/1053tt.jpg","null","mooney2","image-keyboard-response","473","1320969","0.0-6.0-5.66","2467003","co39694","norming","","","","","","",""
"7180.5","","","post_reveal_questions","survey-likert","474","1328155","0.0-6.0-6.66","2467003","co39694","norming","","","{""aha"":3}","[0]","../img/tt/1053tt.jpg","",""
"null","<div style=""font-size:60px;""> </div>","null","fixation","html-keyboard-response","475","1328375","0.0-6.0-0.67","2467003","co39694","norming","","","","","","",""
"null","../img/tt/599tt.jpg","null","mooney1","image-keyboard-response","476","1331380","0.0-6.0-1.67","2467003","co39694","norming","","","","","","",""
"3807.4000000001397","","","post_mooney1_questions","survey-likert","477","1335192","0.0-6.0-2.67","2467003","co39694","norming","","","{""curiosity"":5,""confidence"":5}","[0,1]","../img/tt/599tt.jpg","",""
"3353.3000000000465","","","recognition","survey-text","478","1338554","0.0-6.0-3.67","2467003","co39694","norming","","","{""guess"":""butterfly""}","","../img/tt/599tt.jpg","",""
"null","../img/gs/599gs.jpg","null","reveal","image-keyboard-response","479","1340558","0.0-6.0-4.67","2467003","co39694","norming","","","","","","",""
"null","../img/tt/599tt.jpg","null","mooney2","image-keyboard-response","480","1342569","0.0-6.0-5.67","2467003","co39694","norming","","","","","","",""
"2680","","","post_reveal_questions","survey-likert","481","1345256","0.0-6.0-6.67","2467003","co39694","norming","","","{""aha"":4}","[0]","../img/tt/599tt.jpg","",""
"null","<div style=""font-size:60px;""> </div>","null","fixation","html-keyboard-response","482","1345466","0.0-6.0-0.68","2467003","co39694","norming","","","","","","",""
"null","../img/tt/1091tt.jpg","null","mooney1","image-keyboard-response","483","1348477","0.0-6.0-1.68","2467003","co39694","norming","","","","","","",""
"4248.800000000047","","","post_mooney1_questions","survey-likert","484","1352727","0.0-6.0-2.68","2467003","co39694","norming","","","{""curiosity"":5,""confidence"":3}","[0,1]","../img/tt/1091tt.jpg","",""
"1055.8000000000465","","","recognition","survey-text","485","1353791","0.0-6.0-3.68","2467003","co39694","norming","","","{""guess"":""""}","","../img/tt/1091tt.jpg","",""
"null","../img/gs/1091gs.jpg","null","reveal","image-keyboard-response","486","1355807","0.0-6.0-4.68","2467003","co39694","norming","","","","","","",""
"null","../img/tt/1091tt.jpg","null","mooney2","image-keyboard-response","487","1357803","0.0-6.0-5.68","2467003","co39694","norming","","","","","","",""
"2577.100000000093","","","post_reveal_questions","survey-likert","488","1360384","0.0-6.0-6.68","2467003","co39694","norming","","","{""aha"":5}","[0]","../img/tt/1091tt.jpg","",""
"null","<div style=""font-size:60px;""> </div>","null","fixation","html-keyboard-response","489","1360586","0.0-6.0-0.69","2467003","co39694","norming","","","","","","",""
"null","../img/tt/1190tt.jpg","null","mooney1","image-keyboard-response","490","1363593","0.0-6.0-1.69","2467003","co39694","norming","","","","","","",""
"7702.800000000047","","","post_mooney1_questions","survey-likert","491","1371300","0.0-6.0-2.69","2467003","co39694","norming","","","{""curiosity"":4,""confidence"":4}","[0,1]","../img/tt/1190tt.jpg","",""
"3211.600000000093","","","recognition","survey-text","492","1374522","0.0-6.0-3.69","2467003","co39694","norming","","","{""guess"":""animal""}","","../img/tt/1190tt.jpg","",""
"null","../img/gs/1190gs.jpg","null","reveal","image-keyboard-response","493","1376534","0.0-6.0-4.69","2467003","co39694","norming","","","","","","",""
"null","../img/tt/1190tt.jpg","null","mooney2","image-keyboard-response","494","1378540","0.0-6.0-5.69","2467003","co39694","norming","","","","","","",""
"3265.4000000001397","","","post_reveal_questions","survey-likert","495","1381810","0.0-6.0-6.69","2467003","co39694","norming","","","{""aha"":6}","[0]","../img/tt/1190tt.jpg","",""
"null","<div style=""font-size:60px;""> </div>","null","fixation","html-keyboard-response","496","1382028","0.0-6.0-0.70","2467003","co39694","norming","","","","","","",""
"null","../img/tt/436tt.jpg","null","mooney1","image-keyboard-response","497","1385038","0.0-6.0-1.70","2467003","co39694","norming","","","","","","",""
"5019.300000000047","","","post_mooney1_questions","survey-likert","498","1390061","0.0-6.0-2.70","2467003","co39694","norming","","","{""curiosity"":5,""confidence"":1}","[0,1]","../img/tt/436tt.jpg","",""
"3747.1999999999534","","","recognition","survey-text","499","1393819","0.0-6.0-3.70","2467003","co39694","norming","","","{""guess"":""""}","","../img/tt/436tt.jpg","",""
"null","../img/gs/436gs.jpg","null","reveal","image-keyboard-response","500","1395828","0.0-6.0-4.70","2467003","co39694","norming","","","","","","",""
"null","../img/tt/436tt.jpg","null","mooney2","image-keyboard-response","501","1397982","0.0-6.0-5.70","2467003","co39694","norming","","","","","","",""
"8391","","","post_reveal_questions","survey-likert","502","1406385","0.0-6.0-6.70","2467003","co39694","norming","","","{""aha"":3}","[0]","../img/tt/436tt.jpg","",""
"null","<div style=""font-size:60px;""> </div>","null","fixation","html-keyboard-response","503","1406589","0.0-6.0-0.71","2467003","co39694","norming","","","","","","",""
"null","../img/tt/1211tt.jpg","null","mooney1","image-keyboard-response","504","1409604","0.0-6.0-1.71","2467003","co39694","norming","","","","","","",""
"4011.7000000001862","","","post_mooney1_questions","survey-likert","505","1413620","0.0-6.0-2.71","2467003","co39694","norming","","","{""curiosity"":5,""confidence"":5}","[0,1]","../img/tt/1211tt.jpg","",""
"2387.100000000093","","","recognition","survey-text","506","1416015","0.0-6.0-3.71","2467003","co39694","norming","","","{""guess"":""road""}","","../img/tt/1211tt.jpg","",""
"null","../img/gs/1211gs.jpg","null","reveal","image-keyboard-response","507","1418031","0.0-6.0-4.71","2467003","co39694","norming","","","","","","",""
"null","../img/tt/1211tt.jpg","null","mooney2","image-keyboard-response","508","1420969","0.0-6.0-5.71","2467003","co39694","norming","","","","","","",""
"21256.800000000046","","","post_reveal_questions","survey-likert","509","1442233","0.0-6.0-6.71","2467003","co39694","norming","","","{""aha"":3}","[0]","../img/tt/1211tt.jpg","",""
"null","<div style=""font-size:60px;""> </div>","null","fixation","html-keyboard-response","510","1442437","0.0-6.0-0.72","2467003","co39694","norming","","","","","","",""
"null","../img/tt/1353tt.jpg","null","mooney1","image-keyboard-response","511","1445451","0.0-6.0-1.72","2467003","co39694","norming","","","","","","",""
"3621.2999999998137","","","post_mooney1_questions","survey-likert","512","1449076","0.0-6.0-2.72","2467003","co39694","norming","","","{""curiosity"":5,""confidence"":1}","[0,1]","../img/tt/1353tt.jpg","",""
"2447.3000000000465","","","recognition","survey-text","513","1451538","0.0-6.0-3.72","2467003","co39694","norming","","","{""guess"":""""}","","../img/tt/1353tt.jpg","",""
"null","../img/gs/1353gs.jpg","null","reveal","image-keyboard-response","514","1453543","0.0-6.0-4.72","2467003","co39694","norming","","","","","","",""
"null","../img/tt/1353tt.jpg","null","mooney2","image-keyboard-response","515","1455546","0.0-6.0-5.72","2467003","co39694","norming","","","","","","",""
"3328.1999999999534","","","post_reveal_questions","survey-likert","516","1458878","0.0-6.0-6.72","2467003","co39694","norming","","","{""aha"":3}","[0]","../img/tt/1353tt.jpg","",""
"null","<div style=""font-size:60px;""> </div>","null","fixation","html-keyboard-response","517","1459087","0.0-6.0-0.73","2467003","co39694","norming","","","","","","",""
"null","../img/tt/319tt.jpg","null","mooney1","image-keyboard-response","518","1462102","0.0-6.0-1.73","2467003","co39694","norming","","","","","","",""
"3628.399999999907","","","post_mooney1_questions","survey-likert","519","1465735","0.0-6.0-2.73","2467003","co39694","norming","","","{""curiosity"":4,""confidence"":4}","[0,1]","../img/tt/319tt.jpg","",""
"3992","","","recognition","survey-text","520","1469735","0.0-6.0-3.73","2467003","co39694","norming","","","{""guess"":""horses or cows""}","","../img/tt/319tt.jpg","",""
"null","../img/gs/319gs.jpg","null","reveal","image-keyboard-response","521","1471745","0.0-6.0-4.73","2467003","co39694","norming","","","","","","",""
"null","../img/tt/319tt.jpg","null","mooney2","image-keyboard-response","522","1473743","0.0-6.0-5.73","2467003","co39694","norming","","","","","","",""
"2531.9000000001397","","","post_reveal_questions","survey-likert","523","1476280","0.0-6.0-6.73","2467003","co39694","norming","","","{""aha"":4}","[0]","../img/tt/319tt.jpg","",""
"null","<div style=""font-size:60px;""> </div>","null","fixation","html-keyboard-response","524","1476500","0.0-6.0-0.74","2467003","co39694","norming","","","","","","",""
"null","../img/tt/1186tt.jpg","null","mooney1","image-keyboard-response","525","1479512","0.0-6.0-1.74","2467003","co39694","norming","","","","","","",""
"4001.7999999998137","","","post_mooney1_questions","survey-likert","526","1483518","0.0-6.0-2.74","2467003","co39694","norming","","","{""curiosity"":5,""confidence"":4}","[0,1]","../img/tt/1186tt.jpg","",""
"2869.6999999999534","","","recognition","survey-text","527","1486396","0.0-6.0-3.74","2467003","co39694","norming","","","{""guess"":""sporter""}","","../img/tt/1186tt.jpg","",""
"null","../img/gs/1186gs.jpg","null","reveal","image-keyboard-response","528","1488406","0.0-6.0-4.74","2467003","co39694","norming","","","","","","",""
"null","../img/tt/1186tt.jpg","null","mooney2","image-keyboard-response","529","1490402","0.0-6.0-5.74","2467003","co39694","norming","","","","","","",""
"3178.1999999999534","","","post_reveal_questions","survey-likert","530","1493585","0.0-6.0-6.74","2467003","co39694","norming","","","{""aha"":3}","[0]","../img/tt/1186tt.jpg","",""
"null","<div style=""font-size:60px;""> </div>","null","fixation","html-keyboard-response","531","1493797","0.0-6.0-0.75","2467003","co39694","norming","","","","","","",""
"null","../img/tt/1061tt.jpg","null","mooney1","image-keyboard-response","532","1496815","0.0-6.0-1.75","2467003","co39694","norming","","","","","","",""
"3579.4000000001397","","","post_mooney1_questions","survey-likert","533","1500399","0.0-6.0-2.75","2467003","co39694","norming","","","{""curiosity"":5,""confidence"":4}","[0,1]","../img/tt/1061tt.jpg","",""
"4793.199999999953","","","recognition","survey-text","534","1505201","0.0-6.0-3.75","2467003","co39694","norming","","","{""guess"":""playgarden""}","","../img/tt/1061tt.jpg","",""
"null","../img/gs/1061gs.jpg","null","reveal","image-keyboard-response","535","1507216","0.0-6.0-4.75","2467003","co39694","norming","","","","","","",""
"null","../img/tt/1061tt.jpg","null","mooney2","image-keyboard-response","536","1509213","0.0-6.0-5.75","2467003","co39694","norming","","","","","","",""
"8771.59999999986","","","post_reveal_questions","survey-likert","537","1517992","0.0-6.0-6.75","2467003","co39694","norming","","","{""aha"":3}","[0]","../img/tt/1061tt.jpg","",""
"null","<div style=""font-size:60px;""> </div>","null","fixation","html-keyboard-response","538","1518196","0.0-6.0-0.76","2467003","co39694","norming","","","","","","",""
"null","../img/tt/121tt.jpg","null","mooney1","image-keyboard-response","539","1521211","0.0-6.0-1.76","2467003","co39694","norming","","","","","","",""
"5425.40000000014","","","post_mooney1_questions","survey-likert","540","1526642","0.0-6.0-2.76","2467003","co39694","norming","","","{""curiosity"":5,""confidence"":4}","[0,1]","../img/tt/121tt.jpg","",""
"2574.1999999999534","","","recognition","survey-text","541","1529224","0.0-6.0-3.76","2467003","co39694","norming","","","{""guess"":""sporter""}","","../img/tt/121tt.jpg","",""
"null","../img/gs/121gs.jpg","null","reveal","image-keyboard-response","542","1531229","0.0-6.0-4.76","2467003","co39694","norming","","","","","","",""
"null","../img/tt/121tt.jpg","null","mooney2","image-keyboard-response","543","1533237","0.0-6.0-5.76","2467003","co39694","norming","","","","","","",""
"2795.4000000001397","","","post_reveal_questions","survey-likert","544","1536037","0.0-6.0-6.76","2467003","co39694","norming","","","{""aha"":6}","[0]","../img/tt/121tt.jpg","",""
"null","<div style=""font-size:60px;""> </div>","null","fixation","html-keyboard-response","545","1536244","0.0-6.0-0.77","2467003","co39694","norming","","","","","","",""
"null","../img/tt/552tt.jpg","null","mooney1","image-keyboard-response","546","1539262","0.0-6.0-1.77","2467003","co39694","norming","","","","","","",""
"4264.59999999986","","","post_mooney1_questions","survey-likert","547","1543532","0.0-6.0-2.77","2467003","co39694","norming","","","{""curiosity"":5,""confidence"":4}","[0,1]","../img/tt/552tt.jpg","",""
"5170.399999999907","","","recognition","survey-text","548","1548710","0.0-6.0-3.77","2467003","co39694","norming","","","{""guess"":""little animal""}","","../img/tt/552tt.jpg","",""
"null","../img/gs/552gs.jpg","null","reveal","image-keyboard-response","549","1550715","0.0-6.0-4.77","2467003","co39694","norming","","","","","","",""
"null","../img/tt/552tt.jpg","null","mooney2","image-keyboard-response","550","1552975","0.0-6.0-5.77","2467003","co39694","norming","","","","","","",""
"4938.100000000093","","","post_reveal_questions","survey-likert","551","1557922","0.0-6.0-6.77","2467003","co39694","norming","","","{""aha"":3}","[0]","../img/tt/552tt.jpg","",""
"null","<div style=""font-size:60px;""> </div>","null","fixation","html-keyboard-response","552","1558129","0.0-6.0-0.78","2467003","co39694","norming","","","","","","",""
"null","../img/tt/1366tt.jpg","null","mooney1","image-keyboard-response","553","1561136","0.0-6.0-1.78","2467003","co39694","norming","","","","","","",""
"3711.2000000001862","","","post_mooney1_questions","survey-likert","554","1564851","0.0-6.0-2.78","2467003","co39694","norming","","","{""curiosity"":5,""confidence"":1}","[0,1]","../img/tt/1366tt.jpg","",""
"1787.3999999999068","","","recognition","survey-text","555","1566646","0.0-6.0-3.78","2467003","co39694","norming","","","{""guess"":""""}","","../img/tt/1366tt.jpg","",""
