"rt","stimulus","key_press","test_part","trial_type","trial_index","time_elapsed","internal_node_id","totalTime","subject","experiment_name","button_pressed","success","responses","question_order","currentStim","old","correct"
"5965.3100001160055","Welcome to the experiment. This is an online experiment so please don't close the tab/window until we say goodbye.  Press any key to begin.","32","instructions","html-keyboard-response","0","5970","0.0-0.0","3362643","co40201","norming","","","","","","",""
"14585.475000087172","<div style='word-wrap: break-word; width: 900px'><h3>Please consider this information carefully before deciding whether to participate in this research</h3><ul style='text-align: left; font-size: .8em;'><li><b>Purpose of the research</b>: To examine how people process images.</li><li><b>What you will do in this research</b>:  Stimuli (images) will be presented on the computer and you will be asked different questions about them.</li><li><b>Time required</b>: Participation will take between 45 and 60 minutes to complete.</li><li><b>Risks</b>:  There are no anticipated risks associated with participating in this study. The effects of participating should be comparable to those you would experience from viewing a computer monitor for 30 minutes and using a mouse or keyboard.</li><li><b>Benefits</b>:  This study provides no benefits to you individually except for the credit. The study provides important information about the nature of perception and learning.</li><li><b>Confidentiality</b>:  Your participation in this study will remain confidential. No personally identifiable information will be associated with your data. Your de-identified data may be shared with other researchers and used in future projects.</li><li><b>Participation and withdrawal</b>:  Your participation in this study is completely voluntary and you may refuse to participate or you may choose to withdraw at any time without penalty.</li><li><b>How to contact the researchers</b>: If you have questions or concerns about your participation or payment, or want to request a summary of research findings, please contact Sander Van de Cruys (KU Leuven), at sander.vandecruys@kuleuven.be.</li></ul><p>The nature and purpose of this research have been sufficiently explained and I agree to participate in this study.  I understand that I am free to withdraw at any time without incurring any penalty.</p><p>Please consent by clicking the button below to continue. Otherwise, please exit the study at this time.</p></div>","","instructions","html-button-response","1","20558","0.0-1.0","3362643","co40201","norming","0","","","","","",""
"","","","instructions","fullscreen","2","23070","0.0-2.0","3362643","co40201","norming","","true","","","","",""
"87231.48000007495","","","sona","survey-html-form","3","110305","0.0-3.0","3362643","co40201","norming","","","[{""name"":""sonaid"",""value"":""40201""},{""name"":""debrief"",""value"":""yes""},{""name"":""datajoin"",""value"":""yes""}]","","","",""
"68080.95999993384","<div style='word-wrap: break-word; width: 900px'><h3>Instructions</h3><p>This experiment will have 3 parts. In the first part you will see a series of distorted images like the one below on the left. As you can see in the righthand image, the distorted images are derived from actual photographs. In what follows, you will <strong>briefly</strong> be presented with <strong>only</strong> the distorted image.</p> <div style='float: left; margin-right: 20px;'><img src='../img/018tt.jpg' height='250' width='250'></img></div><div style='float: right; margin-left: 20px;'><img src='../img/018gs.jpg' height='250' width='250'></img></div><p>Subsequently you will be asked a few questions about the image: One question on how <strong>curious</strong> you are about the solution and one on how <strong>confident</strong> you are that you know the solution.</p>Next, we ask you to make a guess on what is in the image. Note that it is OK to name just the <strong>basic level category</strong>. For example when you see a parrot in the image, 'parrot' will obviously be a correct answer but also correct is 'bird'. However, 'animal' will <strong>not</strong> be counted as a correct response. For the example above, 'rose' would be correct or 'flower', but not 'plant'. When soccer players are depicted, 'soccer', 'football', 'soccer players' will be correct, but not 'humans', 'outdoors', or 'sports'. You do not need to describe the image in full, just name the main object in it <strong>in one or two words</strong>. All images depict objects from one of the following broad level categories: animals, inanimate objects, plants, sports, vehicles, and food. Recognizing means knowing <strong>more</strong> than these broad labels for a given image. But we always encourage you to <strong>make a guess</strong> if you can. Note that you are allowed to use <strong>Dutch and English</strong> in your answers, whatever comes easiest for you.</p><p>Press any key to continue.</p></div>","32","instructions","html-keyboard-response","4","178389","0.0-4.0","3362643","co40201","norming","","","","","","",""
"20479.049999965355","<div style='word-wrap: break-word; width: 900px'><h3>Instructions</h3> <p>Next, the solution image will be revealed to you and you'll be asked to indicate how strong your <strong>aha-experience</strong> was after seeing the solution. This describes the positive feeling of the 'click' you sometimes experience, when the pieces of the 'puzzle' fall together and you suddenly have 'insight' in the image.</p><img src='aha.jpg' height='188' width='250'></img><p>Note that there are no right or wrong answers. We are interested in what <strong>you</strong> see in the image and how <strong>you</strong> feel about it.</p><p>Press any key to start the experiment.</p></div>","32","instructions","html-keyboard-response","5","198870","0.0-5.0","3362643","co40201","norming","","","","","","",""
"null","<div style=""font-size:60px;""> </div>","null","fixation","html-keyboard-response","6","199072","0.0-6.0-0.0","3362643","co40201","norming","","","","","","",""
"null","../img/tt/1080tt.jpg","null","mooney1","image-keyboard-response","7","202074","0.0-6.0-1.0","3362643","co40201","norming","","","","","","",""
"25167.94000007212","","","post_mooney1_questions","survey-likert","8","227245","0.0-6.0-2.0","3362643","co40201","norming","","","{""curiosity"":5,""confidence"":0}","[0,1]","../img/tt/1080tt.jpg","",""
"19369.09499997273","","","recognition","survey-text","9","246621","0.0-6.0-3.0","3362643","co40201","norming","","","{""guess"":""sleeping man""}","","../img/tt/1080tt.jpg","",""
"null","../img/gs/1080gs.jpg","null","reveal","image-keyboard-response","10","248624","0.0-6.0-4.0","3362643","co40201","norming","","","","","","",""
"null","../img/tt/1080tt.jpg","null","mooney2","image-keyboard-response","11","250626","0.0-6.0-5.0","3362643","co40201","norming","","","","","","",""
"5474.475000053644","","","post_reveal_questions","survey-likert","12","256104","0.0-6.0-6.0","3362643","co40201","norming","","","{""aha"":2}","[0]","../img/tt/1080tt.jpg","",""
"null","<div style=""font-size:60px;""> </div>","null","fixation","html-keyboard-response","13","256309","0.0-6.0-0.1","3362643","co40201","norming","","","","","","",""
"null","../img/tt/1234tt.jpg","null","mooney1","image-keyboard-response","14","259311","0.0-6.0-1.1","3362643","co40201","norming","","","","","","",""
"7768.60999991186","","","post_mooney1_questions","survey-likert","15","267082","0.0-6.0-2.1","3362643","co40201","norming","","","{""curiosity"":3,""confidence"":3}","[0,1]","../img/tt/1234tt.jpg","",""
"3946.250000037253","","","recognition","survey-text","16","271032","0.0-6.0-3.1","3362643","co40201","norming","","","{""guess"":""zwaan""}","","../img/tt/1234tt.jpg","",""
"null","../img/gs/1234gs.jpg","null","reveal","image-keyboard-response","17","273036","0.0-6.0-4.1","3362643","co40201","norming","","","","","","",""
"null","../img/tt/1234tt.jpg","null","mooney2","image-keyboard-response","18","275039","0.0-6.0-5.1","3362643","co40201","norming","","","","","","",""
"8583.120000083","","","post_reveal_questions","survey-likert","19","283624","0.0-6.0-6.1","3362643","co40201","norming","","","{""aha"":1}","[0]","../img/tt/1234tt.jpg","",""
"null","<div style=""font-size:60px;""> </div>","null","fixation","html-keyboard-response","20","283837","0.0-6.0-0.2","3362643","co40201","norming","","","","","","",""
"null","../img/tt/522tt.jpg","null","mooney1","image-keyboard-response","21","286840","0.0-6.0-1.2","3362643","co40201","norming","","","","","","",""
"8734.62999984622","","","post_mooney1_questions","survey-likert","22","295576","0.0-6.0-2.2","3362643","co40201","norming","","","{""curiosity"":4,""confidence"":2}","[0,1]","../img/tt/522tt.jpg","",""
"11047.119999770075","","","recognition","survey-text","23","306627","0.0-6.0-3.2","3362643","co40201","norming","","","{""guess"":""bij""}","","../img/tt/522tt.jpg","",""
"null","../img/gs/522gs.jpg","null","reveal","image-keyboard-response","24","308630","0.0-6.0-4.2","3362643","co40201","norming","","","","","","",""
"null","../img/tt/522tt.jpg","null","mooney2","image-keyboard-response","25","310633","0.0-6.0-5.2","3362643","co40201","norming","","","","","","",""
"3645.1799999922514","","","post_reveal_questions","survey-likert","26","314281","0.0-6.0-6.2","3362643","co40201","norming","","","{""aha"":3}","[0]","../img/tt/522tt.jpg","",""
"null","<div style=""font-size:60px;""> </div>","null","fixation","html-keyboard-response","27","314483","0.0-6.0-0.3","3362643","co40201","norming","","","","","","",""
"null","../img/tt/1235tt.jpg","null","mooney1","image-keyboard-response","28","317488","0.0-6.0-1.3","3362643","co40201","norming","","","","","","",""
"11876.750000054017","","","post_mooney1_questions","survey-likert","29","329366","0.0-6.0-2.3","3362643","co40201","norming","","","{""curiosity"":5,""confidence"":0}","[0,1]","../img/tt/1235tt.jpg","",""
"774.9199999962002","","","recognition","survey-text","30","330145","0.0-6.0-3.3","3362643","co40201","norming","","","{""guess"":""""}","","../img/tt/1235tt.jpg","",""
"null","../img/gs/1235gs.jpg","null","reveal","image-keyboard-response","31","332148","0.0-6.0-4.3","3362643","co40201","norming","","","","","","",""
"null","../img/tt/1235tt.jpg","null","mooney2","image-keyboard-response","32","334150","0.0-6.0-5.3","3362643","co40201","norming","","","","","","",""
"4692.38999998197","","","post_reveal_questions","survey-likert","33","338844","0.0-6.0-6.3","3362643","co40201","norming","","","{""aha"":2}","[0]","../img/tt/1235tt.jpg","",""
"null","<div style=""font-size:60px;""> </div>","null","fixation","html-keyboard-response","34","339046","0.0-6.0-0.4","3362643","co40201","norming","","","","","","",""
"null","../img/tt/559tt.jpg","null","mooney1","image-keyboard-response","35","342125","0.0-6.0-1.4","3362643","co40201","norming","","","","","","",""
"7679.839999880642","","","post_mooney1_questions","survey-likert","36","349824","0.0-6.0-2.4","3362643","co40201","norming","","","{""curiosity"":4,""confidence"":1}","[0,1]","../img/tt/559tt.jpg","",""
"4519.444999983534","","","recognition","survey-text","37","354348","0.0-6.0-3.4","3362643","co40201","norming","","","{""guess"":""boat""}","","../img/tt/559tt.jpg","",""
"null","../img/gs/559gs.jpg","null","reveal","image-keyboard-response","38","356350","0.0-6.0-4.4","3362643","co40201","norming","","","","","","",""
"null","../img/tt/559tt.jpg","null","mooney2","image-keyboard-response","39","358355","0.0-6.0-5.4","3362643","co40201","norming","","","","","","",""
"2506.8800000008196","","","post_reveal_questions","survey-likert","40","360863","0.0-6.0-6.4","3362643","co40201","norming","","","{""aha"":1}","[0]","../img/tt/559tt.jpg","",""
"null","<div style=""font-size:60px;""> </div>","null","fixation","html-keyboard-response","41","361067","0.0-6.0-0.5","3362643","co40201","norming","","","","","","",""
"null","../img/tt/1173tt.jpg","null","mooney1","image-keyboard-response","42","364070","0.0-6.0-1.5","3362643","co40201","norming","","","","","","",""
"9921.010000165552","","","post_mooney1_questions","survey-likert","43","373993","0.0-6.0-2.5","3362643","co40201","norming","","","{""curiosity"":4,""confidence"":4}","[0,1]","../img/tt/1173tt.jpg","",""
"14647.240000078455","","","recognition","survey-text","44","388644","0.0-6.0-3.5","3362643","co40201","norming","","","{""guess"":""soccer player""}","","../img/tt/1173tt.jpg","",""
"null","../img/gs/1173gs.jpg","null","reveal","image-keyboard-response","45","390647","0.0-6.0-4.5","3362643","co40201","norming","","","","","","",""
"null","../img/tt/1173tt.jpg","null","mooney2","image-keyboard-response","46","392649","0.0-6.0-5.5","3362643","co40201","norming","","","","","","",""
"3592.285000020638","","","post_reveal_questions","survey-likert","47","396244","0.0-6.0-6.5","3362643","co40201","norming","","","{""aha"":2}","[0]","../img/tt/1173tt.jpg","",""
"null","<div style=""font-size:60px;""> </div>","null","fixation","html-keyboard-response","48","396447","0.0-6.0-0.6","3362643","co40201","norming","","","","","","",""
"null","../img/tt/1072tt.jpg","null","mooney1","image-keyboard-response","49","399451","0.0-6.0-1.6","3362643","co40201","norming","","","","","","",""
"7396.355000091717","","","post_mooney1_questions","survey-likert","50","406849","0.0-6.0-2.6","3362643","co40201","norming","","","{""curiosity"":2,""confidence"":3}","[0,1]","../img/tt/1072tt.jpg","",""
"3224.8449998442084","","","recognition","survey-text","51","410078","0.0-6.0-3.6","3362643","co40201","norming","","","{""guess"":""stoep""}","","../img/tt/1072tt.jpg","",""
"null","../img/gs/1072gs.jpg","null","reveal","image-keyboard-response","52","412082","0.0-6.0-4.6","3362643","co40201","norming","","","","","","",""
"null","../img/tt/1072tt.jpg","null","mooney2","image-keyboard-response","53","414085","0.0-6.0-5.6","3362643","co40201","norming","","","","","","",""
"3682.879999978468","","","post_reveal_questions","survey-likert","54","417771","0.0-6.0-6.6","3362643","co40201","norming","","","{""aha"":2}","[0]","../img/tt/1072tt.jpg","",""
"null","<div style=""font-size:60px;""> </div>","null","fixation","html-keyboard-response","55","417974","0.0-6.0-0.7","3362643","co40201","norming","","","","","","",""
"null","../img/tt/031tt.jpg","null","mooney1","image-keyboard-response","56","420978","0.0-6.0-1.7","3362643","co40201","norming","","","","","","",""
"17547.099999850616","","","post_mooney1_questions","survey-likert","57","438526","0.0-6.0-2.7","3362643","co40201","norming","","","{""curiosity"":3,""confidence"":1}","[0,1]","../img/tt/031tt.jpg","",""
"6996.460000053048","","","recognition","survey-text","58","445526","0.0-6.0-3.7","3362643","co40201","norming","","","{""guess"":""""}","","../img/tt/031tt.jpg","",""
"null","../img/gs/031gs.jpg","null","reveal","image-keyboard-response","59","447529","0.0-6.0-4.7","3362643","co40201","norming","","","","","","",""
"null","../img/tt/031tt.jpg","null","mooney2","image-keyboard-response","60","449531","0.0-6.0-5.7","3362643","co40201","norming","","","","","","",""
"3317.090000025928","","","post_reveal_questions","survey-likert","61","452849","0.0-6.0-6.7","3362643","co40201","norming","","","{""aha"":2}","[0]","../img/tt/031tt.jpg","",""
"null","<div style=""font-size:60px;""> </div>","null","fixation","html-keyboard-response","62","453052","0.0-6.0-0.8","3362643","co40201","norming","","","","","","",""
"null","../img/tt/567tt.jpg","null","mooney1","image-keyboard-response","63","456054","0.0-6.0-1.8","3362643","co40201","norming","","","","","","",""
"10116.309999953955","","","post_mooney1_questions","survey-likert","64","466172","0.0-6.0-2.8","3362643","co40201","norming","","","{""curiosity"":1,""confidence"":0}","[0,1]","../img/tt/567tt.jpg","",""
"714.1400000546128","","","recognition","survey-text","65","466891","0.0-6.0-3.8","3362643","co40201","norming","","","{""guess"":""""}","","../img/tt/567tt.jpg","",""
"null","../img/gs/567gs.jpg","null","reveal","image-keyboard-response","66","468894","0.0-6.0-4.8","3362643","co40201","norming","","","","","","",""
"null","../img/tt/567tt.jpg","null","mooney2","image-keyboard-response","67","470898","0.0-6.0-5.8","3362643","co40201","norming","","","","","","",""
"2783.745000138879","","","post_reveal_questions","survey-likert","68","473683","0.0-6.0-6.8","3362643","co40201","norming","","","{""aha"":4}","[0]","../img/tt/567tt.jpg","",""
"null","<div style=""font-size:60px;""> </div>","null","fixation","html-keyboard-response","69","473887","0.0-6.0-0.9","3362643","co40201","norming","","","","","","",""
"null","../img/tt/098tt.jpg","null","mooney1","image-keyboard-response","70","476890","0.0-6.0-1.9","3362643","co40201","norming","","","","","","",""
"4767.484999960288","","","post_mooney1_questions","survey-likert","71","481659","0.0-6.0-2.9","3362643","co40201","norming","","","{""curiosity"":4,""confidence"":1}","[0,1]","../img/tt/098tt.jpg","",""
"6230.234999908134","","","recognition","survey-text","72","487894","0.0-6.0-3.9","3362643","co40201","norming","","","{""guess"":""dansers""}","","../img/tt/098tt.jpg","",""
"null","../img/gs/098gs.jpg","null","reveal","image-keyboard-response","73","489896","0.0-6.0-4.9","3362643","co40201","norming","","","","","","",""
"null","../img/tt/098tt.jpg","null","mooney2","image-keyboard-response","74","491900","0.0-6.0-5.9","3362643","co40201","norming","","","","","","",""
"3146.84999990277","","","post_reveal_questions","survey-likert","75","495054","0.0-6.0-6.9","3362643","co40201","norming","","","{""aha"":2}","[0]","../img/tt/098tt.jpg","",""
"null","<div style=""font-size:60px;""> </div>","null","fixation","html-keyboard-response","76","495256","0.0-6.0-0.10","3362643","co40201","norming","","","","","","",""
"null","../img/tt/096tt.jpg","null","mooney1","image-keyboard-response","77","498258","0.0-6.0-1.10","3362643","co40201","norming","","","","","","",""
"4018.9600000157952","","","post_mooney1_questions","survey-likert","78","502280","0.0-6.0-2.10","3362643","co40201","norming","","","{""curiosity"":4,""confidence"":4}","[0,1]","../img/tt/096tt.jpg","",""
"3152.7800001204014","","","recognition","survey-text","79","505440","0.0-6.0-3.10","3362643","co40201","norming","","","{""guess"":""piano""}","","../img/tt/096tt.jpg","",""
"null","../img/gs/096gs.jpg","null","reveal","image-keyboard-response","80","507442","0.0-6.0-4.10","3362643","co40201","norming","","","","","","",""
"null","../img/tt/096tt.jpg","null","mooney2","image-keyboard-response","81","509446","0.0-6.0-5.10","3362643","co40201","norming","","","","","","",""
"3143.834999995306","","","post_reveal_questions","survey-likert","82","512593","0.0-6.0-6.10","3362643","co40201","norming","","","{""aha"":0}","[0]","../img/tt/096tt.jpg","",""
"null","<div style=""font-size:60px;""> </div>","null","fixation","html-keyboard-response","83","512796","0.0-6.0-0.11","3362643","co40201","norming","","","","","","",""
"null","../img/tt/318tt.jpg","null","mooney1","image-keyboard-response","84","515802","0.0-6.0-1.11","3362643","co40201","norming","","","","","","",""
"13330.874999985099","","","post_mooney1_questions","survey-likert","85","529137","0.0-6.0-2.11","3362643","co40201","norming","","","{""curiosity"":4,""confidence"":2}","[0,1]","../img/tt/318tt.jpg","",""
"5906.345000024885","","","recognition","survey-text","86","535052","0.0-6.0-3.11","3362643","co40201","norming","","","{""guess"":""liggende vrouw""}","","../img/tt/318tt.jpg","",""
"null","../img/gs/318gs.jpg","null","reveal","image-keyboard-response","87","537055","0.0-6.0-4.11","3362643","co40201","norming","","","","","","",""
"null","../img/tt/318tt.jpg","null","mooney2","image-keyboard-response","88","539060","0.0-6.0-5.11","3362643","co40201","norming","","","","","","",""
"3086.505000013858","","","post_reveal_questions","survey-likert","89","542150","0.0-6.0-6.11","3362643","co40201","norming","","","{""aha"":4}","[0]","../img/tt/318tt.jpg","",""
"null","<div style=""font-size:60px;""> </div>","null","fixation","html-keyboard-response","90","542352","0.0-6.0-0.12","3362643","co40201","norming","","","","","","",""
"null","../img/tt/552tt.jpg","null","mooney1","image-keyboard-response","91","545357","0.0-6.0-1.12","3362643","co40201","norming","","","","","","",""
"6459.465000079945","","","post_mooney1_questions","survey-likert","92","551818","0.0-6.0-2.12","3362643","co40201","norming","","","{""curiosity"":3,""confidence"":3}","[0,1]","../img/tt/552tt.jpg","",""
"3172.9300001170486","","","recognition","survey-text","93","554995","0.0-6.0-3.12","3362643","co40201","norming","","","{""guess"":""bever""}","","../img/tt/552tt.jpg","",""
"null","../img/gs/552gs.jpg","null","reveal","image-keyboard-response","94","556998","0.0-6.0-4.12","3362643","co40201","norming","","","","","","",""
"null","../img/tt/552tt.jpg","null","mooney2","image-keyboard-response","95","559001","0.0-6.0-5.12","3362643","co40201","norming","","","","","","",""
"3284.4149998854846","","","post_reveal_questions","survey-likert","96","562289","0.0-6.0-6.12","3362643","co40201","norming","","","{""aha"":1}","[0]","../img/tt/552tt.jpg","",""
"null","<div style=""font-size:60px;""> </div>","null","fixation","html-keyboard-response","97","562492","0.0-6.0-0.13","3362643","co40201","norming","","","","","","",""
"null","../img/tt/1101tt.jpg","null","mooney1","image-keyboard-response","98","565496","0.0-6.0-1.13","3362643","co40201","norming","","","","","","",""
"6051.699999952689","","","post_mooney1_questions","survey-likert","99","571552","0.0-6.0-2.13","3362643","co40201","norming","","","{""curiosity"":4,""confidence"":4}","[0,1]","../img/tt/1101tt.jpg","",""
"5087.820000015199","","","recognition","survey-text","100","576644","0.0-6.0-3.13","3362643","co40201","norming","","","{""guess"":""voetbalspeler""}","","../img/tt/1101tt.jpg","",""
"null","../img/gs/1101gs.jpg","null","reveal","image-keyboard-response","101","578647","0.0-6.0-4.13","3362643","co40201","norming","","","","","","",""
"null","../img/tt/1101tt.jpg","null","mooney2","image-keyboard-response","102","580648","0.0-6.0-5.13","3362643","co40201","norming","","","","","","",""
"3078.349999850616","","","post_reveal_questions","survey-likert","103","583729","0.0-6.0-6.13","3362643","co40201","norming","","","{""aha"":0}","[0]","../img/tt/1101tt.jpg","",""
"null","<div style=""font-size:60px;""> </div>","null","fixation","html-keyboard-response","104","583932","0.0-6.0-0.14","3362643","co40201","norming","","","","","","",""
"null","../img/tt/1309tt.jpg","null","mooney1","image-keyboard-response","105","586936","0.0-6.0-1.14","3362643","co40201","norming","","","","","","",""
"6996.904999949038","","","post_mooney1_questions","survey-likert","106","593937","0.0-6.0-2.14","3362643","co40201","norming","","","{""curiosity"":1,""confidence"":4}","[0,1]","../img/tt/1309tt.jpg","",""
"7136.775000020862","","","recognition","survey-text","107","601079","0.0-6.0-3.14","3362643","co40201","norming","","","{""guess"":""boomhut""}","","../img/tt/1309tt.jpg","",""
"null","../img/gs/1309gs.jpg","null","reveal","image-keyboard-response","108","603083","0.0-6.0-4.14","3362643","co40201","norming","","","","","","",""
"null","../img/tt/1309tt.jpg","null","mooney2","image-keyboard-response","109","605085","0.0-6.0-5.14","3362643","co40201","norming","","","","","","",""
"1868.6599999200553","","","post_reveal_questions","survey-likert","110","606958","0.0-6.0-6.14","3362643","co40201","norming","","","{""aha"":2}","[0]","../img/tt/1309tt.jpg","",""
"null","<div style=""font-size:60px;""> </div>","null","fixation","html-keyboard-response","111","607160","0.0-6.0-0.15","3362643","co40201","norming","","","","","","",""
"null","../img/tt/007tt.jpg","null","mooney1","image-keyboard-response","112","610164","0.0-6.0-1.15","3362643","co40201","norming","","","","","","",""
"7028.790000127628","","","post_mooney1_questions","survey-likert","113","617197","0.0-6.0-2.15","3362643","co40201","norming","","","{""curiosity"":1,""confidence"":1}","[0,1]","../img/tt/007tt.jpg","",""
"3868.1399999186397","","","recognition","survey-text","114","621069","0.0-6.0-3.15","3362643","co40201","norming","","","{""guess"":""monnik""}","","../img/tt/007tt.jpg","",""
"null","../img/gs/007gs.jpg","null","reveal","image-keyboard-response","115","623072","0.0-6.0-4.15","3362643","co40201","norming","","","","","","",""
"null","../img/tt/007tt.jpg","null","mooney2","image-keyboard-response","116","625075","0.0-6.0-5.15","3362643","co40201","norming","","","","","","",""
"2398.3249999582767","","","post_reveal_questions","survey-likert","117","627474","0.0-6.0-6.15","3362643","co40201","norming","","","{""aha"":3}","[0]","../img/tt/007tt.jpg","",""
"null","<div style=""font-size:60px;""> </div>","null","fixation","html-keyboard-response","118","627677","0.0-6.0-0.16","3362643","co40201","norming","","","","","","",""
"null","../img/tt/1154tt.jpg","null","mooney1","image-keyboard-response","119","630678","0.0-6.0-1.16","3362643","co40201","norming","","","","","","",""
"6676.505000097677","","","post_mooney1_questions","survey-likert","120","637357","0.0-6.0-2.16","3362643","co40201","norming","","","{""curiosity"":4,""confidence"":0}","[0,1]","../img/tt/1154tt.jpg","",""
"807.0050000678748","","","recognition","survey-text","121","638172","0.0-6.0-3.16","3362643","co40201","norming","","","{""guess"":""""}","","../img/tt/1154tt.jpg","",""
"null","../img/gs/1154gs.jpg","null","reveal","image-keyboard-response","122","640174","0.0-6.0-4.16","3362643","co40201","norming","","","","","","",""
"null","../img/tt/1154tt.jpg","null","mooney2","image-keyboard-response","123","642363","0.0-6.0-5.16","3362643","co40201","norming","","","","","","",""
"2330.400000093505","","","post_reveal_questions","survey-likert","124","644696","0.0-6.0-6.16","3362643","co40201","norming","","","{""aha"":4}","[0]","../img/tt/1154tt.jpg","",""
"null","<div style=""font-size:60px;""> </div>","null","fixation","html-keyboard-response","125","644899","0.0-6.0-0.17","3362643","co40201","norming","","","","","","",""
"null","../img/tt/046tt.jpg","null","mooney1","image-keyboard-response","126","647901","0.0-6.0-1.17","3362643","co40201","norming","","","","","","",""
"6495.704999892041","","","post_mooney1_questions","survey-likert","127","654399","0.0-6.0-2.17","3362643","co40201","norming","","","{""curiosity"":1,""confidence"":1}","[0,1]","../img/tt/046tt.jpg","",""
"2955.060000065714","","","recognition","survey-text","128","657359","0.0-6.0-3.17","3362643","co40201","norming","","","{""guess"":""vrouw""}","","../img/tt/046tt.jpg","",""
"null","../img/gs/046gs.jpg","null","reveal","image-keyboard-response","129","659361","0.0-6.0-4.17","3362643","co40201","norming","","","","","","",""
"null","../img/tt/046tt.jpg","null","mooney2","image-keyboard-response","130","661365","0.0-6.0-5.17","3362643","co40201","norming","","","","","","",""
"3022.1599999349564","","","post_reveal_questions","survey-likert","131","664391","0.0-6.0-6.17","3362643","co40201","norming","","","{""aha"":4}","[0]","../img/tt/046tt.jpg","",""
"null","<div style=""font-size:60px;""> </div>","null","fixation","html-keyboard-response","132","664595","0.0-6.0-0.18","3362643","co40201","norming","","","","","","",""
"null","../img/tt/1269tt.jpg","null","mooney1","image-keyboard-response","133","667597","0.0-6.0-1.18","3362643","co40201","norming","","","","","","",""
"5581.500000087544","","","post_mooney1_questions","survey-likert","134","673180","0.0-6.0-2.18","3362643","co40201","norming","","","{""curiosity"":2,""confidence"":3}","[0,1]","../img/tt/1269tt.jpg","",""
"3161.735000088811","","","recognition","survey-text","135","676346","0.0-6.0-3.18","3362643","co40201","norming","","","{""guess"":""hond""}","","../img/tt/1269tt.jpg","",""
"null","../img/gs/1269gs.jpg","null","reveal","image-keyboard-response","136","678349","0.0-6.0-4.18","3362643","co40201","norming","","","","","","",""
"null","../img/tt/1269tt.jpg","null","mooney2","image-keyboard-response","137","680352","0.0-6.0-5.18","3362643","co40201","norming","","","","","","",""
"5014.259999850765","","","post_reveal_questions","survey-likert","138","685369","0.0-6.0-6.18","3362643","co40201","norming","","","{""aha"":2}","[0]","../img/tt/1269tt.jpg","",""
"null","<div style=""font-size:60px;""> </div>","null","fixation","html-keyboard-response","139","685572","0.0-6.0-0.19","3362643","co40201","norming","","","","","","",""
"null","../img/tt/1055tt.jpg","null","mooney1","image-keyboard-response","140","688577","0.0-6.0-1.19","3362643","co40201","norming","","","","","","",""
"3878.9549998473376","","","post_mooney1_questions","survey-likert","141","692460","0.0-6.0-2.19","3362643","co40201","norming","","","{""curiosity"":1,""confidence"":3}","[0,1]","../img/tt/1055tt.jpg","",""
"2911.629999987781","","","recognition","survey-text","142","695377","0.0-6.0-3.19","3362643","co40201","norming","","","{""guess"":""kever""}","","../img/tt/1055tt.jpg","",""
"null","../img/gs/1055gs.jpg","null","reveal","image-keyboard-response","143","697379","0.0-6.0-4.19","3362643","co40201","norming","","","","","","",""
"null","../img/tt/1055tt.jpg","null","mooney2","image-keyboard-response","144","699383","0.0-6.0-5.19","3362643","co40201","norming","","","","","","",""
"4380.8199998456985","","","post_reveal_questions","survey-likert","145","703766","0.0-6.0-6.19","3362643","co40201","norming","","","{""aha"":2}","[0]","../img/tt/1055tt.jpg","",""
"null","<div style=""font-size:60px;""> </div>","null","fixation","html-keyboard-response","146","703968","0.0-6.0-0.20","3362643","co40201","norming","","","","","","",""
"null","../img/tt/1205tt.jpg","null","mooney1","image-keyboard-response","147","706970","0.0-6.0-1.20","3362643","co40201","norming","","","","","","",""
"3827.409999910742","","","post_mooney1_questions","survey-likert","148","710801","0.0-6.0-2.20","3362643","co40201","norming","","","{""curiosity"":4,""confidence"":3}","[0,1]","../img/tt/1205tt.jpg","",""
"3011.8250001687557","","","recognition","survey-text","149","713817","0.0-6.0-3.20","3362643","co40201","norming","","","{""guess"":""dansers""}","","../img/tt/1205tt.jpg","",""
"null","../img/gs/1205gs.jpg","null","reveal","image-keyboard-response","150","715820","0.0-6.0-4.20","3362643","co40201","norming","","","","","","",""
"null","../img/tt/1205tt.jpg","null","mooney2","image-keyboard-response","151","717824","0.0-6.0-5.20","3362643","co40201","norming","","","","","","",""
"3650.974999880418","","","post_reveal_questions","survey-likert","152","721479","0.0-6.0-6.20","3362643","co40201","norming","","","{""aha"":1}","[0]","../img/tt/1205tt.jpg","",""
"null","<div style=""font-size:60px;""> </div>","null","fixation","html-keyboard-response","153","721682","0.0-6.0-0.21","3362643","co40201","norming","","","","","","",""
"null","../img/tt/412tt.jpg","null","mooney1","image-keyboard-response","154","724686","0.0-6.0-1.21","3362643","co40201","norming","","","","","","",""
"9465.739999897778","","","post_mooney1_questions","survey-likert","155","734153","0.0-6.0-2.21","3362643","co40201","norming","","","{""curiosity"":3,""confidence"":1}","[0,1]","../img/tt/412tt.jpg","",""
"3393.360000103712","","","recognition","survey-text","156","737551","0.0-6.0-3.21","3362643","co40201","norming","","","{""guess"":""""}","","../img/tt/412tt.jpg","",""
"null","../img/gs/412gs.jpg","null","reveal","image-keyboard-response","157","739553","0.0-6.0-4.21","3362643","co40201","norming","","","","","","",""
"null","../img/tt/412tt.jpg","null","mooney2","image-keyboard-response","158","741557","0.0-6.0-5.21","3362643","co40201","norming","","","","","","",""
"3550.885000033304","","","post_reveal_questions","survey-likert","159","745191","0.0-6.0-6.21","3362643","co40201","norming","","","{""aha"":0}","[0]","../img/tt/412tt.jpg","",""
"null","<div style=""font-size:60px;""> </div>","null","fixation","html-keyboard-response","160","745394","0.0-6.0-0.22","3362643","co40201","norming","","","","","","",""
"null","../img/tt/063tt.jpg","null","mooney1","image-keyboard-response","161","748396","0.0-6.0-1.22","3362643","co40201","norming","","","","","","",""
"5631.545000011101","","","post_mooney1_questions","survey-likert","162","754031","0.0-6.0-2.22","3362643","co40201","norming","","","{""curiosity"":1,""confidence"":3}","[0,1]","../img/tt/063tt.jpg","",""
"3869.789999909699","","","recognition","survey-text","163","757905","0.0-6.0-3.22","3362643","co40201","norming","","","{""guess"":""typemachine""}","","../img/tt/063tt.jpg","",""
"null","../img/gs/063gs.jpg","null","reveal","image-keyboard-response","164","759907","0.0-6.0-4.22","3362643","co40201","norming","","","","","","",""
"null","../img/tt/063tt.jpg","null","mooney2","image-keyboard-response","165","761910","0.0-6.0-5.22","3362643","co40201","norming","","","","","","",""
"2658.744999906048","","","post_reveal_questions","survey-likert","166","764571","0.0-6.0-6.22","3362643","co40201","norming","","","{""aha"":2}","[0]","../img/tt/063tt.jpg","",""
"null","<div style=""font-size:60px;""> </div>","null","fixation","html-keyboard-response","167","764774","0.0-6.0-0.23","3362643","co40201","norming","","","","","","",""
"null","../img/tt/1181tt.jpg","null","mooney1","image-keyboard-response","168","767779","0.0-6.0-1.23","3362643","co40201","norming","","","","","","",""
"5583.695000037551","","","post_mooney1_questions","survey-likert","169","773367","0.0-6.0-2.23","3362643","co40201","norming","","","{""curiosity"":1,""confidence"":1}","[0,1]","../img/tt/1181tt.jpg","",""
"17304.31000003591","","","recognition","survey-text","170","790677","0.0-6.0-3.23","3362643","co40201","norming","","","{""guess"":""dansers""}","","../img/tt/1181tt.jpg","",""
"null","../img/gs/1181gs.jpg","null","reveal","image-keyboard-response","171","792679","0.0-6.0-4.23","3362643","co40201","norming","","","","","","",""
"null","../img/tt/1181tt.jpg","null","mooney2","image-keyboard-response","172","794681","0.0-6.0-5.23","3362643","co40201","norming","","","","","","",""
"4437.404999975115","","","post_reveal_questions","survey-likert","173","799125","0.0-6.0-6.23","3362643","co40201","norming","","","{""aha"":4}","[0]","../img/tt/1181tt.jpg","",""
"null","<div style=""font-size:60px;""> </div>","null","fixation","html-keyboard-response","174","799328","0.0-6.0-0.24","3362643","co40201","norming","","","","","","",""
"null","../img/tt/300tt.jpg","null","mooney1","image-keyboard-response","175","802331","0.0-6.0-1.24","3362643","co40201","norming","","","","","","",""
"10118.994999909773","","","post_mooney1_questions","survey-likert","176","812451","0.0-6.0-2.24","3362643","co40201","norming","","","{""curiosity"":2,""confidence"":1}","[0,1]","../img/tt/300tt.jpg","",""
"13860.950000118464","","","recognition","survey-text","177","826317","0.0-6.0-3.24","3362643","co40201","norming","","","{""guess"":""vechtsportbeoefenaars""}","","../img/tt/300tt.jpg","",""
"null","../img/gs/300gs.jpg","null","reveal","image-keyboard-response","178","828319","0.0-6.0-4.24","3362643","co40201","norming","","","","","","",""
"null","../img/tt/300tt.jpg","null","mooney2","image-keyboard-response","179","830322","0.0-6.0-5.24","3362643","co40201","norming","","","","","","",""
"2857.2249999269843","","","post_reveal_questions","survey-likert","180","833186","0.0-6.0-6.24","3362643","co40201","norming","","","{""aha"":3}","[0]","../img/tt/300tt.jpg","",""
"null","<div style=""font-size:60px;""> </div>","null","fixation","html-keyboard-response","181","833389","0.0-6.0-0.25","3362643","co40201","norming","","","","","","",""
"null","../img/tt/1260tt.jpg","null","mooney1","image-keyboard-response","182","836392","0.0-6.0-1.25","3362643","co40201","norming","","","","","","",""
"4437.179999891669","","","post_mooney1_questions","survey-likert","183","840831","0.0-6.0-2.25","3362643","co40201","norming","","","{""curiosity"":1,""confidence"":2}","[0,1]","../img/tt/1260tt.jpg","",""
"2345.0849999208003","","","recognition","survey-text","184","843187","0.0-6.0-3.25","3362643","co40201","norming","","","{""guess"":""tent""}","","../img/tt/1260tt.jpg","",""
"null","../img/gs/1260gs.jpg","null","reveal","image-keyboard-response","185","845189","0.0-6.0-4.25","3362643","co40201","norming","","","","","","",""
"null","../img/tt/1260tt.jpg","null","mooney2","image-keyboard-response","186","847191","0.0-6.0-5.25","3362643","co40201","norming","","","","","","",""
"2264.2549998126924","","","post_reveal_questions","survey-likert","187","849460","0.0-6.0-6.25","3362643","co40201","norming","","","{""aha"":2}","[0]","../img/tt/1260tt.jpg","",""
"null","<div style=""font-size:60px;""> </div>","null","fixation","html-keyboard-response","188","849663","0.0-6.0-0.26","3362643","co40201","norming","","","","","","",""
"null","../img/tt/1254tt.jpg","null","mooney1","image-keyboard-response","189","852667","0.0-6.0-1.26","3362643","co40201","norming","","","","","","",""
"5976.319999899715","","","post_mooney1_questions","survey-likert","190","858649","0.0-6.0-2.26","3362643","co40201","norming","","","{""curiosity"":1,""confidence"":1}","[0,1]","../img/tt/1254tt.jpg","",""
"3504.634999902919","","","recognition","survey-text","191","862163","0.0-6.0-3.26","3362643","co40201","norming","","","{""guess"":""hangmat""}","","../img/tt/1254tt.jpg","",""
"null","../img/gs/1254gs.jpg","null","reveal","image-keyboard-response","192","864165","0.0-6.0-4.26","3362643","co40201","norming","","","","","","",""
"null","../img/tt/1254tt.jpg","null","mooney2","image-keyboard-response","193","866167","0.0-6.0-5.26","3362643","co40201","norming","","","","","","",""
"2729.2649999726564","","","post_reveal_questions","survey-likert","194","868898","0.0-6.0-6.26","3362643","co40201","norming","","","{""aha"":2}","[0]","../img/tt/1254tt.jpg","",""
"null","<div style=""font-size:60px;""> </div>","null","fixation","html-keyboard-response","195","869101","0.0-6.0-0.27","3362643","co40201","norming","","","","","","",""
"null","../img/tt/036tt.jpg","null","mooney1","image-keyboard-response","196","872106","0.0-6.0-1.27","3362643","co40201","norming","","","","","","",""
"3672.779999906197","","","post_mooney1_questions","survey-likert","197","875782","0.0-6.0-2.27","3362643","co40201","norming","","","{""curiosity"":1,""confidence"":2}","[0,1]","../img/tt/036tt.jpg","",""
"3611.8850000202656","","","recognition","survey-text","198","879398","0.0-6.0-3.27","3362643","co40201","norming","","","{""guess"":""spinnenweb""}","","../img/tt/036tt.jpg","",""
"null","../img/gs/036gs.jpg","null","reveal","image-keyboard-response","199","881401","0.0-6.0-4.27","3362643","co40201","norming","","","","","","",""
"null","../img/tt/036tt.jpg","null","mooney2","image-keyboard-response","200","883403","0.0-6.0-5.27","3362643","co40201","norming","","","","","","",""
"3402.9250000603497","","","post_reveal_questions","survey-likert","201","886808","0.0-6.0-6.27","3362643","co40201","norming","","","{""aha"":4}","[0]","../img/tt/036tt.jpg","",""
"null","<div style=""font-size:60px;""> </div>","null","fixation","html-keyboard-response","202","887010","0.0-6.0-0.28","3362643","co40201","norming","","","","","","",""
"null","../img/tt/440tt.jpg","null","mooney1","image-keyboard-response","203","890012","0.0-6.0-1.28","3362643","co40201","norming","","","","","","",""
"4056.580000091344","","","post_mooney1_questions","survey-likert","204","894071","0.0-6.0-2.28","3362643","co40201","norming","","","{""curiosity"":1,""confidence"":2}","[0,1]","../img/tt/440tt.jpg","",""
"3952.3300000000745","","","recognition","survey-text","205","898028","0.0-6.0-3.28","3362643","co40201","norming","","","{""guess"":""koe""}","","../img/tt/440tt.jpg","",""
"null","../img/gs/440gs.jpg","null","reveal","image-keyboard-response","206","900031","0.0-6.0-4.28","3362643","co40201","norming","","","","","","",""
"null","../img/tt/440tt.jpg","null","mooney2","image-keyboard-response","207","902034","0.0-6.0-5.28","3362643","co40201","norming","","","","","","",""
"4010.689999908209","","","post_reveal_questions","survey-likert","208","906048","0.0-6.0-6.28","3362643","co40201","norming","","","{""aha"":1}","[0]","../img/tt/440tt.jpg","",""
"null","<div style=""font-size:60px;""> </div>","null","fixation","html-keyboard-response","209","906251","0.0-6.0-0.29","3362643","co40201","norming","","","","","","",""
"null","../img/tt/468tt.jpg","null","mooney1","image-keyboard-response","210","909255","0.0-6.0-1.29","3362643","co40201","norming","","","","","","",""
"11239.850000012666","","","post_mooney1_questions","survey-likert","211","920496","0.0-6.0-2.29","3362643","co40201","norming","","","{""curiosity"":2,""confidence"":2}","[0,1]","../img/tt/468tt.jpg","",""
"3961.630000034347","","","recognition","survey-text","212","924463","0.0-6.0-3.29","3362643","co40201","norming","","","{""guess"":""drumspeler""}","","../img/tt/468tt.jpg","",""
"null","../img/gs/468gs.jpg","null","reveal","image-keyboard-response","213","926466","0.0-6.0-4.29","3362643","co40201","norming","","","","","","",""
"null","../img/tt/468tt.jpg","null","mooney2","image-keyboard-response","214","928467","0.0-6.0-5.29","3362643","co40201","norming","","","","","","",""
"3181.9450000766665","","","post_reveal_questions","survey-likert","215","931655","0.0-6.0-6.29","3362643","co40201","norming","","","{""aha"":3}","[0]","../img/tt/468tt.jpg","",""
"null","<div style=""font-size:60px;""> </div>","null","fixation","html-keyboard-response","216","931857","0.0-6.0-0.30","3362643","co40201","norming","","","","","","",""
"null","../img/tt/140tt.jpg","null","mooney1","image-keyboard-response","217","934863","0.0-6.0-1.30","3362643","co40201","norming","","","","","","",""
"3832.1400000713766","","","post_mooney1_questions","survey-likert","218","938699","0.0-6.0-2.30","3362643","co40201","norming","","","{""curiosity"":1,""confidence"":2}","[0,1]","../img/tt/140tt.jpg","",""
"3983.2200000528246","","","recognition","survey-text","219","942687","0.0-6.0-3.30","3362643","co40201","norming","","","{""guess"":""vogelnest""}","","../img/tt/140tt.jpg","",""
"null","../img/gs/140gs.jpg","null","reveal","image-keyboard-response","220","944694","0.0-6.0-4.30","3362643","co40201","norming","","","","","","",""
"null","../img/tt/140tt.jpg","null","mooney2","image-keyboard-response","221","946696","0.0-6.0-5.30","3362643","co40201","norming","","","","","","",""
"4447.910000104457","","","post_reveal_questions","survey-likert","222","951149","0.0-6.0-6.30","3362643","co40201","norming","","","{""aha"":0}","[0]","../img/tt/140tt.jpg","",""
"null","<div style=""font-size:60px;""> </div>","null","fixation","html-keyboard-response","223","951352","0.0-6.0-0.31","3362643","co40201","norming","","","","","","",""
"null","../img/tt/296tt.jpg","null","mooney1","image-keyboard-response","224","954354","0.0-6.0-1.31","3362643","co40201","norming","","","","","","",""
"6534.274999983609","","","post_mooney1_questions","survey-likert","225","960891","0.0-6.0-2.31","3362643","co40201","norming","","","{""curiosity"":1,""confidence"":3}","[0,1]","../img/tt/296tt.jpg","",""
"4859.874999849126","","","recognition","survey-text","226","965755","0.0-6.0-3.31","3362643","co40201","norming","","","{""guess"":""tandartsstoel""}","","../img/tt/296tt.jpg","",""
"null","../img/gs/296gs.jpg","null","reveal","image-keyboard-response","227","967758","0.0-6.0-4.31","3362643","co40201","norming","","","","","","",""
"null","../img/tt/296tt.jpg","null","mooney2","image-keyboard-response","228","969760","0.0-6.0-5.31","3362643","co40201","norming","","","","","","",""
"3512.4399999622256","","","post_reveal_questions","survey-likert","229","973277","0.0-6.0-6.31","3362643","co40201","norming","","","{""aha"":2}","[0]","../img/tt/296tt.jpg","",""
"null","<div style=""font-size:60px;""> </div>","null","fixation","html-keyboard-response","230","973479","0.0-6.0-0.32","3362643","co40201","norming","","","","","","",""
"null","../img/tt/306tt.jpg","null","mooney1","image-keyboard-response","231","976482","0.0-6.0-1.32","3362643","co40201","norming","","","","","","",""
"6885.414999909699","","","post_mooney1_questions","survey-likert","232","983372","0.0-6.0-2.32","3362643","co40201","norming","","","{""curiosity"":4,""confidence"":0}","[0,1]","../img/tt/306tt.jpg","",""
"841.444999910891","","","recognition","survey-text","233","984220","0.0-6.0-3.32","3362643","co40201","norming","","","{""guess"":""""}","","../img/tt/306tt.jpg","",""
"null","../img/gs/306gs.jpg","null","reveal","image-keyboard-response","234","986222","0.0-6.0-4.32","3362643","co40201","norming","","","","","","",""
"null","../img/tt/306tt.jpg","null","mooney2","image-keyboard-response","235","988224","0.0-6.0-5.32","3362643","co40201","norming","","","","","","",""
"2939.32000012137","","","post_reveal_questions","survey-likert","236","991165","0.0-6.0-6.32","3362643","co40201","norming","","","{""aha"":1}","[0]","../img/tt/306tt.jpg","",""
"null","<div style=""font-size:60px;""> </div>","null","fixation","html-keyboard-response","237","991368","0.0-6.0-0.33","3362643","co40201","norming","","","","","","",""
"null","../img/tt/194tt.jpg","null","mooney1","image-keyboard-response","238","994371","0.0-6.0-1.33","3362643","co40201","norming","","","","","","",""
"5235.210000071675","","","post_mooney1_questions","survey-likert","239","999609","0.0-6.0-2.33","3362643","co40201","norming","","","{""curiosity"":1,""confidence"":3}","[0,1]","../img/tt/194tt.jpg","",""
"3662.9099999554455","","","recognition","survey-text","240","1003279","0.0-6.0-3.33","3362643","co40201","norming","","","{""guess"":""zittend meisje""}","","../img/tt/194tt.jpg","",""
"null","../img/gs/194gs.jpg","null","reveal","image-keyboard-response","241","1005282","0.0-6.0-4.33","3362643","co40201","norming","","","","","","",""
"null","../img/tt/194tt.jpg","null","mooney2","image-keyboard-response","242","1007285","0.0-6.0-5.33","3362643","co40201","norming","","","","","","",""
"3341.9200000353158","","","post_reveal_questions","survey-likert","243","1010632","0.0-6.0-6.33","3362643","co40201","norming","","","{""aha"":4}","[0]","../img/tt/194tt.jpg","",""
"null","<div style=""font-size:60px;""> </div>","null","fixation","html-keyboard-response","244","1010835","0.0-6.0-0.34","3362643","co40201","norming","","","","","","",""
"null","../img/tt/1061tt.jpg","null","mooney1","image-keyboard-response","245","1013839","0.0-6.0-1.34","3362643","co40201","norming","","","","","","",""
"3607.160000130534","","","post_mooney1_questions","survey-likert","246","1017451","0.0-6.0-2.34","3362643","co40201","norming","","","{""curiosity"":1,""confidence"":3}","[0,1]","../img/tt/1061tt.jpg","",""
"4250.015000114217","","","recognition","survey-text","247","1021706","0.0-6.0-3.34","3362643","co40201","norming","","","{""guess"":""wandelende mensen""}","","../img/tt/1061tt.jpg","",""
"null","../img/gs/1061gs.jpg","null","reveal","image-keyboard-response","248","1023708","0.0-6.0-4.34","3362643","co40201","norming","","","","","","",""
"null","../img/tt/1061tt.jpg","null","mooney2","image-keyboard-response","249","1025711","0.0-6.0-5.34","3362643","co40201","norming","","","","","","",""
"3545.6149999517947","","","post_reveal_questions","survey-likert","250","1029261","0.0-6.0-6.34","3362643","co40201","norming","","","{""aha"":1}","[0]","../img/tt/1061tt.jpg","",""
"null","<div style=""font-size:60px;""> </div>","null","fixation","html-keyboard-response","251","1029463","0.0-6.0-0.35","3362643","co40201","norming","","","","","","",""
"null","../img/tt/315tt.jpg","null","mooney1","image-keyboard-response","252","1032469","0.0-6.0-1.35","3362643","co40201","norming","","","","","","",""
"3907.6450001448393","","","post_mooney1_questions","survey-likert","253","1036383","0.0-6.0-2.35","3362643","co40201","norming","","","{""curiosity"":1,""confidence"":3}","[0,1]","../img/tt/315tt.jpg","",""
"2361.7099998518825","","","recognition","survey-text","254","1038759","0.0-6.0-3.35","3362643","co40201","norming","","","{""guess"":""pad""}","","../img/tt/315tt.jpg","",""
"null","../img/gs/315gs.jpg","null","reveal","image-keyboard-response","255","1040762","0.0-6.0-4.35","3362643","co40201","norming","","","","","","",""
"null","../img/tt/315tt.jpg","null","mooney2","image-keyboard-response","256","1042763","0.0-6.0-5.35","3362643","co40201","norming","","","","","","",""
"4343.104999978095","","","post_reveal_questions","survey-likert","257","1047108","0.0-6.0-6.35","3362643","co40201","norming","","","{""aha"":0}","[0]","../img/tt/315tt.jpg","",""
"null","<div style=""font-size:60px;""> </div>","null","fixation","html-keyboard-response","258","1047311","0.0-6.0-0.36","3362643","co40201","norming","","","","","","",""
"null","../img/tt/534tt.jpg","null","mooney1","image-keyboard-response","259","1050317","0.0-6.0-1.36","3362643","co40201","norming","","","","","","",""
"9530.749999918044","","","post_mooney1_questions","survey-likert","260","1059852","0.0-6.0-2.36","3362643","co40201","norming","","","{""curiosity"":1,""confidence"":2}","[0,1]","../img/tt/534tt.jpg","",""
"3459.1500000096858","","","recognition","survey-text","261","1063316","0.0-6.0-3.36","3362643","co40201","norming","","","{""guess"":""bloem""}","","../img/tt/534tt.jpg","",""
"null","../img/gs/534gs.jpg","null","reveal","image-keyboard-response","262","1065318","0.0-6.0-4.36","3362643","co40201","norming","","","","","","",""
"null","../img/tt/534tt.jpg","null","mooney2","image-keyboard-response","263","1067320","0.0-6.0-5.36","3362643","co40201","norming","","","","","","",""
"2236.6549998987466","","","post_reveal_questions","survey-likert","264","1069558","0.0-6.0-6.36","3362643","co40201","norming","","","{""aha"":1}","[0]","../img/tt/534tt.jpg","",""
"null","<div style=""font-size:60px;""> </div>","null","fixation","html-keyboard-response","265","1069760","0.0-6.0-0.37","3362643","co40201","norming","","","","","","",""
"null","../img/tt/1268tt.jpg","null","mooney1","image-keyboard-response","266","1072762","0.0-6.0-1.37","3362643","co40201","norming","","","","","","",""
"7062.990000005811","","","post_mooney1_questions","survey-likert","267","1079830","0.0-6.0-2.37","3362643","co40201","norming","","","{""curiosity"":1,""confidence"":2}","[0,1]","../img/tt/1268tt.jpg","",""
"2849.760000128299","","","recognition","survey-text","268","1082691","0.0-6.0-3.37","3362643","co40201","norming","","","{""guess"":""zwaan""}","","../img/tt/1268tt.jpg","",""
"null","../img/gs/1268gs.jpg","null","reveal","image-keyboard-response","269","1084697","0.0-6.0-4.37","3362643","co40201","norming","","","","","","",""
"null","../img/tt/1268tt.jpg","null","mooney2","image-keyboard-response","270","1086700","0.0-6.0-5.37","3362643","co40201","norming","","","","","","",""
"2272.624999983236","","","post_reveal_questions","survey-likert","271","1088974","0.0-6.0-6.37","3362643","co40201","norming","","","{""aha"":1}","[0]","../img/tt/1268tt.jpg","",""
"null","<div style=""font-size:60px;""> </div>","null","fixation","html-keyboard-response","272","1089177","0.0-6.0-0.38","3362643","co40201","norming","","","","","","",""
"null","../img/tt/1063tt.jpg","null","mooney1","image-keyboard-response","273","1092180","0.0-6.0-1.38","3362643","co40201","norming","","","","","","",""
"3861.945000011474","","","post_mooney1_questions","survey-likert","274","1096044","0.0-6.0-2.38","3362643","co40201","norming","","","{""curiosity"":1,""confidence"":2}","[0,1]","../img/tt/1063tt.jpg","",""
"2543.790000025183","","","recognition","survey-text","275","1098592","0.0-6.0-3.38","3362643","co40201","norming","","","{""guess"":""aap""}","","../img/tt/1063tt.jpg","",""
"null","../img/gs/1063gs.jpg","null","reveal","image-keyboard-response","276","1100594","0.0-6.0-4.38","3362643","co40201","norming","","","","","","",""
"null","../img/tt/1063tt.jpg","null","mooney2","image-keyboard-response","277","1102597","0.0-6.0-5.38","3362643","co40201","norming","","","","","","",""
"2823.1099999975413","","","post_reveal_questions","survey-likert","278","1105424","0.0-6.0-6.38","3362643","co40201","norming","","","{""aha"":0}","[0]","../img/tt/1063tt.jpg","",""
"null","<div style=""font-size:60px;""> </div>","null","fixation","html-keyboard-response","279","1105627","0.0-6.0-0.39","3362643","co40201","norming","","","","","","",""
"null","../img/tt/1186tt.jpg","null","mooney1","image-keyboard-response","280","1108631","0.0-6.0-1.39","3362643","co40201","norming","","","","","","",""
"3733.8199999649078","","","post_mooney1_questions","survey-likert","281","1112371","0.0-6.0-2.39","3362643","co40201","norming","","","{""curiosity"":1,""confidence"":2}","[0,1]","../img/tt/1186tt.jpg","",""
"5952.615000074729","","","recognition","survey-text","282","1118333","0.0-6.0-3.39","3362643","co40201","norming","","","{""guess"":""skir""}","","../img/tt/1186tt.jpg","",""
"null","../img/gs/1186gs.jpg","null","reveal","image-keyboard-response","283","1120337","0.0-6.0-4.39","3362643","co40201","norming","","","","","","",""
"null","../img/tt/1186tt.jpg","null","mooney2","image-keyboard-response","284","1122339","0.0-6.0-5.39","3362643","co40201","norming","","","","","","",""
"3614.954999880865","","","post_reveal_questions","survey-likert","285","1125957","0.0-6.0-6.39","3362643","co40201","norming","","","{""aha"":2}","[0]","../img/tt/1186tt.jpg","",""
"null","<div style=""font-size:60px;""> </div>","null","fixation","html-keyboard-response","286","1126160","0.0-6.0-0.40","3362643","co40201","norming","","","","","","",""
"null","../img/tt/1002tt.jpg","null","mooney1","image-keyboard-response","287","1129164","0.0-6.0-1.40","3362643","co40201","norming","","","","","","",""
"5937.644999939948","","","post_mooney1_questions","survey-likert","288","1135106","0.0-6.0-2.40","3362643","co40201","norming","","","{""curiosity"":1,""confidence"":1}","[0,1]","../img/tt/1002tt.jpg","",""
"2608.3700000308454","","","recognition","survey-text","289","1137720","0.0-6.0-3.40","3362643","co40201","norming","","","{""guess"":""koe""}","","../img/tt/1002tt.jpg","",""
"null","../img/gs/1002gs.jpg","null","reveal","image-keyboard-response","290","1139723","0.0-6.0-4.40","3362643","co40201","norming","","","","","","",""
"null","../img/tt/1002tt.jpg","null","mooney2","image-keyboard-response","291","1141724","0.0-6.0-5.40","3362643","co40201","norming","","","","","","",""
"4436.499999836087","","","post_reveal_questions","survey-likert","292","1146162","0.0-6.0-6.40","3362643","co40201","norming","","","{""aha"":1}","[0]","../img/tt/1002tt.jpg","",""
"null","<div style=""font-size:60px;""> </div>","null","fixation","html-keyboard-response","293","1146364","0.0-6.0-0.41","3362643","co40201","norming","","","","","","",""
"null","../img/tt/1239tt.jpg","null","mooney1","image-keyboard-response","294","1149369","0.0-6.0-1.41","3362643","co40201","norming","","","","","","",""
"4550.254999892786","","","post_mooney1_questions","survey-likert","295","1153924","0.0-6.0-2.41","3362643","co40201","norming","","","{""curiosity"":1,""confidence"":2}","[0,1]","../img/tt/1239tt.jpg","",""
"2161.1600001342595","","","recognition","survey-text","296","1156090","0.0-6.0-3.41","3362643","co40201","norming","","","{""guess"":""kat""}","","../img/tt/1239tt.jpg","",""
"null","../img/gs/1239gs.jpg","null","reveal","image-keyboard-response","297","1158093","0.0-6.0-4.41","3362643","co40201","norming","","","","","","",""
"null","../img/tt/1239tt.jpg","null","mooney2","image-keyboard-response","298","1160097","0.0-6.0-5.41","3362643","co40201","norming","","","","","","",""
"2778.4450000617653","","","post_reveal_questions","survey-likert","299","1162879","0.0-6.0-6.41","3362643","co40201","norming","","","{""aha"":3}","[0]","../img/tt/1239tt.jpg","",""
"null","<div style=""font-size:60px;""> </div>","null","fixation","html-keyboard-response","300","1163083","0.0-6.0-0.42","3362643","co40201","norming","","","","","","",""
"null","../img/tt/1046tt.jpg","null","mooney1","image-keyboard-response","301","1166086","0.0-6.0-1.42","3362643","co40201","norming","","","","","","",""
"4234.995000064373","","","post_mooney1_questions","survey-likert","302","1170323","0.0-6.0-2.42","3362643","co40201","norming","","","{""curiosity"":1,""confidence"":2}","[0,1]","../img/tt/1046tt.jpg","",""
"2962.434999877587","","","recognition","survey-text","303","1173290","0.0-6.0-3.42","3362643","co40201","norming","","","{""guess"":""boek""}","","../img/tt/1046tt.jpg","",""
"null","../img/gs/1046gs.jpg","null","reveal","image-keyboard-response","304","1175293","0.0-6.0-4.42","3362643","co40201","norming","","","","","","",""
"null","../img/tt/1046tt.jpg","null","mooney2","image-keyboard-response","305","1177295","0.0-6.0-5.42","3362643","co40201","norming","","","","","","",""
"2611.1350001301616","","","post_reveal_questions","survey-likert","306","1179911","0.0-6.0-6.42","3362643","co40201","norming","","","{""aha"":2}","[0]","../img/tt/1046tt.jpg","",""
"null","<div style=""font-size:60px;""> </div>","null","fixation","html-keyboard-response","307","1180113","0.0-6.0-0.43","3362643","co40201","norming","","","","","","",""
"null","../img/tt/515tt.jpg","null","mooney1","image-keyboard-response","308","1183124","0.0-6.0-1.43","3362643","co40201","norming","","","","","","",""
"4851.250000065193","","","post_mooney1_questions","survey-likert","309","1187977","0.0-6.0-2.43","3362643","co40201","norming","","","{""curiosity"":1,""confidence"":3}","[0,1]","../img/tt/515tt.jpg","",""
"3085.380000062287","","","recognition","survey-text","310","1191066","0.0-6.0-3.43","3362643","co40201","norming","","","{""guess"":""vogel""}","","../img/tt/515tt.jpg","",""
"null","../img/gs/515gs.jpg","null","reveal","image-keyboard-response","311","1193069","0.0-6.0-4.43","3362643","co40201","norming","","","","","","",""
"null","../img/tt/515tt.jpg","null","mooney2","image-keyboard-response","312","1195071","0.0-6.0-5.43","3362643","co40201","norming","","","","","","",""
"3471.900000004098","","","post_reveal_questions","survey-likert","313","1198547","0.0-6.0-6.43","3362643","co40201","norming","","","{""aha"":0}","[0]","../img/tt/515tt.jpg","",""
"null","<div style=""font-size:60px;""> </div>","null","fixation","html-keyboard-response","314","1198749","0.0-6.0-0.44","3362643","co40201","norming","","","","","","",""
"null","../img/tt/1272tt.jpg","null","mooney1","image-keyboard-response","315","1201755","0.0-6.0-1.44","3362643","co40201","norming","","","","","","",""
"3136.720000067726","","","post_mooney1_questions","survey-likert","316","1204896","0.0-6.0-2.44","3362643","co40201","norming","","","{""curiosity"":1,""confidence"":2}","[0,1]","../img/tt/1272tt.jpg","",""
"4347.900000168011","","","recognition","survey-text","317","1209252","0.0-6.0-3.44","3362643","co40201","norming","","","{""guess"":""honinggraat""}","","../img/tt/1272tt.jpg","",""
"null","../img/gs/1272gs.jpg","null","reveal","image-keyboard-response","318","1211254","0.0-6.0-4.44","3362643","co40201","norming","","","","","","",""
"null","../img/tt/1272tt.jpg","null","mooney2","image-keyboard-response","319","1213256","0.0-6.0-5.44","3362643","co40201","norming","","","","","","",""
"3081.2699999660254","","","post_reveal_questions","survey-likert","320","1216339","0.0-6.0-6.44","3362643","co40201","norming","","","{""aha"":1}","[0]","../img/tt/1272tt.jpg","",""
"null","<div style=""font-size:60px;""> </div>","null","fixation","html-keyboard-response","321","1216542","0.0-6.0-0.45","3362643","co40201","norming","","","","","","",""
"null","../img/tt/270tt.jpg","null","mooney1","image-keyboard-response","322","1219545","0.0-6.0-1.45","3362643","co40201","norming","","","","","","",""
"6034.254999831319","","","post_mooney1_questions","survey-likert","323","1225581","0.0-6.0-2.45","3362643","co40201","norming","","","{""curiosity"":4,""confidence"":0}","[0,1]","../img/tt/270tt.jpg","",""
"738.0199998151511","","","recognition","survey-text","324","1226323","0.0-6.0-3.45","3362643","co40201","norming","","","{""guess"":""""}","","../img/tt/270tt.jpg","",""
"null","../img/gs/270gs.jpg","null","reveal","image-keyboard-response","325","1228332","0.0-6.0-4.45","3362643","co40201","norming","","","","","","",""
"null","../img/tt/270tt.jpg","null","mooney2","image-keyboard-response","326","1230336","0.0-6.0-5.45","3362643","co40201","norming","","","","","","",""
"4062.449999852106","","","post_reveal_questions","survey-likert","327","1234409","0.0-6.0-6.45","3362643","co40201","norming","","","{""aha"":3}","[0]","../img/tt/270tt.jpg","",""
"null","<div style=""font-size:60px;""> </div>","null","fixation","html-keyboard-response","328","1234612","0.0-6.0-0.46","3362643","co40201","norming","","","","","","",""
"null","../img/tt/603tt.jpg","null","mooney1","image-keyboard-response","329","1237616","0.0-6.0-1.46","3362643","co40201","norming","","","","","","",""
"4175.445000175387","","","post_mooney1_questions","survey-likert","330","1241798","0.0-6.0-2.46","3362643","co40201","norming","","","{""curiosity"":1,""confidence"":2}","[0,1]","../img/tt/603tt.jpg","",""
"2464.3449999857694","","","recognition","survey-text","331","1244268","0.0-6.0-3.46","3362643","co40201","norming","","","{""guess"":""hond""}","","../img/tt/603tt.jpg","",""
"null","../img/gs/603gs.jpg","null","reveal","image-keyboard-response","332","1246270","0.0-6.0-4.46","3362643","co40201","norming","","","","","","",""
"null","../img/tt/603tt.jpg","null","mooney2","image-keyboard-response","333","1248272","0.0-6.0-5.46","3362643","co40201","norming","","","","","","",""
"7288.919999962673","","","post_reveal_questions","survey-likert","334","1255562","0.0-6.0-6.46","3362643","co40201","norming","","","{""aha"":1}","[0]","../img/tt/603tt.jpg","",""
"null","<div style=""font-size:60px;""> </div>","null","fixation","html-keyboard-response","335","1255765","0.0-6.0-0.47","3362643","co40201","norming","","","","","","",""
"null","../img/tt/1043tt.jpg","null","mooney1","image-keyboard-response","336","1258769","0.0-6.0-1.47","3362643","co40201","norming","","","","","","",""
"5703.159999800846","","","post_mooney1_questions","survey-likert","337","1264478","0.0-6.0-2.47","3362643","co40201","norming","","","{""curiosity"":1,""confidence"":1}","[0,1]","../img/tt/1043tt.jpg","",""
"3853.069999953732","","","recognition","survey-text","338","1268336","0.0-6.0-3.47","3362643","co40201","norming","","","{""guess"":""pennenzak""}","","../img/tt/1043tt.jpg","",""
"null","../img/gs/1043gs.jpg","null","reveal","image-keyboard-response","339","1270339","0.0-6.0-4.47","3362643","co40201","norming","","","","","","",""
"null","../img/tt/1043tt.jpg","null","mooney2","image-keyboard-response","340","1272340","0.0-6.0-5.47","3362643","co40201","norming","","","","","","",""
"2842.909999890253","","","post_reveal_questions","survey-likert","341","1275186","0.0-6.0-6.47","3362643","co40201","norming","","","{""aha"":1}","[0]","../img/tt/1043tt.jpg","",""
"null","<div style=""font-size:60px;""> </div>","null","fixation","html-keyboard-response","342","1275387","0.0-6.0-0.48","3362643","co40201","norming","","","","","","",""
"null","../img/tt/032tt.jpg","null","mooney1","image-keyboard-response","343","1278389","0.0-6.0-1.48","3362643","co40201","norming","","","","","","",""
"4403.690000064671","","","post_mooney1_questions","survey-likert","344","1282795","0.0-6.0-2.48","3362643","co40201","norming","","","{""curiosity"":1,""confidence"":0}","[0,1]","../img/tt/032tt.jpg","",""
"834.1999999247491","","","recognition","survey-text","345","1283634","0.0-6.0-3.48","3362643","co40201","norming","","","{""guess"":""""}","","../img/tt/032tt.jpg","",""
"null","../img/gs/032gs.jpg","null","reveal","image-keyboard-response","346","1285638","0.0-6.0-4.48","3362643","co40201","norming","","","","","","",""
"null","../img/tt/032tt.jpg","null","mooney2","image-keyboard-response","347","1287641","0.0-6.0-5.48","3362643","co40201","norming","","","","","","",""
"2920.1650000177324","","","post_reveal_questions","survey-likert","348","1290564","0.0-6.0-6.48","3362643","co40201","norming","","","{""aha"":4}","[0]","../img/tt/032tt.jpg","",""
"null","<div style=""font-size:60px;""> </div>","null","fixation","html-keyboard-response","349","1290767","0.0-6.0-0.49","3362643","co40201","norming","","","","","","",""
"null","../img/tt/1069tt.jpg","null","mooney1","image-keyboard-response","350","1293772","0.0-6.0-1.49","3362643","co40201","norming","","","","","","",""
"4224.709999980405","","","post_mooney1_questions","survey-likert","351","1298003","0.0-6.0-2.49","3362643","co40201","norming","","","{""curiosity"":1,""confidence"":3}","[0,1]","../img/tt/1069tt.jpg","",""
"3828.239999944344","","","recognition","survey-text","352","1301836","0.0-6.0-3.49","3362643","co40201","norming","","","{""guess"":""pissenbed""}","","../img/tt/1069tt.jpg","",""
"null","../img/gs/1069gs.jpg","null","reveal","image-keyboard-response","353","1303839","0.0-6.0-4.49","3362643","co40201","norming","","","","","","",""
"null","../img/tt/1069tt.jpg","null","mooney2","image-keyboard-response","354","1305841","0.0-6.0-5.49","3362643","co40201","norming","","","","","","",""
"4192.329999990761","","","post_reveal_questions","survey-likert","355","1310037","0.0-6.0-6.49","3362643","co40201","norming","","","{""aha"":1}","[0]","../img/tt/1069tt.jpg","",""
"null","<div style=""font-size:60px;""> </div>","null","fixation","html-keyboard-response","356","1310239","0.0-6.0-0.50","3362643","co40201","norming","","","","","","",""
"null","../img/tt/135tt.jpg","null","mooney1","image-keyboard-response","357","1313244","0.0-6.0-1.50","3362643","co40201","norming","","","","","","",""
"4923.115000128746","","","post_mooney1_questions","survey-likert","358","1318174","0.0-6.0-2.50","3362643","co40201","norming","","","{""curiosity"":1,""confidence"":1}","[0,1]","../img/tt/135tt.jpg","",""
"2597.120000049472","","","recognition","survey-text","359","1320784","0.0-6.0-3.50","3362643","co40201","norming","","","{""guess"":""knoop""}","","../img/tt/135tt.jpg","",""
"null","../img/gs/135gs.jpg","null","reveal","image-keyboard-response","360","1322788","0.0-6.0-4.50","3362643","co40201","norming","","","","","","",""
"null","../img/tt/135tt.jpg","null","mooney2","image-keyboard-response","361","1324790","0.0-6.0-5.50","3362643","co40201","norming","","","","","","",""
"2443.334999959916","","","post_reveal_questions","survey-likert","362","1327238","0.0-6.0-6.50","3362643","co40201","norming","","","{""aha"":6}","[0]","../img/tt/135tt.jpg","",""
"null","<div style=""font-size:60px;""> </div>","null","fixation","html-keyboard-response","363","1327441","0.0-6.0-0.51","3362643","co40201","norming","","","","","","",""
"null","../img/tt/184tt.jpg","null","mooney1","image-keyboard-response","364","1330446","0.0-6.0-1.51","3362643","co40201","norming","","","","","","",""
"5565.184999955818","","","post_mooney1_questions","survey-likert","365","1336016","0.0-6.0-2.51","3362643","co40201","norming","","","{""curiosity"":1,""confidence"":1}","[0,1]","../img/tt/184tt.jpg","",""
"3321.659999899566","","","recognition","survey-text","366","1339349","0.0-6.0-3.51","3362643","co40201","norming","","","{""guess"":""stuk kaas""}","","../img/tt/184tt.jpg","",""
"null","../img/gs/184gs.jpg","null","reveal","image-keyboard-response","367","1341352","0.0-6.0-4.51","3362643","co40201","norming","","","","","","",""
"null","../img/tt/184tt.jpg","null","mooney2","image-keyboard-response","368","1343355","0.0-6.0-5.51","3362643","co40201","norming","","","","","","",""
"2133.5449998732656","","","post_reveal_questions","survey-likert","369","1345493","0.0-6.0-6.51","3362643","co40201","norming","","","{""aha"":2}","[0]","../img/tt/184tt.jpg","",""
"null","<div style=""font-size:60px;""> </div>","null","fixation","html-keyboard-response","370","1345697","0.0-6.0-0.52","3362643","co40201","norming","","","","","","",""
"null","../img/tt/082tt.jpg","null","mooney1","image-keyboard-response","371","1348702","0.0-6.0-1.52","3362643","co40201","norming","","","","","","",""
"6472.779999952763","","","post_mooney1_questions","survey-likert","372","1355181","0.0-6.0-2.52","3362643","co40201","norming","","","{""curiosity"":3,""confidence"":0}","[0,1]","../img/tt/082tt.jpg","",""
"1233.1799999810755","","","recognition","survey-text","373","1356418","0.0-6.0-3.52","3362643","co40201","norming","","","{""guess"":""""}","","../img/tt/082tt.jpg","",""
"null","../img/gs/082gs.jpg","null","reveal","image-keyboard-response","374","1358423","0.0-6.0-4.52","3362643","co40201","norming","","","","","","",""
"null","../img/tt/082tt.jpg","null","mooney2","image-keyboard-response","375","1360426","0.0-6.0-5.52","3362643","co40201","norming","","","","","","",""
"3647.774999961257","","","post_reveal_questions","survey-likert","376","1364078","0.0-6.0-6.52","3362643","co40201","norming","","","{""aha"":3}","[0]","../img/tt/082tt.jpg","",""
"null","<div style=""font-size:60px;""> </div>","null","fixation","html-keyboard-response","377","1364281","0.0-6.0-0.53","3362643","co40201","norming","","","","","","",""
"null","../img/tt/222tt.jpg","null","mooney1","image-keyboard-response","378","1367286","0.0-6.0-1.53","3362643","co40201","norming","","","","","","",""
"3994.3200000561774","","","post_mooney1_questions","survey-likert","379","1371286","0.0-6.0-2.53","3362643","co40201","norming","","","{""curiosity"":1,""confidence"":2}","[0,1]","../img/tt/222tt.jpg","",""
"2410.9100000932813","","","recognition","survey-text","380","1373702","0.0-6.0-3.53","3362643","co40201","norming","","","{""guess"":""kast""}","","../img/tt/222tt.jpg","",""
"null","../img/gs/222gs.jpg","null","reveal","image-keyboard-response","381","1375708","0.0-6.0-4.53","3362643","co40201","norming","","","","","","",""
"null","../img/tt/222tt.jpg","null","mooney2","image-keyboard-response","382","1377711","0.0-6.0-5.53","3362643","co40201","norming","","","","","","",""
"3740.890000015497","","","post_reveal_questions","survey-likert","383","1381456","0.0-6.0-6.53","3362643","co40201","norming","","","{""aha"":5}","[0]","../img/tt/222tt.jpg","",""
"null","<div style=""font-size:60px;""> </div>","null","fixation","html-keyboard-response","384","1381660","0.0-6.0-0.54","3362643","co40201","norming","","","","","","",""
"null","../img/tt/1366tt.jpg","null","mooney1","image-keyboard-response","385","1384666","0.0-6.0-1.54","3362643","co40201","norming","","","","","","",""
"3550.0099998898804","","","post_mooney1_questions","survey-likert","386","1388220","0.0-6.0-2.54","3362643","co40201","norming","","","{""curiosity"":1,""confidence"":2}","[0,1]","../img/tt/1366tt.jpg","",""
"2566.5950002148747","","","recognition","survey-text","387","1390798","0.0-6.0-3.54","3362643","co40201","norming","","","{""guess"":""wrap""}","","../img/tt/1366tt.jpg","",""
"null","../img/gs/1366gs.jpg","null","reveal","image-keyboard-response","388","1392804","0.0-6.0-4.54","3362643","co40201","norming","","","","","","",""
"null","../img/tt/1366tt.jpg","null","mooney2","image-keyboard-response","389","1394807","0.0-6.0-5.54","3362643","co40201","norming","","","","","","",""
"4498.370000161231","","","post_reveal_questions","survey-likert","390","1399311","0.0-6.0-6.54","3362643","co40201","norming","","","{""aha"":1}","[0]","../img/tt/1366tt.jpg","",""
"null","<div style=""font-size:60px;""> </div>","null","fixation","html-keyboard-response","391","1399513","0.0-6.0-0.55","3362643","co40201","norming","","","","","","",""
"null","../img/tt/124tt.jpg","null","mooney1","image-keyboard-response","392","1402518","0.0-6.0-1.55","3362643","co40201","norming","","","","","","",""
"6883.885000133887","","","post_mooney1_questions","survey-likert","393","1409407","0.0-6.0-2.55","3362643","co40201","norming","","","{""curiosity"":1,""confidence"":1}","[0,1]","../img/tt/124tt.jpg","",""
"3000.1850000116974","","","recognition","survey-text","394","1412412","0.0-6.0-3.55","3362643","co40201","norming","","","{""guess"":""vrouw""}","","../img/tt/124tt.jpg","",""
"null","../img/gs/124gs.jpg","null","reveal","image-keyboard-response","395","1414415","0.0-6.0-4.55","3362643","co40201","norming","","","","","","",""
"null","../img/tt/124tt.jpg","null","mooney2","image-keyboard-response","396","1416418","0.0-6.0-5.55","3362643","co40201","norming","","","","","","",""
"2411.3449999131262","","","post_reveal_questions","survey-likert","397","1418834","0.0-6.0-6.55","3362643","co40201","norming","","","{""aha"":4}","[0]","../img/tt/124tt.jpg","",""
"null","<div style=""font-size:60px;""> </div>","null","fixation","html-keyboard-response","398","1419035","0.0-6.0-0.56","3362643","co40201","norming","","","","","","",""
"null","../img/tt/1307tt.jpg","null","mooney1","image-keyboard-response","399","1422046","0.0-6.0-1.56","3362643","co40201","norming","","","","","","",""
"13012.895000167191","","","post_mooney1_questions","survey-likert","400","1435080","0.0-6.0-2.56","3362643","co40201","norming","","","{""curiosity"":1,""confidence"":1}","[0,1]","../img/tt/1307tt.jpg","",""
"6336.0850000754","","","recognition","survey-text","401","1441422","0.0-6.0-3.56","3362643","co40201","norming","","","{""guess"":""windblazer""}","","../img/tt/1307tt.jpg","",""
"null","../img/gs/1307gs.jpg","null","reveal","image-keyboard-response","402","1443424","0.0-6.0-4.56","3362643","co40201","norming","","","","","","",""
"null","../img/tt/1307tt.jpg","null","mooney2","image-keyboard-response","403","1445427","0.0-6.0-5.56","3362643","co40201","norming","","","","","","",""
"2854.174999985844","","","post_reveal_questions","survey-likert","404","1448285","0.0-6.0-6.56","3362643","co40201","norming","","","{""aha"":4}","[0]","../img/tt/1307tt.jpg","",""
"null","<div style=""font-size:60px;""> </div>","null","fixation","html-keyboard-response","405","1448495","0.0-6.0-0.57","3362643","co40201","norming","","","","","","",""
"null","../img/tt/1190tt.jpg","null","mooney1","image-keyboard-response","406","1451497","0.0-6.0-1.57","3362643","co40201","norming","","","","","","",""
"4781.889999983832","","","post_mooney1_questions","survey-likert","407","1456284","0.0-6.0-2.57","3362643","co40201","norming","","","{""curiosity"":1,""confidence"":2}","[0,1]","../img/tt/1190tt.jpg","",""
"2390.8200000878423","","","recognition","survey-text","408","1458680","0.0-6.0-3.57","3362643","co40201","norming","","","{""guess"":""spin""}","","../img/tt/1190tt.jpg","",""
"null","../img/gs/1190gs.jpg","null","reveal","image-keyboard-response","409","1460682","0.0-6.0-4.57","3362643","co40201","norming","","","","","","",""
"null","../img/tt/1190tt.jpg","null","mooney2","image-keyboard-response","410","1462686","0.0-6.0-5.57","3362643","co40201","norming","","","","","","",""
"1532.755000051111","","","post_reveal_questions","survey-likert","411","1464223","0.0-6.0-6.57","3362643","co40201","norming","","","{""aha"":4}","[0]","../img/tt/1190tt.jpg","",""
"null","<div style=""font-size:60px;""> </div>","null","fixation","html-keyboard-response","412","1464426","0.0-6.0-0.58","3362643","co40201","norming","","","","","","",""
"null","../img/tt/1024tt.jpg","null","mooney1","image-keyboard-response","413","1467430","0.0-6.0-1.58","3362643","co40201","norming","","","","","","",""
"4247.880000155419","","","post_mooney1_questions","survey-likert","414","1471683","0.0-6.0-2.58","3362643","co40201","norming","","","{""curiosity"":1,""confidence"":2}","[0,1]","../img/tt/1024tt.jpg","",""
"3101.185000035912","","","recognition","survey-text","415","1474789","0.0-6.0-3.58","3362643","co40201","norming","","","{""guess"":""bever""}","","../img/tt/1024tt.jpg","",""
"null","../img/gs/1024gs.jpg","null","reveal","image-keyboard-response","416","1476791","0.0-6.0-4.58","3362643","co40201","norming","","","","","","",""
"null","../img/tt/1024tt.jpg","null","mooney2","image-keyboard-response","417","1478795","0.0-6.0-5.58","3362643","co40201","norming","","","","","","",""
"1663.494999986142","","","post_reveal_questions","survey-likert","418","1480462","0.0-6.0-6.58","3362643","co40201","norming","","","{""aha"":5}","[0]","../img/tt/1024tt.jpg","",""
"null","<div style=""font-size:60px;""> </div>","null","fixation","html-keyboard-response","419","1480664","0.0-6.0-0.59","3362643","co40201","norming","","","","","","",""
"null","../img/tt/1232tt.jpg","null","mooney1","image-keyboard-response","420","1483669","0.0-6.0-1.59","3362643","co40201","norming","","","","","","",""
"3777.5650001131","","","post_mooney1_questions","survey-likert","421","1487451","0.0-6.0-2.59","3362643","co40201","norming","","","{""curiosity"":1,""confidence"":2}","[0,1]","../img/tt/1232tt.jpg","",""
"3688.94000002183","","","recognition","survey-text","422","1491147","0.0-6.0-3.59","3362643","co40201","norming","","","{""guess"":""treinspoor""}","","../img/tt/1232tt.jpg","",""
"null","../img/gs/1232gs.jpg","null","reveal","image-keyboard-response","423","1493150","0.0-6.0-4.59","3362643","co40201","norming","","","","","","",""
"null","../img/tt/1232tt.jpg","null","mooney2","image-keyboard-response","424","1495153","0.0-6.0-5.59","3362643","co40201","norming","","","","","","",""
"2372.0899999607354","","","post_reveal_questions","survey-likert","425","1497529","0.0-6.0-6.59","3362643","co40201","norming","","","{""aha"":3}","[0]","../img/tt/1232tt.jpg","",""
"null","<div style=""font-size:60px;""> </div>","null","fixation","html-keyboard-response","426","1497731","0.0-6.0-0.60","3362643","co40201","norming","","","","","","",""
"null","../img/tt/599tt.jpg","null","mooney1","image-keyboard-response","427","1500735","0.0-6.0-1.60","3362643","co40201","norming","","","","","","",""
"5159.175000153482","","","post_mooney1_questions","survey-likert","428","1505899","0.0-6.0-2.60","3362643","co40201","norming","","","{""curiosity"":1,""confidence"":0}","[0,1]","../img/tt/599tt.jpg","",""
"893.3500000275671","","","recognition","survey-text","429","1506798","0.0-6.0-3.60","3362643","co40201","norming","","","{""guess"":""""}","","../img/tt/599tt.jpg","",""
"null","../img/gs/599gs.jpg","null","reveal","image-keyboard-response","430","1508800","0.0-6.0-4.60","3362643","co40201","norming","","","","","","",""
"null","../img/tt/599tt.jpg","null","mooney2","image-keyboard-response","431","1510803","0.0-6.0-5.60","3362643","co40201","norming","","","","","","",""
"3060.4449999518692","","","post_reveal_questions","survey-likert","432","1513868","0.0-6.0-6.60","3362643","co40201","norming","","","{""aha"":2}","[0]","../img/tt/599tt.jpg","",""
"null","<div style=""font-size:60px;""> </div>","null","fixation","html-keyboard-response","433","1514070","0.0-6.0-0.61","3362643","co40201","norming","","","","","","",""
"null","../img/tt/019tt.jpg","null","mooney1","image-keyboard-response","434","1517075","0.0-6.0-1.61","3362643","co40201","norming","","","","","","",""
"7835.435000015423","","","post_mooney1_questions","survey-likert","435","1524915","0.0-6.0-2.61","3362643","co40201","norming","","","{""curiosity"":2,""confidence"":4}","[0,1]","../img/tt/019tt.jpg","",""
"2742.0449999626726","","","recognition","survey-text","436","1527662","0.0-6.0-3.61","3362643","co40201","norming","","","{""guess"":""tang""}","","../img/tt/019tt.jpg","",""
"null","../img/gs/019gs.jpg","null","reveal","image-keyboard-response","437","1529672","0.0-6.0-4.61","3362643","co40201","norming","","","","","","",""
"null","../img/tt/019tt.jpg","null","mooney2","image-keyboard-response","438","1531676","0.0-6.0-5.61","3362643","co40201","norming","","","","","","",""
"3950.8999998215586","","","post_reveal_questions","survey-likert","439","1535631","0.0-6.0-6.61","3362643","co40201","norming","","","{""aha"":0}","[0]","../img/tt/019tt.jpg","",""
"null","<div style=""font-size:60px;""> </div>","null","fixation","html-keyboard-response","440","1535833","0.0-6.0-0.62","3362643","co40201","norming","","","","","","",""
"null","../img/tt/1224tt.jpg","null","mooney1","image-keyboard-response","441","1538838","0.0-6.0-1.62","3362643","co40201","norming","","","","","","",""
"7945.790000027046","","","post_mooney1_questions","survey-likert","442","1546786","0.0-6.0-2.62","3362643","co40201","norming","","","{""curiosity"":1,""confidence"":2}","[0,1]","../img/tt/1224tt.jpg","",""
"4479.320000158623","","","recognition","survey-text","443","1551270","0.0-6.0-3.62","3362643","co40201","norming","","","{""guess"":""vrouw""}","","../img/tt/1224tt.jpg","",""
"null","../img/gs/1224gs.jpg","null","reveal","image-keyboard-response","444","1553272","0.0-6.0-4.62","3362643","co40201","norming","","","","","","",""
"null","../img/tt/1224tt.jpg","null","mooney2","image-keyboard-response","445","1555276","0.0-6.0-5.62","3362643","co40201","norming","","","","","","",""
"2053.9200000930578","","","post_reveal_questions","survey-likert","446","1557333","0.0-6.0-6.62","3362643","co40201","norming","","","{""aha"":4}","[0]","../img/tt/1224tt.jpg","",""
"null","<div style=""font-size:60px;""> </div>","null","fixation","html-keyboard-response","447","1557536","0.0-6.0-0.63","3362643","co40201","norming","","","","","","",""
"null","../img/tt/091tt.jpg","null","mooney1","image-keyboard-response","448","1560541","0.0-6.0-1.63","3362643","co40201","norming","","","","","","",""
"4797.384999925271","","","post_mooney1_questions","survey-likert","449","1565343","0.0-6.0-2.63","3362643","co40201","norming","","","{""curiosity"":3,""confidence"":0}","[0,1]","../img/tt/091tt.jpg","",""
"725.8299998939037","","","recognition","survey-text","450","1566079","0.0-6.0-3.63","3362643","co40201","norming","","","{""guess"":""""}","","../img/tt/091tt.jpg","",""
"null","../img/gs/091gs.jpg","null","reveal","image-keyboard-response","451","1568082","0.0-6.0-4.63","3362643","co40201","norming","","","","","","",""
"null","../img/tt/091tt.jpg","null","mooney2","image-keyboard-response","452","1570085","0.0-6.0-5.63","3362643","co40201","norming","","","","","","",""
"1562.7699999604374","","","post_reveal_questions","survey-likert","453","1571653","0.0-6.0-6.63","3362643","co40201","norming","","","{""aha"":1}","[0]","../img/tt/091tt.jpg","",""
"null","<div style=""font-size:60px;""> </div>","null","fixation","html-keyboard-response","454","1571856","0.0-6.0-0.64","3362643","co40201","norming","","","","","","",""
"null","../img/tt/040tt.jpg","null","mooney1","image-keyboard-response","455","1574861","0.0-6.0-1.64","3362643","co40201","norming","","","","","","",""
"6017.4749998841435","","","post_mooney1_questions","survey-likert","456","1580883","0.0-6.0-2.64","3362643","co40201","norming","","","{""curiosity"":2,""confidence"":0}","[0,1]","../img/tt/040tt.jpg","",""
"764.1100001055747","","","recognition","survey-text","457","1581652","0.0-6.0-3.64","3362643","co40201","norming","","","{""guess"":""""}","","../img/tt/040tt.jpg","",""
"null","../img/gs/040gs.jpg","null","reveal","image-keyboard-response","458","1583655","0.0-6.0-4.64","3362643","co40201","norming","","","","","","",""
"null","../img/tt/040tt.jpg","null","mooney2","image-keyboard-response","459","1585660","0.0-6.0-5.64","3362643","co40201","norming","","","","","","",""
"2461.214999901131","","","post_reveal_questions","survey-likert","460","1588126","0.0-6.0-6.64","3362643","co40201","norming","","","{""aha"":1}","[0]","../img/tt/040tt.jpg","",""
"null","<div style=""font-size:60px;""> </div>","null","fixation","html-keyboard-response","461","1588336","0.0-6.0-0.65","3362643","co40201","norming","","","","","","",""
"null","../img/tt/357tt.jpg","null","mooney1","image-keyboard-response","462","1591340","0.0-6.0-1.65","3362643","co40201","norming","","","","","","",""
"7157.8450000379235","","","post_mooney1_questions","survey-likert","463","1598503","0.0-6.0-2.65","3362643","co40201","norming","","","{""curiosity"":1,""confidence"":0}","[0,1]","../img/tt/357tt.jpg","",""
"1603.605000069365","","","recognition","survey-text","464","1600111","0.0-6.0-3.65","3362643","co40201","norming","","","{""guess"":""""}","","../img/tt/357tt.jpg","",""
"null","../img/gs/357gs.jpg","null","reveal","image-keyboard-response","465","1602114","0.0-6.0-4.65","3362643","co40201","norming","","","","","","",""
"null","../img/tt/357tt.jpg","null","mooney2","image-keyboard-response","466","1604123","0.0-6.0-5.65","3362643","co40201","norming","","","","","","",""
"4553.770000115037","","","post_reveal_questions","survey-likert","467","1608680","0.0-6.0-6.65","3362643","co40201","norming","","","{""aha"":0}","[0]","../img/tt/357tt.jpg","",""
"null","<div style=""font-size:60px;""> </div>","null","fixation","html-keyboard-response","468","1608882","0.0-6.0-0.66","3362643","co40201","norming","","","","","","",""
"null","../img/tt/1143tt.jpg","null","mooney1","image-keyboard-response","469","1611887","0.0-6.0-1.66","3362643","co40201","norming","","","","","","",""
"5926.454999949783","","","post_mooney1_questions","survey-likert","470","1617818","0.0-6.0-2.66","3362643","co40201","norming","","","{""curiosity"":1,""confidence"":2}","[0,1]","../img/tt/1143tt.jpg","",""
"8749.66000020504","","","recognition","survey-text","471","1626575","0.0-6.0-3.66","3362643","co40201","norming","","","{""guess"":""fitnesstoestellen""}","","../img/tt/1143tt.jpg","",""
"null","../img/gs/1143gs.jpg","null","reveal","image-keyboard-response","472","1628577","0.0-6.0-4.66","3362643","co40201","norming","","","","","","",""
"null","../img/tt/1143tt.jpg","null","mooney2","image-keyboard-response","473","1630581","0.0-6.0-5.66","3362643","co40201","norming","","","","","","",""
"5060.78499997966","","","post_reveal_questions","survey-likert","474","1635645","0.0-6.0-6.66","3362643","co40201","norming","","","{""aha"":3}","[0]","../img/tt/1143tt.jpg","",""
"null","<div style=""font-size:60px;""> </div>","null","fixation","html-keyboard-response","475","1635848","0.0-6.0-0.67","3362643","co40201","norming","","","","","","",""
"null","../img/tt/076tt.jpg","null","mooney1","image-keyboard-response","476","1638853","0.0-6.0-1.67","3362643","co40201","norming","","","","","","",""
"7593.8399999868125","","","post_mooney1_questions","survey-likert","477","1646452","0.0-6.0-2.67","3362643","co40201","norming","","","{""curiosity"":1,""confidence"":1}","[0,1]","../img/tt/076tt.jpg","",""
"2481.3500000163913","","","recognition","survey-text","478","1648938","0.0-6.0-3.67","3362643","co40201","norming","","","{""guess"":""schoen""}","","../img/tt/076tt.jpg","",""
"null","../img/gs/076gs.jpg","null","reveal","image-keyboard-response","479","1650941","0.0-6.0-4.67","3362643","co40201","norming","","","","","","",""
"null","../img/tt/076tt.jpg","null","mooney2","image-keyboard-response","480","1652944","0.0-6.0-5.67","3362643","co40201","norming","","","","","","",""
"3827.049999963492","","","post_reveal_questions","survey-likert","481","1656776","0.0-6.0-6.67","3362643","co40201","norming","","","{""aha"":2}","[0]","../img/tt/076tt.jpg","",""
"null","<div style=""font-size:60px;""> </div>","null","fixation","html-keyboard-response","482","1656979","0.0-6.0-0.68","3362643","co40201","norming","","","","","","",""
"null","../img/tt/189tt.jpg","null","mooney1","image-keyboard-response","483","1659984","0.0-6.0-1.68","3362643","co40201","norming","","","","","","",""
"11305.050000082701","","","post_mooney1_questions","survey-likert","484","1671294","0.0-6.0-2.68","3362643","co40201","norming","","","{""curiosity"":1,""confidence"":2}","[0,1]","../img/tt/189tt.jpg","",""
"4744.590000016615","","","recognition","survey-text","485","1676044","0.0-6.0-3.68","3362643","co40201","norming","","","{""guess"":""circusartiest""}","","../img/tt/189tt.jpg","",""
"null","../img/gs/189gs.jpg","null","reveal","image-keyboard-response","486","1678046","0.0-6.0-4.68","3362643","co40201","norming","","","","","","",""
"null","../img/tt/189tt.jpg","null","mooney2","image-keyboard-response","487","1680050","0.0-6.0-5.68","3362643","co40201","norming","","","","","","",""
"2441.2749998737127","","","post_reveal_questions","survey-likert","488","1682498","0.0-6.0-6.68","3362643","co40201","norming","","","{""aha"":2}","[0]","../img/tt/189tt.jpg","",""
"null","<div style=""font-size:60px;""> </div>","null","fixation","html-keyboard-response","489","1682702","0.0-6.0-0.69","3362643","co40201","norming","","","","","","",""
"null","../img/tt/1171tt.jpg","null","mooney1","image-keyboard-response","490","1685707","0.0-6.0-1.69","3362643","co40201","norming","","","","","","",""
"5129.304999951273","","","post_mooney1_questions","survey-likert","491","1690841","0.0-6.0-2.69","3362643","co40201","norming","","","{""curiosity"":3,""confidence"":0}","[0,1]","../img/tt/1171tt.jpg","",""
"1038.4200001135468","","","recognition","survey-text","492","1691886","0.0-6.0-3.69","3362643","co40201","norming","","","{""guess"":""""}","","../img/tt/1171tt.jpg","",""
"null","../img/gs/1171gs.jpg","null","reveal","image-keyboard-response","493","1693889","0.0-6.0-4.69","3362643","co40201","norming","","","","","","",""
"null","../img/tt/1171tt.jpg","null","mooney2","image-keyboard-response","494","1695892","0.0-6.0-5.69","3362643","co40201","norming","","","","","","",""
"3302.284999983385","","","post_reveal_questions","survey-likert","495","1699199","0.0-6.0-6.69","3362643","co40201","norming","","","{""aha"":3}","[0]","../img/tt/1171tt.jpg","",""
"null","<div style=""font-size:60px;""> </div>","null","fixation","html-keyboard-response","496","1699403","0.0-6.0-0.70","3362643","co40201","norming","","","","","","",""
"null","../img/tt/507tt.jpg","null","mooney1","image-keyboard-response","497","1702408","0.0-6.0-1.70","3362643","co40201","norming","","","","","","",""
"8838.525000028312","","","post_mooney1_questions","survey-likert","498","1711253","0.0-6.0-2.70","3362643","co40201","norming","","","{""curiosity"":1,""confidence"":2}","[0,1]","../img/tt/507tt.jpg","",""
"10517.80500006862","","","recognition","survey-text","499","1721776","0.0-6.0-3.70","3362643","co40201","norming","","","{""guess"":""mannequin""}","","../img/tt/507tt.jpg","",""
"null","../img/gs/507gs.jpg","null","reveal","image-keyboard-response","500","1723780","0.0-6.0-4.70","3362643","co40201","norming","","","","","","",""
"null","../img/tt/507tt.jpg","null","mooney2","image-keyboard-response","501","1725783","0.0-6.0-5.70","3362643","co40201","norming","","","","","","",""
"3062.6449999399483","","","post_reveal_questions","survey-likert","502","1728850","0.0-6.0-6.70","3362643","co40201","norming","","","{""aha"":1}","[0]","../img/tt/507tt.jpg","",""
"null","<div style=""font-size:60px;""> </div>","null","fixation","html-keyboard-response","503","1729058","0.0-6.0-0.71","3362643","co40201","norming","","","","","","",""
"null","../img/tt/001tt.jpg","null","mooney1","image-keyboard-response","504","1732062","0.0-6.0-1.71","3362643","co40201","norming","","","","","","",""
"5586.694999830797","","","post_mooney1_questions","survey-likert","505","1737654","0.0-6.0-2.71","3362643","co40201","norming","","","{""curiosity"":4,""confidence"":0}","[0,1]","../img/tt/001tt.jpg","",""
"742.3199999611825","","","recognition","survey-text","506","1738402","0.0-6.0-3.71","3362643","co40201","norming","","","{""guess"":""""}","","../img/tt/001tt.jpg","",""
"null","../img/gs/001gs.jpg","null","reveal","image-keyboard-response","507","1740405","0.0-6.0-4.71","3362643","co40201","norming","","","","","","",""
"null","../img/tt/001tt.jpg","null","mooney2","image-keyboard-response","508","1742408","0.0-6.0-5.71","3362643","co40201","norming","","","","","","",""
"2186.500000068918","","","post_reveal_questions","survey-likert","509","1744599","0.0-6.0-6.71","3362643","co40201","norming","","","{""aha"":0}","[0]","../img/tt/001tt.jpg","",""
"null","<div style=""font-size:60px;""> </div>","null","fixation","html-keyboard-response","510","1744801","0.0-6.0-0.72","3362643","co40201","norming","","","","","","",""
"null","../img/tt/436tt.jpg","null","mooney1","image-keyboard-response","511","1747805","0.0-6.0-1.72","3362643","co40201","norming","","","","","","",""
"7922.889999812469","","","post_mooney1_questions","survey-likert","512","1755733","0.0-6.0-2.72","3362643","co40201","norming","","","{""curiosity"":4,""confidence"":2}","[0,1]","../img/tt/436tt.jpg","",""
"2640.089999884367","","","recognition","survey-text","513","1758379","0.0-6.0-3.72","3362643","co40201","norming","","","{""guess"":""paard""}","","../img/tt/436tt.jpg","",""
"null","../img/gs/436gs.jpg","null","reveal","image-keyboard-response","514","1760382","0.0-6.0-4.72","3362643","co40201","norming","","","","","","",""
"null","../img/tt/436tt.jpg","null","mooney2","image-keyboard-response","515","1762384","0.0-6.0-5.72","3362643","co40201","norming","","","","","","",""
"4242.929999949411","","","post_reveal_questions","survey-likert","516","1766631","0.0-6.0-6.72","3362643","co40201","norming","","","{""aha"":0}","[0]","../img/tt/436tt.jpg","",""
"null","<div style=""font-size:60px;""> </div>","null","fixation","html-keyboard-response","517","1766834","0.0-6.0-0.73","3362643","co40201","norming","","","","","","",""
"null","../img/tt/1279tt.jpg","null","mooney1","image-keyboard-response","518","1769839","0.0-6.0-1.73","3362643","co40201","norming","","","","","","",""
"4166.904999874532","","","post_mooney1_questions","survey-likert","519","1774011","0.0-6.0-2.73","3362643","co40201","norming","","","{""curiosity"":1,""confidence"":2}","[0,1]","../img/tt/1279tt.jpg","",""
"3941.419999813661","","","recognition","survey-text","520","1777959","0.0-6.0-3.73","3362643","co40201","norming","","","{""guess"":""wolven""}","","../img/tt/1279tt.jpg","",""
"null","../img/gs/1279gs.jpg","null","reveal","image-keyboard-response","521","1779962","0.0-6.0-4.73","3362643","co40201","norming","","","","","","",""
"null","../img/tt/1279tt.jpg","null","mooney2","image-keyboard-response","522","1781967","0.0-6.0-5.73","3362643","co40201","norming","","","","","","",""
"1878.1449999660254","","","post_reveal_questions","survey-likert","523","1783849","0.0-6.0-6.73","3362643","co40201","norming","","","{""aha"":1}","[0]","../img/tt/1279tt.jpg","",""
"null","<div style=""font-size:60px;""> </div>","null","fixation","html-keyboard-response","524","1784051","0.0-6.0-0.74","3362643","co40201","norming","","","","","","",""
"null","../img/tt/1089tt.jpg","null","mooney1","image-keyboard-response","525","1787055","0.0-6.0-1.74","3362643","co40201","norming","","","","","","",""
"5010.75499993749","","","post_mooney1_questions","survey-likert","526","1792071","0.0-6.0-2.74","3362643","co40201","norming","","","{""curiosity"":1,""confidence"":4}","[0,1]","../img/tt/1089tt.jpg","",""
"3220.6299998797476","","","recognition","survey-text","527","1795296","0.0-6.0-3.74","3362643","co40201","norming","","","{""guess"":""olifanten""}","","../img/tt/1089tt.jpg","",""
"null","../img/gs/1089gs.jpg","null","reveal","image-keyboard-response","528","1797298","0.0-6.0-4.74","3362643","co40201","norming","","","","","","",""
"null","../img/tt/1089tt.jpg","null","mooney2","image-keyboard-response","529","1799302","0.0-6.0-5.74","3362643","co40201","norming","","","","","","",""
"2272.564999992028","","","post_reveal_questions","survey-likert","530","1801579","0.0-6.0-6.74","3362643","co40201","norming","","","{""aha"":0}","[0]","../img/tt/1089tt.jpg","",""
"null","<div style=""font-size:60px;""> </div>","null","fixation","html-keyboard-response","531","1801781","0.0-6.0-0.75","3362643","co40201","norming","","","","","","",""
"null","../img/tt/1276tt.jpg","null","mooney1","image-keyboard-response","532","1804786","0.0-6.0-1.75","3362643","co40201","norming","","","","","","",""
"28294.960000086576","","","post_mooney1_questions","survey-likert","533","1833086","0.0-6.0-2.75","3362643","co40201","norming","","","{""curiosity"":1,""confidence"":1}","[0,1]","../img/tt/1276tt.jpg","",""
"3567.3399998340756","","","recognition","survey-text","534","1836658","0.0-6.0-3.75","3362643","co40201","norming","","","{""guess"":""koe""}","","../img/tt/1276tt.jpg","",""
"null","../img/gs/1276gs.jpg","null","reveal","image-keyboard-response","535","1838662","0.0-6.0-4.75","3362643","co40201","norming","","","","","","",""
"null","../img/tt/1276tt.jpg","null","mooney2","image-keyboard-response","536","1840665","0.0-6.0-5.75","3362643","co40201","norming","","","","","","",""
"2750.9349999018013","","","post_reveal_questions","survey-likert","537","1843421","0.0-6.0-6.75","3362643","co40201","norming","","","{""aha"":1}","[0]","../img/tt/1276tt.jpg","",""
"null","<div style=""font-size:60px;""> </div>","null","fixation","html-keyboard-response","538","1843623","0.0-6.0-0.76","3362643","co40201","norming","","","","","","",""
"null","../img/tt/549tt.jpg","null","mooney1","image-keyboard-response","539","1846628","0.0-6.0-1.76","3362643","co40201","norming","","","","","","",""
"4656.940000131726","","","post_mooney1_questions","survey-likert","540","1851290","0.0-6.0-2.76","3362643","co40201","norming","","","{""curiosity"":4,""confidence"":0}","[0,1]","../img/tt/549tt.jpg","",""
"2323.809999972582","","","recognition","survey-text","541","1853619","0.0-6.0-3.76","3362643","co40201","norming","","","{""guess"":""""}","","../img/tt/549tt.jpg","",""
"null","../img/gs/549gs.jpg","null","reveal","image-keyboard-response","542","1855623","0.0-6.0-4.76","3362643","co40201","norming","","","","","","",""
"null","../img/tt/549tt.jpg","null","mooney2","image-keyboard-response","543","1857627","0.0-6.0-5.76","3362643","co40201","norming","","","","","","",""
"12855.890000006184","","","post_reveal_questions","survey-likert","544","1870486","0.0-6.0-6.76","3362643","co40201","norming","","","{""aha"":0}","[0]","../img/tt/549tt.jpg","",""
"null","<div style=""font-size:60px;""> </div>","null","fixation","html-keyboard-response","545","1870689","0.0-6.0-0.77","3362643","co40201","norming","","","","","","",""
"null","../img/tt/1044tt.jpg","null","mooney1","image-keyboard-response","546","1873693","0.0-6.0-1.77","3362643","co40201","norming","","","","","","",""
"4298.935000086203","","","post_mooney1_questions","survey-likert","547","1877997","0.0-6.0-2.77","3362643","co40201","norming","","","{""curiosity"":1,""confidence"":2}","[0,1]","../img/tt/1044tt.jpg","",""
"4300.920000066981","","","recognition","survey-text","548","1882303","0.0-6.0-3.77","3362643","co40201","norming","","","{""guess"":""honinggraat""}","","../img/tt/1044tt.jpg","",""
"null","../img/gs/1044gs.jpg","null","reveal","image-keyboard-response","549","1884305","0.0-6.0-4.77","3362643","co40201","norming","","","","","","",""
"null","../img/tt/1044tt.jpg","null","mooney2","image-keyboard-response","550","1886308","0.0-6.0-5.77","3362643","co40201","norming","","","","","","",""
"1736.269999993965","","","post_reveal_questions","survey-likert","551","1888052","0.0-6.0-6.77","3362643","co40201","norming","","","{""aha"":2}","[0]","../img/tt/1044tt.jpg","",""
