"rt","stimulus","key_press","test_part","trial_type","trial_index","time_elapsed","internal_node_id","totalTime","subject","experiment_name","button_pressed","success","responses","question_order","currentStim","old","correct"
"3111","Welcome to the experiment. This is an online experiment so please don't close the tab/window until we say goodbye.  Press any key to begin.","32","instructions","html-keyboard-response","0","3125","0.0-0.0","3698969","co40159","norming","","","","","","",""
"4802","<div style='word-wrap: break-word; width: 900px'><h3>Please consider this information carefully before deciding whether to participate in this research</h3><ul style='text-align: left; font-size: .8em;'><li><b>Purpose of the research</b>: To examine how people process images.</li><li><b>What you will do in this research</b>:  Stimuli (images) will be presented on the computer and you will be asked different questions about them.</li><li><b>Time required</b>: Participation will take between 45 and 60 minutes to complete.</li><li><b>Risks</b>:  There are no anticipated risks associated with participating in this study. The effects of participating should be comparable to those you would experience from viewing a computer monitor for 30 minutes and using a mouse or keyboard.</li><li><b>Benefits</b>:  This study provides no benefits to you individually except for the credit. The study provides important information about the nature of perception and learning.</li><li><b>Confidentiality</b>:  Your participation in this study will remain confidential. No personally identifiable information will be associated with your data. Your de-identified data may be shared with other researchers and used in future projects.</li><li><b>Participation and withdrawal</b>:  Your participation in this study is completely voluntary and you may refuse to participate or you may choose to withdraw at any time without penalty.</li><li><b>How to contact the researchers</b>: If you have questions or concerns about your participation or payment, or want to request a summary of research findings, please contact Sander Van de Cruys (KU Leuven), at sander.vandecruys@kuleuven.be.</li></ul><p>The nature and purpose of this research have been sufficiently explained and I agree to participate in this study.  I understand that I am free to withdraw at any time without incurring any penalty.</p><p>Please consent by clicking the button below to continue. Otherwise, please exit the study at this time.</p></div>","","instructions","html-button-response","1","7930","0.0-1.0","3698969","co40159","norming","0","","","","","",""
"","","","instructions","fullscreen","2","11731","0.0-2.0","3698969","co40159","norming","","true","","","","",""
"16794","","","sona","survey-html-form","3","28529","0.0-3.0","3698969","co40159","norming","","","[{""name"":""sonaid"",""value"":""40159""},{""name"":""debrief"",""value"":""yes""},{""name"":""datajoin"",""value"":""yes""}]","","","",""
"48788","<div style='word-wrap: break-word; width: 900px'><h3>Instructions</h3><p>This experiment will have 3 parts. In the first part you will see a series of distorted images like the one below on the left. As you can see in the righthand image, the distorted images are derived from actual photographs. In what follows, you will <strong>briefly</strong> be presented with <strong>only</strong> the distorted image.</p> <div style='float: left; margin-right: 20px;'><img src='../img/018tt.jpg' height='250' width='250'></img></div><div style='float: right; margin-left: 20px;'><img src='../img/018gs.jpg' height='250' width='250'></img></div><p>Subsequently you will be asked a few questions about the image: One question on how <strong>curious</strong> you are about the solution and one on how <strong>confident</strong> you are that you know the solution.</p>Next, we ask you to make a guess on what is in the image. Note that it is OK to name just the <strong>basic level category</strong>. For example when you see a parrot in the image, 'parrot' will obviously be a correct answer but also correct is 'bird'. However, 'animal' will <strong>not</strong> be counted as a correct response. For the example above, 'rose' would be correct or 'flower', but not 'plant'. When soccer players are depicted, 'soccer', 'football', 'soccer players' will be correct, but not 'humans', 'outdoors', or 'sports'. You do not need to describe the image in full, just name the main object in it <strong>in one or two words</strong>. All images depict objects from one of the following broad level categories: animals, inanimate objects, plants, sports, vehicles, and food. Recognizing means knowing <strong>more</strong> than these broad labels for a given image. But we always encourage you to <strong>make a guess</strong> if you can. Note that you are allowed to use <strong>Dutch and English</strong> in your answers, whatever comes easiest for you.</p><p>Press any key to continue.</p></div>","39","instructions","html-keyboard-response","4","77320","0.0-4.0","3698969","co40159","norming","","","","","","",""
"1591","<div style='word-wrap: break-word; width: 900px'><h3>Instructions</h3> <p>Next, the solution image will be revealed to you and you'll be asked to indicate how strong your <strong>aha-experience</strong> was after seeing the solution. This describes the positive feeling of the 'click' you sometimes experience, when the pieces of the 'puzzle' fall together and you suddenly have 'insight' in the image.</p><img src='aha.jpg' height='188' width='250'></img><p>Note that there are no right or wrong answers. We are interested in what <strong>you</strong> see in the image and how <strong>you</strong> feel about it.</p><p>Press any key to start the experiment.</p></div>","32","instructions","html-keyboard-response","5","78912","0.0-5.0","3698969","co40159","norming","","","","","","",""
"null","<div style=""font-size:60px;""> </div>","null","fixation","html-keyboard-response","6","79114","0.0-6.0-0.0","3698969","co40159","norming","","","","","","",""
"null","../img/tt/1044tt.jpg","null","mooney1","image-keyboard-response","7","82117","0.0-6.0-1.0","3698969","co40159","norming","","","","","","",""
"20497","","","post_mooney1_questions","survey-likert","8","102617","0.0-6.0-2.0","3698969","co40159","norming","","","{""curiosity"":6,""confidence"":0}","[0,1]","../img/tt/1044tt.jpg","",""
"8839","","","recognition","survey-text","9","111465","0.0-6.0-3.0","3698969","co40159","norming","","","{""guess"":""didn't see a picture..""}","","../img/tt/1044tt.jpg","",""
"null","../img/gs/1044gs.jpg","null","reveal","image-keyboard-response","10","113469","0.0-6.0-4.0","3698969","co40159","norming","","","","","","",""
"null","../img/tt/1044tt.jpg","null","mooney2","image-keyboard-response","11","115471","0.0-6.0-5.0","3698969","co40159","norming","","","","","","",""
"3764","","","post_reveal_questions","survey-likert","12","119237","0.0-6.0-6.0","3698969","co40159","norming","","","{""aha"":6}","[0]","../img/tt/1044tt.jpg","",""
"null","<div style=""font-size:60px;""> </div>","null","fixation","html-keyboard-response","13","119442","0.0-6.0-0.1","3698969","co40159","norming","","","","","","",""
"null","../img/tt/418tt.jpg","null","mooney1","image-keyboard-response","14","122444","0.0-6.0-1.1","3698969","co40159","norming","","","","","","",""
"4782.000000000029","","","post_mooney1_questions","survey-likert","15","127229","0.0-6.0-2.1","3698969","co40159","norming","","","{""curiosity"":6,""confidence"":1}","[0,1]","../img/tt/418tt.jpg","",""
"2656","","","recognition","survey-text","16","129893","0.0-6.0-3.1","3698969","co40159","norming","","","{""guess"":""grapes""}","","../img/tt/418tt.jpg","",""
"null","../img/gs/418gs.jpg","null","reveal","image-keyboard-response","17","131895","0.0-6.0-4.1","3698969","co40159","norming","","","","","","",""
"null","../img/tt/418tt.jpg","null","mooney2","image-keyboard-response","18","133897","0.0-6.0-5.1","3698969","co40159","norming","","","","","","",""
"2528","","","post_reveal_questions","survey-likert","19","136426","0.0-6.0-6.1","3698969","co40159","norming","","","{""aha"":6}","[0]","../img/tt/418tt.jpg","",""
"null","<div style=""font-size:60px;""> </div>","null","fixation","html-keyboard-response","20","136630","0.0-6.0-0.2","3698969","co40159","norming","","","","","","",""
"null","../img/tt/1089tt.jpg","null","mooney1","image-keyboard-response","21","139633","0.0-6.0-1.2","3698969","co40159","norming","","","","","","",""
"4494","","","post_mooney1_questions","survey-likert","22","144129","0.0-6.0-2.2","3698969","co40159","norming","","","{""curiosity"":5,""confidence"":0}","[0,1]","../img/tt/1089tt.jpg","",""
"6406","","","recognition","survey-text","23","150544","0.0-6.0-3.2","3698969","co40159","norming","","","{""guess"":""boerderij""}","","../img/tt/1089tt.jpg","",""
"null","../img/gs/1089gs.jpg","null","reveal","image-keyboard-response","24","152546","0.0-6.0-4.2","3698969","co40159","norming","","","","","","",""
"null","../img/tt/1089tt.jpg","null","mooney2","image-keyboard-response","25","154549","0.0-6.0-5.2","3698969","co40159","norming","","","","","","",""
"3680","","","post_reveal_questions","survey-likert","26","158230","0.0-6.0-6.2","3698969","co40159","norming","","","{""aha"":1}","[0]","../img/tt/1089tt.jpg","",""
"null","<div style=""font-size:60px;""> </div>","null","fixation","html-keyboard-response","27","158434","0.0-6.0-0.3","3698969","co40159","norming","","","","","","",""
"null","../img/tt/456tt.jpg","null","mooney1","image-keyboard-response","28","161436","0.0-6.0-1.3","3698969","co40159","norming","","","","","","",""
"3921","","","post_mooney1_questions","survey-likert","29","165360","0.0-6.0-2.3","3698969","co40159","norming","","","{""curiosity"":6,""confidence"":5}","[0,1]","../img/tt/456tt.jpg","",""
"2874.000000000029","","","recognition","survey-text","30","168241","0.0-6.0-3.3","3698969","co40159","norming","","","{""guess"":""zeehond""}","","../img/tt/456tt.jpg","",""
"null","../img/gs/456gs.jpg","null","reveal","image-keyboard-response","31","170243","0.0-6.0-4.3","3698969","co40159","norming","","","","","","",""
"null","../img/tt/456tt.jpg","null","mooney2","image-keyboard-response","32","172246","0.0-6.0-5.3","3698969","co40159","norming","","","","","","",""
"2776.999999999971","","","post_reveal_questions","survey-likert","33","175025","0.0-6.0-6.3","3698969","co40159","norming","","","{""aha"":5}","[0]","../img/tt/456tt.jpg","",""
"null","<div style=""font-size:60px;""> </div>","null","fixation","html-keyboard-response","34","175229","0.0-6.0-0.4","3698969","co40159","norming","","","","","","",""
"null","../img/tt/111tt.jpg","null","mooney1","image-keyboard-response","35","178232","0.0-6.0-1.4","3698969","co40159","norming","","","","","","",""
"4532.000000000029","","","post_mooney1_questions","survey-likert","36","182766","0.0-6.0-2.4","3698969","co40159","norming","","","{""curiosity"":5,""confidence"":4}","[0,1]","../img/tt/111tt.jpg","",""
"2692","","","recognition","survey-text","37","185467","0.0-6.0-3.4","3698969","co40159","norming","","","{""guess"":""papegaai""}","","../img/tt/111tt.jpg","",""
"null","../img/gs/111gs.jpg","null","reveal","image-keyboard-response","38","187469","0.0-6.0-4.4","3698969","co40159","norming","","","","","","",""
"null","../img/tt/111tt.jpg","null","mooney2","image-keyboard-response","39","189472","0.0-6.0-5.4","3698969","co40159","norming","","","","","","",""
"2501.000000000029","","","post_reveal_questions","survey-likert","40","191974","0.0-6.0-6.4","3698969","co40159","norming","","","{""aha"":1}","[0]","../img/tt/111tt.jpg","",""
"null","<div style=""font-size:60px;""> </div>","null","fixation","html-keyboard-response","41","192178","0.0-6.0-0.5","3698969","co40159","norming","","","","","","",""
"null","../img/tt/1181tt.jpg","null","mooney1","image-keyboard-response","42","195181","0.0-6.0-1.5","3698969","co40159","norming","","","","","","",""
"3848","","","post_mooney1_questions","survey-likert","43","199031","0.0-6.0-2.5","3698969","co40159","norming","","","{""curiosity"":5,""confidence"":3}","[0,1]","../img/tt/1181tt.jpg","",""
"3049","","","recognition","survey-text","44","202088","0.0-6.0-3.5","3698969","co40159","norming","","","{""guess"":""2 mensen""}","","../img/tt/1181tt.jpg","",""
"null","../img/gs/1181gs.jpg","null","reveal","image-keyboard-response","45","204090","0.0-6.0-4.5","3698969","co40159","norming","","","","","","",""
"null","../img/tt/1181tt.jpg","null","mooney2","image-keyboard-response","46","206093","0.0-6.0-5.5","3698969","co40159","norming","","","","","","",""
"1869","","","post_reveal_questions","survey-likert","47","207964","0.0-6.0-6.5","3698969","co40159","norming","","","{""aha"":5}","[0]","../img/tt/1181tt.jpg","",""
"null","<div style=""font-size:60px;""> </div>","null","fixation","html-keyboard-response","48","208168","0.0-6.0-0.6","3698969","co40159","norming","","","","","","",""
"null","../img/tt/060tt.jpg","null","mooney1","image-keyboard-response","49","211170","0.0-6.0-1.6","3698969","co40159","norming","","","","","","",""
"3800","","","post_mooney1_questions","survey-likert","50","214973","0.0-6.0-2.6","3698969","co40159","norming","","","{""curiosity"":5,""confidence"":1}","[0,1]","../img/tt/060tt.jpg","",""
"3046.999999999971","","","recognition","survey-text","51","218028","0.0-6.0-3.6","3698969","co40159","norming","","","{""guess"":""fietshelm""}","","../img/tt/060tt.jpg","",""
"null","../img/gs/060gs.jpg","null","reveal","image-keyboard-response","52","220029","0.0-6.0-4.6","3698969","co40159","norming","","","","","","",""
"null","../img/tt/060tt.jpg","null","mooney2","image-keyboard-response","53","222032","0.0-6.0-5.6","3698969","co40159","norming","","","","","","",""
"2713","","","post_reveal_questions","survey-likert","54","224747","0.0-6.0-6.6","3698969","co40159","norming","","","{""aha"":3}","[0]","../img/tt/060tt.jpg","",""
"null","<div style=""font-size:60px;""> </div>","null","fixation","html-keyboard-response","55","224950","0.0-6.0-0.7","3698969","co40159","norming","","","","","","",""
"null","../img/tt/096tt.jpg","null","mooney1","image-keyboard-response","56","227953","0.0-6.0-1.7","3698969","co40159","norming","","","","","","",""
"3459","","","post_mooney1_questions","survey-likert","57","231413","0.0-6.0-2.7","3698969","co40159","norming","","","{""curiosity"":5,""confidence"":4}","[0,1]","../img/tt/096tt.jpg","",""
"3217","","","recognition","survey-text","58","234638","0.0-6.0-3.7","3698969","co40159","norming","","","{""guess"":""nietjesmachine""}","","../img/tt/096tt.jpg","",""
"null","../img/gs/096gs.jpg","null","reveal","image-keyboard-response","59","236641","0.0-6.0-4.7","3698969","co40159","norming","","","","","","",""
"null","../img/tt/096tt.jpg","null","mooney2","image-keyboard-response","60","238643","0.0-6.0-5.7","3698969","co40159","norming","","","","","","",""
"2594","","","post_reveal_questions","survey-likert","61","241238","0.0-6.0-6.7","3698969","co40159","norming","","","{""aha"":5}","[0]","../img/tt/096tt.jpg","",""
"null","<div style=""font-size:60px;""> </div>","null","fixation","html-keyboard-response","62","241442","0.0-6.0-0.8","3698969","co40159","norming","","","","","","",""
"null","../img/tt/008tt.jpg","null","mooney1","image-keyboard-response","63","244445","0.0-6.0-1.8","3698969","co40159","norming","","","","","","",""
"4420.999999999942","","","post_mooney1_questions","survey-likert","64","248868","0.0-6.0-2.8","3698969","co40159","norming","","","{""curiosity"":5,""confidence"":0}","[0,1]","../img/tt/008tt.jpg","",""
"2339","","","recognition","survey-text","65","251214","0.0-6.0-3.8","3698969","co40159","norming","","","{""guess"":""geweer""}","","../img/tt/008tt.jpg","",""
"null","../img/gs/008gs.jpg","null","reveal","image-keyboard-response","66","253217","0.0-6.0-4.8","3698969","co40159","norming","","","","","","",""
"null","../img/tt/008tt.jpg","null","mooney2","image-keyboard-response","67","255219","0.0-6.0-5.8","3698969","co40159","norming","","","","","","",""
"2197","","","post_reveal_questions","survey-likert","68","257417","0.0-6.0-6.8","3698969","co40159","norming","","","{""aha"":6}","[0]","../img/tt/008tt.jpg","",""
"null","<div style=""font-size:60px;""> </div>","null","fixation","html-keyboard-response","69","257621","0.0-6.0-0.9","3698969","co40159","norming","","","","","","",""
"null","../img/tt/412tt.jpg","null","mooney1","image-keyboard-response","70","260624","0.0-6.0-1.9","3698969","co40159","norming","","","","","","",""
"6926","","","post_mooney1_questions","survey-likert","71","267552","0.0-6.0-2.9","3698969","co40159","norming","","","{""curiosity"":5,""confidence"":1}","[0,1]","../img/tt/412tt.jpg","",""
"2171","","","recognition","survey-text","72","269733","0.0-6.0-3.9","3698969","co40159","norming","","","{""guess"":""standbeeld""}","","../img/tt/412tt.jpg","",""
"null","../img/gs/412gs.jpg","null","reveal","image-keyboard-response","73","271735","0.0-6.0-4.9","3698969","co40159","norming","","","","","","",""
"null","../img/tt/412tt.jpg","null","mooney2","image-keyboard-response","74","273737","0.0-6.0-5.9","3698969","co40159","norming","","","","","","",""
"2490.000000000058","","","post_reveal_questions","survey-likert","75","276229","0.0-6.0-6.9","3698969","co40159","norming","","","{""aha"":4}","[0]","../img/tt/412tt.jpg","",""
"null","<div style=""font-size:60px;""> </div>","null","fixation","html-keyboard-response","76","276432","0.0-6.0-0.10","3698969","co40159","norming","","","","","","",""
"null","../img/tt/1236tt.jpg","null","mooney1","image-keyboard-response","77","279435","0.0-6.0-1.10","3698969","co40159","norming","","","","","","",""
"5167","","","post_mooney1_questions","survey-likert","78","284604","0.0-6.0-2.10","3698969","co40159","norming","","","{""curiosity"":5,""confidence"":1}","[0,1]","../img/tt/1236tt.jpg","",""
"4549","","","recognition","survey-text","79","289160","0.0-6.0-3.10","3698969","co40159","norming","","","{""guess"":""2 muurtjes""}","","../img/tt/1236tt.jpg","",""
"null","../img/gs/1236gs.jpg","null","reveal","image-keyboard-response","80","291162","0.0-6.0-4.10","3698969","co40159","norming","","","","","","",""
"null","../img/tt/1236tt.jpg","null","mooney2","image-keyboard-response","81","293165","0.0-6.0-5.10","3698969","co40159","norming","","","","","","",""
"2703","","","post_reveal_questions","survey-likert","82","295870","0.0-6.0-6.10","3698969","co40159","norming","","","{""aha"":1}","[0]","../img/tt/1236tt.jpg","",""
"null","<div style=""font-size:60px;""> </div>","null","fixation","html-keyboard-response","83","296075","0.0-6.0-0.11","3698969","co40159","norming","","","","","","",""
"null","../img/tt/1066tt.jpg","null","mooney1","image-keyboard-response","84","299077","0.0-6.0-1.11","3698969","co40159","norming","","","","","","",""
"4138","","","post_mooney1_questions","survey-likert","85","303217","0.0-6.0-2.11","3698969","co40159","norming","","","{""curiosity"":5,""confidence"":1}","[0,1]","../img/tt/1066tt.jpg","",""
"1931","","","recognition","survey-text","86","305157","0.0-6.0-3.11","3698969","co40159","norming","","","{""guess"":""printer""}","","../img/tt/1066tt.jpg","",""
"null","../img/gs/1066gs.jpg","null","reveal","image-keyboard-response","87","307159","0.0-6.0-4.11","3698969","co40159","norming","","","","","","",""
"null","../img/tt/1066tt.jpg","null","mooney2","image-keyboard-response","88","309162","0.0-6.0-5.11","3698969","co40159","norming","","","","","","",""
"2000","","","post_reveal_questions","survey-likert","89","311164","0.0-6.0-6.11","3698969","co40159","norming","","","{""aha"":4}","[0]","../img/tt/1066tt.jpg","",""
"null","<div style=""font-size:60px;""> </div>","null","fixation","html-keyboard-response","90","311367","0.0-6.0-0.12","3698969","co40159","norming","","","","","","",""
"null","../img/tt/1143tt.jpg","null","mooney1","image-keyboard-response","91","314369","0.0-6.0-1.12","3698969","co40159","norming","","","","","","",""
"4920","","","post_mooney1_questions","survey-likert","92","319291","0.0-6.0-2.12","3698969","co40159","norming","","","{""curiosity"":5,""confidence"":4}","[0,1]","../img/tt/1143tt.jpg","",""
"1850","","","recognition","survey-text","93","321150","0.0-6.0-3.12","3698969","co40159","norming","","","{""guess"":""fitness""}","","../img/tt/1143tt.jpg","",""
"null","../img/gs/1143gs.jpg","null","reveal","image-keyboard-response","94","323152","0.0-6.0-4.12","3698969","co40159","norming","","","","","","",""
"null","../img/tt/1143tt.jpg","null","mooney2","image-keyboard-response","95","325155","0.0-6.0-5.12","3698969","co40159","norming","","","","","","",""
"2221","","","post_reveal_questions","survey-likert","96","327377","0.0-6.0-6.12","3698969","co40159","norming","","","{""aha"":6}","[0]","../img/tt/1143tt.jpg","",""
"null","<div style=""font-size:60px;""> </div>","null","fixation","html-keyboard-response","97","327581","0.0-6.0-0.13","3698969","co40159","norming","","","","","","",""
"null","../img/tt/1247tt.jpg","null","mooney1","image-keyboard-response","98","330583","0.0-6.0-1.13","3698969","co40159","norming","","","","","","",""
"3100","","","post_mooney1_questions","survey-likert","99","333685","0.0-6.0-2.13","3698969","co40159","norming","","","{""curiosity"":5,""confidence"":5}","[0,1]","../img/tt/1247tt.jpg","",""
"2929","","","recognition","survey-text","100","336623","0.0-6.0-3.13","3698969","co40159","norming","","","{""guess"":""tijger""}","","../img/tt/1247tt.jpg","",""
"null","../img/gs/1247gs.jpg","null","reveal","image-keyboard-response","101","338625","0.0-6.0-4.13","3698969","co40159","norming","","","","","","",""
"null","../img/tt/1247tt.jpg","null","mooney2","image-keyboard-response","102","340627","0.0-6.0-5.13","3698969","co40159","norming","","","","","","",""
"1784","","","post_reveal_questions","survey-likert","103","342413","0.0-6.0-6.13","3698969","co40159","norming","","","{""aha"":6}","[0]","../img/tt/1247tt.jpg","",""
"null","<div style=""font-size:60px;""> </div>","null","fixation","html-keyboard-response","104","342617","0.0-6.0-0.14","3698969","co40159","norming","","","","","","",""
"null","../img/tt/1241tt.jpg","null","mooney1","image-keyboard-response","105","345619","0.0-6.0-1.14","3698969","co40159","norming","","","","","","",""
"4383","","","post_mooney1_questions","survey-likert","106","350005","0.0-6.0-2.14","3698969","co40159","norming","","","{""curiosity"":5,""confidence"":1}","[0,1]","../img/tt/1241tt.jpg","",""
"2275.999999999942","","","recognition","survey-text","107","352289","0.0-6.0-3.14","3698969","co40159","norming","","","{""guess"":""krokodil""}","","../img/tt/1241tt.jpg","",""
"null","../img/gs/1241gs.jpg","null","reveal","image-keyboard-response","108","354291","0.0-6.0-4.14","3698969","co40159","norming","","","","","","",""
"null","../img/tt/1241tt.jpg","null","mooney2","image-keyboard-response","109","356293","0.0-6.0-5.14","3698969","co40159","norming","","","","","","",""
"2070","","","post_reveal_questions","survey-likert","110","358365","0.0-6.0-6.14","3698969","co40159","norming","","","{""aha"":3}","[0]","../img/tt/1241tt.jpg","",""
"null","<div style=""font-size:60px;""> </div>","null","fixation","html-keyboard-response","111","358568","0.0-6.0-0.15","3698969","co40159","norming","","","","","","",""
"null","../img/tt/318tt.jpg","null","mooney1","image-keyboard-response","112","361571","0.0-6.0-1.15","3698969","co40159","norming","","","","","","",""
"3375","","","post_mooney1_questions","survey-likert","113","364949","0.0-6.0-2.15","3698969","co40159","norming","","","{""curiosity"":5,""confidence"":5}","[0,1]","../img/tt/318tt.jpg","",""
"6140","","","recognition","survey-text","114","371096","0.0-6.0-3.15","3698969","co40159","norming","","","{""guess"":""binnenkant auto, stuur""}","","../img/tt/318tt.jpg","",""
"null","../img/gs/318gs.jpg","null","reveal","image-keyboard-response","115","373099","0.0-6.0-4.15","3698969","co40159","norming","","","","","","",""
"null","../img/tt/318tt.jpg","null","mooney2","image-keyboard-response","116","375101","0.0-6.0-5.15","3698969","co40159","norming","","","","","","",""
"2077.999999999942","","","post_reveal_questions","survey-likert","117","377180","0.0-6.0-6.15","3698969","co40159","norming","","","{""aha"":5}","[0]","../img/tt/318tt.jpg","",""
"null","<div style=""font-size:60px;""> </div>","null","fixation","html-keyboard-response","118","377384","0.0-6.0-0.16","3698969","co40159","norming","","","","","","",""
"null","../img/tt/522tt.jpg","null","mooney1","image-keyboard-response","119","380386","0.0-6.0-1.16","3698969","co40159","norming","","","","","","",""
"3848","","","post_mooney1_questions","survey-likert","120","384236","0.0-6.0-2.16","3698969","co40159","norming","","","{""curiosity"":5,""confidence"":0}","[0,1]","../img/tt/522tt.jpg","",""
"1798","","","recognition","survey-text","121","386042","0.0-6.0-3.16","3698969","co40159","norming","","","{""guess"":""kreeft""}","","../img/tt/522tt.jpg","",""
"null","../img/gs/522gs.jpg","null","reveal","image-keyboard-response","122","388043","0.0-6.0-4.16","3698969","co40159","norming","","","","","","",""
"null","../img/tt/522tt.jpg","null","mooney2","image-keyboard-response","123","390045","0.0-6.0-5.16","3698969","co40159","norming","","","","","","",""
"2000","","","post_reveal_questions","survey-likert","124","392047","0.0-6.0-6.16","3698969","co40159","norming","","","{""aha"":1}","[0]","../img/tt/522tt.jpg","",""
"null","<div style=""font-size:60px;""> </div>","null","fixation","html-keyboard-response","125","392251","0.0-6.0-0.17","3698969","co40159","norming","","","","","","",""
"null","../img/tt/301tt.jpg","null","mooney1","image-keyboard-response","126","395253","0.0-6.0-1.17","3698969","co40159","norming","","","","","","",""
"3636","","","post_mooney1_questions","survey-likert","127","398891","0.0-6.0-2.17","3698969","co40159","norming","","","{""curiosity"":5,""confidence"":0}","[0,1]","../img/tt/301tt.jpg","",""
"2564","","","recognition","survey-text","128","401461","0.0-6.0-3.17","3698969","co40159","norming","","","{""guess"":""pistool""}","","../img/tt/301tt.jpg","",""
"null","../img/gs/301gs.jpg","null","reveal","image-keyboard-response","129","403463","0.0-6.0-4.17","3698969","co40159","norming","","","","","","",""
"null","../img/tt/301tt.jpg","null","mooney2","image-keyboard-response","130","405466","0.0-6.0-5.17","3698969","co40159","norming","","","","","","",""
"8498","","","post_reveal_questions","survey-likert","131","413965","0.0-6.0-6.17","3698969","co40159","norming","","","{""aha"":1}","[0]","../img/tt/301tt.jpg","",""
"null","<div style=""font-size:60px;""> </div>","null","fixation","html-keyboard-response","132","414169","0.0-6.0-0.18","3698969","co40159","norming","","","","","","",""
"null","../img/tt/1309tt.jpg","null","mooney1","image-keyboard-response","133","417172","0.0-6.0-1.18","3698969","co40159","norming","","","","","","",""
"2969","","","post_mooney1_questions","survey-likert","134","420143","0.0-6.0-2.18","3698969","co40159","norming","","","{""curiosity"":5,""confidence"":1}","[0,1]","../img/tt/1309tt.jpg","",""
"2280.000000000058","","","recognition","survey-text","135","422430","0.0-6.0-3.18","3698969","co40159","norming","","","{""guess"":""bos""}","","../img/tt/1309tt.jpg","",""
"null","../img/gs/1309gs.jpg","null","reveal","image-keyboard-response","136","424433","0.0-6.0-4.18","3698969","co40159","norming","","","","","","",""
"null","../img/tt/1309tt.jpg","null","mooney2","image-keyboard-response","137","426435","0.0-6.0-5.18","3698969","co40159","norming","","","","","","",""
"3692","","","post_reveal_questions","survey-likert","138","430129","0.0-6.0-6.18","3698969","co40159","norming","","","{""aha"":4}","[0]","../img/tt/1309tt.jpg","",""
"null","<div style=""font-size:60px;""> </div>","null","fixation","html-keyboard-response","139","430333","0.0-6.0-0.19","3698969","co40159","norming","","","","","","",""
"null","../img/tt/007tt.jpg","null","mooney1","image-keyboard-response","140","433335","0.0-6.0-1.19","3698969","co40159","norming","","","","","","",""
"5755.000000000058","","","post_mooney1_questions","survey-likert","141","439093","0.0-6.0-2.19","3698969","co40159","norming","","","{""curiosity"":5,""confidence"":0}","[0,1]","../img/tt/007tt.jpg","",""
"11366","","","recognition","survey-text","142","450467","0.0-6.0-3.19","3698969","co40159","norming","","","{""guess"":""walrus""}","","../img/tt/007tt.jpg","",""
"null","../img/gs/007gs.jpg","null","reveal","image-keyboard-response","143","452468","0.0-6.0-4.19","3698969","co40159","norming","","","","","","",""
"null","../img/tt/007tt.jpg","null","mooney2","image-keyboard-response","144","454471","0.0-6.0-5.19","3698969","co40159","norming","","","","","","",""
"1868","","","post_reveal_questions","survey-likert","145","456341","0.0-6.0-6.19","3698969","co40159","norming","","","{""aha"":1}","[0]","../img/tt/007tt.jpg","",""
"null","<div style=""font-size:60px;""> </div>","null","fixation","html-keyboard-response","146","456545","0.0-6.0-0.20","3698969","co40159","norming","","","","","","",""
"null","../img/tt/1006tt.jpg","null","mooney1","image-keyboard-response","147","459547","0.0-6.0-1.20","3698969","co40159","norming","","","","","","",""
"3236","","","post_mooney1_questions","survey-likert","148","462785","0.0-6.0-2.20","3698969","co40159","norming","","","{""curiosity"":5,""confidence"":1}","[0,1]","../img/tt/1006tt.jpg","",""
"4166","","","recognition","survey-text","149","466959","0.0-6.0-3.20","3698969","co40159","norming","","","{""guess"":""weiland""}","","../img/tt/1006tt.jpg","",""
"null","../img/gs/1006gs.jpg","null","reveal","image-keyboard-response","150","468960","0.0-6.0-4.20","3698969","co40159","norming","","","","","","",""
"null","../img/tt/1006tt.jpg","null","mooney2","image-keyboard-response","151","470962","0.0-6.0-5.20","3698969","co40159","norming","","","","","","",""
"2017.9999999999418","","","post_reveal_questions","survey-likert","152","472981","0.0-6.0-6.20","3698969","co40159","norming","","","{""aha"":5}","[0]","../img/tt/1006tt.jpg","",""
"null","<div style=""font-size:60px;""> </div>","null","fixation","html-keyboard-response","153","473184","0.0-6.0-0.21","3698969","co40159","norming","","","","","","",""
"null","../img/tt/300tt.jpg","null","mooney1","image-keyboard-response","154","476187","0.0-6.0-1.21","3698969","co40159","norming","","","","","","",""
"2842","","","post_mooney1_questions","survey-likert","155","479030","0.0-6.0-2.21","3698969","co40159","norming","","","{""curiosity"":5,""confidence"":4}","[0,1]","../img/tt/300tt.jpg","",""
"3752.000000000058","","","recognition","survey-text","156","482791","0.0-6.0-3.21","3698969","co40159","norming","","","{""guess"":""apen""}","","../img/tt/300tt.jpg","",""
"null","../img/gs/300gs.jpg","null","reveal","image-keyboard-response","157","484793","0.0-6.0-4.21","3698969","co40159","norming","","","","","","",""
"null","../img/tt/300tt.jpg","null","mooney2","image-keyboard-response","158","486795","0.0-6.0-5.21","3698969","co40159","norming","","","","","","",""
"1807","","","post_reveal_questions","survey-likert","159","488604","0.0-6.0-6.21","3698969","co40159","norming","","","{""aha"":1}","[0]","../img/tt/300tt.jpg","",""
"null","<div style=""font-size:60px;""> </div>","null","fixation","html-keyboard-response","160","488807","0.0-6.0-0.22","3698969","co40159","norming","","","","","","",""
"null","../img/tt/1255tt.jpg","null","mooney1","image-keyboard-response","161","491809","0.0-6.0-1.22","3698969","co40159","norming","","","","","","",""
"5293","","","post_mooney1_questions","survey-likert","162","497104","0.0-6.0-2.22","3698969","co40159","norming","","","{""curiosity"":5,""confidence"":4}","[0,1]","../img/tt/1255tt.jpg","",""
"2420","","","recognition","survey-text","163","499532","0.0-6.0-3.22","3698969","co40159","norming","","","{""guess"":""konijn""}","","../img/tt/1255tt.jpg","",""
"null","../img/gs/1255gs.jpg","null","reveal","image-keyboard-response","164","501533","0.0-6.0-4.22","3698969","co40159","norming","","","","","","",""
"null","../img/tt/1255tt.jpg","null","mooney2","image-keyboard-response","165","503535","0.0-6.0-5.22","3698969","co40159","norming","","","","","","",""
"2083","","","post_reveal_questions","survey-likert","166","505619","0.0-6.0-6.22","3698969","co40159","norming","","","{""aha"":6}","[0]","../img/tt/1255tt.jpg","",""
"null","<div style=""font-size:60px;""> </div>","null","fixation","html-keyboard-response","167","505822","0.0-6.0-0.23","3698969","co40159","norming","","","","","","",""
"null","../img/tt/1033tt.jpg","null","mooney1","image-keyboard-response","168","508825","0.0-6.0-1.23","3698969","co40159","norming","","","","","","",""
"5264","","","post_mooney1_questions","survey-likert","169","514091","0.0-6.0-2.23","3698969","co40159","norming","","","{""curiosity"":5,""confidence"":3}","[0,1]","../img/tt/1033tt.jpg","",""
"6701.999999999942","","","recognition","survey-text","170","520801","0.0-6.0-3.23","3698969","co40159","norming","","","{""guess"":""ridder met geweer""}","","../img/tt/1033tt.jpg","",""
"null","../img/gs/1033gs.jpg","null","reveal","image-keyboard-response","171","522803","0.0-6.0-4.23","3698969","co40159","norming","","","","","","",""
"null","../img/tt/1033tt.jpg","null","mooney2","image-keyboard-response","172","524806","0.0-6.0-5.23","3698969","co40159","norming","","","","","","",""
"3386","","","post_reveal_questions","survey-likert","173","528194","0.0-6.0-6.23","3698969","co40159","norming","","","{""aha"":2}","[0]","../img/tt/1033tt.jpg","",""
"null","<div style=""font-size:60px;""> </div>","null","fixation","html-keyboard-response","174","528397","0.0-6.0-0.24","3698969","co40159","norming","","","","","","",""
"null","../img/tt/319tt.jpg","null","mooney1","image-keyboard-response","175","531400","0.0-6.0-1.24","3698969","co40159","norming","","","","","","",""
"2943","","","post_mooney1_questions","survey-likert","176","534345","0.0-6.0-2.24","3698969","co40159","norming","","","{""curiosity"":5,""confidence"":4}","[0,1]","../img/tt/319tt.jpg","",""
"5234","","","recognition","survey-text","177","539586","0.0-6.0-3.24","3698969","co40159","norming","","","{""guess"":""2 koeien""}","","../img/tt/319tt.jpg","",""
"null","../img/gs/319gs.jpg","null","reveal","image-keyboard-response","178","541588","0.0-6.0-4.24","3698969","co40159","norming","","","","","","",""
"null","../img/tt/319tt.jpg","null","mooney2","image-keyboard-response","179","543590","0.0-6.0-5.24","3698969","co40159","norming","","","","","","",""
"1805","","","post_reveal_questions","survey-likert","180","545398","0.0-6.0-6.24","3698969","co40159","norming","","","{""aha"":4}","[0]","../img/tt/319tt.jpg","",""
"null","<div style=""font-size:60px;""> </div>","null","fixation","html-keyboard-response","181","545601","0.0-6.0-0.25","3698969","co40159","norming","","","","","","",""
"null","../img/tt/442tt.jpg","null","mooney1","image-keyboard-response","182","548604","0.0-6.0-1.25","3698969","co40159","norming","","","","","","",""
"4075","","","post_mooney1_questions","survey-likert","183","552681","0.0-6.0-2.25","3698969","co40159","norming","","","{""curiosity"":5,""confidence"":2}","[0,1]","../img/tt/442tt.jpg","",""
"4556","","","recognition","survey-text","184","557244","0.0-6.0-3.25","3698969","co40159","norming","","","{""guess"":""koala""}","","../img/tt/442tt.jpg","",""
"null","../img/gs/442gs.jpg","null","reveal","image-keyboard-response","185","559247","0.0-6.0-4.25","3698969","co40159","norming","","","","","","",""
"null","../img/tt/442tt.jpg","null","mooney2","image-keyboard-response","186","561249","0.0-6.0-5.25","3698969","co40159","norming","","","","","","",""
"3022","","","post_reveal_questions","survey-likert","187","564273","0.0-6.0-6.25","3698969","co40159","norming","","","{""aha"":2}","[0]","../img/tt/442tt.jpg","",""
"null","<div style=""font-size:60px;""> </div>","null","fixation","html-keyboard-response","188","564477","0.0-6.0-0.26","3698969","co40159","norming","","","","","","",""
"null","../img/tt/435tt.jpg","null","mooney1","image-keyboard-response","189","567479","0.0-6.0-1.26","3698969","co40159","norming","","","","","","",""
"3366","","","post_mooney1_questions","survey-likert","190","570847","0.0-6.0-2.26","3698969","co40159","norming","","","{""curiosity"":5,""confidence"":4}","[0,1]","../img/tt/435tt.jpg","",""
"4195","","","recognition","survey-text","191","575050","0.0-6.0-3.26","3698969","co40159","norming","","","{""guess"":""biljarten""}","","../img/tt/435tt.jpg","",""
"null","../img/gs/435gs.jpg","null","reveal","image-keyboard-response","192","577052","0.0-6.0-4.26","3698969","co40159","norming","","","","","","",""
"null","../img/tt/435tt.jpg","null","mooney2","image-keyboard-response","193","579054","0.0-6.0-5.26","3698969","co40159","norming","","","","","","",""
"8796","","","post_reveal_questions","survey-likert","194","587852","0.0-6.0-6.26","3698969","co40159","norming","","","{""aha"":5}","[0]","../img/tt/435tt.jpg","",""
"null","<div style=""font-size:60px;""> </div>","null","fixation","html-keyboard-response","195","588055","0.0-6.0-0.27","3698969","co40159","norming","","","","","","",""
"null","../img/tt/1123tt.jpg","null","mooney1","image-keyboard-response","196","591058","0.0-6.0-1.27","3698969","co40159","norming","","","","","","",""
"3071","","","post_mooney1_questions","survey-likert","197","594131","0.0-6.0-2.27","3698969","co40159","norming","","","{""curiosity"":5,""confidence"":4}","[0,1]","../img/tt/1123tt.jpg","",""
"2616","","","recognition","survey-text","198","596756","0.0-6.0-3.27","3698969","co40159","norming","","","{""guess"":""volleybal""}","","../img/tt/1123tt.jpg","",""
"null","../img/gs/1123gs.jpg","null","reveal","image-keyboard-response","199","598758","0.0-6.0-4.27","3698969","co40159","norming","","","","","","",""
"null","../img/tt/1123tt.jpg","null","mooney2","image-keyboard-response","200","600760","0.0-6.0-5.27","3698969","co40159","norming","","","","","","",""
"3318","","","post_reveal_questions","survey-likert","201","604080","0.0-6.0-6.27","3698969","co40159","norming","","","{""aha"":4}","[0]","../img/tt/1123tt.jpg","",""
"null","<div style=""font-size:60px;""> </div>","null","fixation","html-keyboard-response","202","604283","0.0-6.0-0.28","3698969","co40159","norming","","","","","","",""
"null","../img/tt/082tt.jpg","null","mooney1","image-keyboard-response","203","607286","0.0-6.0-1.28","3698969","co40159","norming","","","","","","",""
"3905.9999999998836","","","post_mooney1_questions","survey-likert","204","611195","0.0-6.0-2.28","3698969","co40159","norming","","","{""curiosity"":5,""confidence"":2}","[0,1]","../img/tt/082tt.jpg","",""
"2045","","","recognition","survey-text","205","613247","0.0-6.0-3.28","3698969","co40159","norming","","","{""guess"":""eend""}","","../img/tt/082tt.jpg","",""
"null","../img/gs/082gs.jpg","null","reveal","image-keyboard-response","206","615249","0.0-6.0-4.28","3698969","co40159","norming","","","","","","",""
"null","../img/tt/082tt.jpg","null","mooney2","image-keyboard-response","207","617252","0.0-6.0-5.28","3698969","co40159","norming","","","","","","",""
"2133","","","post_reveal_questions","survey-likert","208","619387","0.0-6.0-6.28","3698969","co40159","norming","","","{""aha"":4}","[0]","../img/tt/082tt.jpg","",""
"null","<div style=""font-size:60px;""> </div>","null","fixation","html-keyboard-response","209","619590","0.0-6.0-0.29","3698969","co40159","norming","","","","","","",""
"null","../img/tt/279tt.jpg","null","mooney1","image-keyboard-response","210","622593","0.0-6.0-1.29","3698969","co40159","norming","","","","","","",""
"3576","","","post_mooney1_questions","survey-likert","211","626171","0.0-6.0-2.29","3698969","co40159","norming","","","{""curiosity"":5,""confidence"":5}","[0,1]","../img/tt/279tt.jpg","",""
"1540","","","recognition","survey-text","212","627719","0.0-6.0-3.29","3698969","co40159","norming","","","{""guess"":""koala""}","","../img/tt/279tt.jpg","",""
"null","../img/gs/279gs.jpg","null","reveal","image-keyboard-response","213","629721","0.0-6.0-4.29","3698969","co40159","norming","","","","","","",""
"null","../img/tt/279tt.jpg","null","mooney2","image-keyboard-response","214","631723","0.0-6.0-5.29","3698969","co40159","norming","","","","","","",""
"1864","","","post_reveal_questions","survey-likert","215","633589","0.0-6.0-6.29","3698969","co40159","norming","","","{""aha"":6}","[0]","../img/tt/279tt.jpg","",""
"null","<div style=""font-size:60px;""> </div>","null","fixation","html-keyboard-response","216","633792","0.0-6.0-0.30","3698969","co40159","norming","","","","","","",""
"null","../img/tt/1232tt.jpg","null","mooney1","image-keyboard-response","217","636795","0.0-6.0-1.30","3698969","co40159","norming","","","","","","",""
"4355","","","post_mooney1_questions","survey-likert","218","641152","0.0-6.0-2.30","3698969","co40159","norming","","","{""curiosity"":5,""confidence"":0}","[0,1]","../img/tt/1232tt.jpg","",""
"10000.999999999884","","","recognition","survey-text","219","651161","0.0-6.0-3.30","3698969","co40159","norming","","","{""guess"":""bos""}","","../img/tt/1232tt.jpg","",""
"null","../img/gs/1232gs.jpg","null","reveal","image-keyboard-response","220","653163","0.0-6.0-4.30","3698969","co40159","norming","","","","","","",""
"null","../img/tt/1232tt.jpg","null","mooney2","image-keyboard-response","221","655166","0.0-6.0-5.30","3698969","co40159","norming","","","","","","",""
"2097","","","post_reveal_questions","survey-likert","222","657265","0.0-6.0-6.30","3698969","co40159","norming","","","{""aha"":1}","[0]","../img/tt/1232tt.jpg","",""
"null","<div style=""font-size:60px;""> </div>","null","fixation","html-keyboard-response","223","657468","0.0-6.0-0.31","3698969","co40159","norming","","","","","","",""
"null","../img/tt/380tt.jpg","null","mooney1","image-keyboard-response","224","660470","0.0-6.0-1.31","3698969","co40159","norming","","","","","","",""
"4009","","","post_mooney1_questions","survey-likert","225","664481","0.0-6.0-2.31","3698969","co40159","norming","","","{""curiosity"":5,""confidence"":3}","[0,1]","../img/tt/380tt.jpg","",""
"1721","","","recognition","survey-text","226","666210","0.0-6.0-3.31","3698969","co40159","norming","","","{""guess"":""wasbeer""}","","../img/tt/380tt.jpg","",""
"null","../img/gs/380gs.jpg","null","reveal","image-keyboard-response","227","668212","0.0-6.0-4.31","3698969","co40159","norming","","","","","","",""
"null","../img/tt/380tt.jpg","null","mooney2","image-keyboard-response","228","670215","0.0-6.0-5.31","3698969","co40159","norming","","","","","","",""
"1799","","","post_reveal_questions","survey-likert","229","672015","0.0-6.0-6.31","3698969","co40159","norming","","","{""aha"":3}","[0]","../img/tt/380tt.jpg","",""
"null","<div style=""font-size:60px;""> </div>","null","fixation","html-keyboard-response","230","672219","0.0-6.0-0.32","3698969","co40159","norming","","","","","","",""
"null","../img/tt/1254tt.jpg","null","mooney1","image-keyboard-response","231","675222","0.0-6.0-1.32","3698969","co40159","norming","","","","","","",""
"2737","","","post_mooney1_questions","survey-likert","232","677961","0.0-6.0-2.32","3698969","co40159","norming","","","{""curiosity"":5,""confidence"":4}","[0,1]","../img/tt/1254tt.jpg","",""
"2343","","","recognition","survey-text","233","680312","0.0-6.0-3.32","3698969","co40159","norming","","","{""guess"":""hond""}","","../img/tt/1254tt.jpg","",""
"null","../img/gs/1254gs.jpg","null","reveal","image-keyboard-response","234","682314","0.0-6.0-4.32","3698969","co40159","norming","","","","","","",""
"null","../img/tt/1254tt.jpg","null","mooney2","image-keyboard-response","235","684317","0.0-6.0-5.32","3698969","co40159","norming","","","","","","",""
"1847.0000000001164","","","post_reveal_questions","survey-likert","236","686166","0.0-6.0-6.32","3698969","co40159","norming","","","{""aha"":4}","[0]","../img/tt/1254tt.jpg","",""
"null","<div style=""font-size:60px;""> </div>","null","fixation","html-keyboard-response","237","686369","0.0-6.0-0.33","3698969","co40159","norming","","","","","","",""
"null","../img/tt/1290tt.jpg","null","mooney1","image-keyboard-response","238","689372","0.0-6.0-1.33","3698969","co40159","norming","","","","","","",""
"4938","","","post_mooney1_questions","survey-likert","239","694312","0.0-6.0-2.33","3698969","co40159","norming","","","{""curiosity"":5,""confidence"":4}","[0,1]","../img/tt/1290tt.jpg","",""
"2250.9999999998836","","","recognition","survey-text","240","696571","0.0-6.0-3.33","3698969","co40159","norming","","","{""guess"":""ski lift""}","","../img/tt/1290tt.jpg","",""
"null","../img/gs/1290gs.jpg","null","reveal","image-keyboard-response","241","698573","0.0-6.0-4.33","3698969","co40159","norming","","","","","","",""
"null","../img/tt/1290tt.jpg","null","mooney2","image-keyboard-response","242","700575","0.0-6.0-5.33","3698969","co40159","norming","","","","","","",""
"1940.0000000001164","","","post_reveal_questions","survey-likert","243","702517","0.0-6.0-6.33","3698969","co40159","norming","","","{""aha"":6}","[0]","../img/tt/1290tt.jpg","",""
"null","<div style=""font-size:60px;""> </div>","null","fixation","html-keyboard-response","244","702721","0.0-6.0-0.34","3698969","co40159","norming","","","","","","",""
"null","../img/tt/1276tt.jpg","null","mooney1","image-keyboard-response","245","705724","0.0-6.0-1.34","3698969","co40159","norming","","","","","","",""
"2476","","","post_mooney1_questions","survey-likert","246","708203","0.0-6.0-2.34","3698969","co40159","norming","","","{""curiosity"":5,""confidence"":4}","[0,1]","../img/tt/1276tt.jpg","",""
"1838","","","recognition","survey-text","247","710049","0.0-6.0-3.34","3698969","co40159","norming","","","{""guess"":""hond""}","","../img/tt/1276tt.jpg","",""
"null","../img/gs/1276gs.jpg","null","reveal","image-keyboard-response","248","712051","0.0-6.0-4.34","3698969","co40159","norming","","","","","","",""
"null","../img/tt/1276tt.jpg","null","mooney2","image-keyboard-response","249","714053","0.0-6.0-5.34","3698969","co40159","norming","","","","","","",""
"3222","","","post_reveal_questions","survey-likert","250","717276","0.0-6.0-6.34","3698969","co40159","norming","","","{""aha"":3}","[0]","../img/tt/1276tt.jpg","",""
"null","<div style=""font-size:60px;""> </div>","null","fixation","html-keyboard-response","251","717480","0.0-6.0-0.35","3698969","co40159","norming","","","","","","",""
"null","../img/tt/1239tt.jpg","null","mooney1","image-keyboard-response","252","720482","0.0-6.0-1.35","3698969","co40159","norming","","","","","","",""
"4357.999999999884","","","post_mooney1_questions","survey-likert","253","724842","0.0-6.0-2.35","3698969","co40159","norming","","","{""curiosity"":5,""confidence"":5}","[0,1]","../img/tt/1239tt.jpg","",""
"1597","","","recognition","survey-text","254","726447","0.0-6.0-3.35","3698969","co40159","norming","","","{""guess"":""hond""}","","../img/tt/1239tt.jpg","",""
"null","../img/gs/1239gs.jpg","null","reveal","image-keyboard-response","255","728449","0.0-6.0-4.35","3698969","co40159","norming","","","","","","",""
"null","../img/tt/1239tt.jpg","null","mooney2","image-keyboard-response","256","730451","0.0-6.0-5.35","3698969","co40159","norming","","","","","","",""
"2169","","","post_reveal_questions","survey-likert","257","732622","0.0-6.0-6.35","3698969","co40159","norming","","","{""aha"":5}","[0]","../img/tt/1239tt.jpg","",""
"null","<div style=""font-size:60px;""> </div>","null","fixation","html-keyboard-response","258","732826","0.0-6.0-0.36","3698969","co40159","norming","","","","","","",""
"null","../img/tt/1234tt.jpg","null","mooney1","image-keyboard-response","259","735829","0.0-6.0-1.36","3698969","co40159","norming","","","","","","",""
"4312.000000000116","","","post_mooney1_questions","survey-likert","260","740143","0.0-6.0-2.36","3698969","co40159","norming","","","{""curiosity"":5,""confidence"":0}","[0,1]","../img/tt/1234tt.jpg","",""
"5279","","","recognition","survey-text","261","745430","0.0-6.0-3.36","3698969","co40159","norming","","","{""guess"":""vijver""}","","../img/tt/1234tt.jpg","",""
"null","../img/gs/1234gs.jpg","null","reveal","image-keyboard-response","262","747432","0.0-6.0-4.36","3698969","co40159","norming","","","","","","",""
"null","../img/tt/1234tt.jpg","null","mooney2","image-keyboard-response","263","749435","0.0-6.0-5.36","3698969","co40159","norming","","","","","","",""
"2234.9999999998836","","","post_reveal_questions","survey-likert","264","751671","0.0-6.0-6.36","3698969","co40159","norming","","","{""aha"":4}","[0]","../img/tt/1234tt.jpg","",""
"null","<div style=""font-size:60px;""> </div>","null","fixation","html-keyboard-response","265","751874","0.0-6.0-0.37","3698969","co40159","norming","","","","","","",""
"null","../img/tt/1063tt.jpg","null","mooney1","image-keyboard-response","266","754877","0.0-6.0-1.37","3698969","co40159","norming","","","","","","",""
"2704","","","post_mooney1_questions","survey-likert","267","757582","0.0-6.0-2.37","3698969","co40159","norming","","","{""curiosity"":5,""confidence"":4}","[0,1]","../img/tt/1063tt.jpg","",""
"6060.999999999884","","","recognition","survey-text","268","763652","0.0-6.0-3.37","3698969","co40159","norming","","","{""guess"":""paard""}","","../img/tt/1063tt.jpg","",""
"null","../img/gs/1063gs.jpg","null","reveal","image-keyboard-response","269","765656","0.0-6.0-4.37","3698969","co40159","norming","","","","","","",""
"null","../img/tt/1063tt.jpg","null","mooney2","image-keyboard-response","270","767658","0.0-6.0-5.37","3698969","co40159","norming","","","","","","",""
"1900","","","post_reveal_questions","survey-likert","271","769560","0.0-6.0-6.37","3698969","co40159","norming","","","{""aha"":6}","[0]","../img/tt/1063tt.jpg","",""
"null","<div style=""font-size:60px;""> </div>","null","fixation","html-keyboard-response","272","769764","0.0-6.0-0.38","3698969","co40159","norming","","","","","","",""
"null","../img/tt/036tt.jpg","null","mooney1","image-keyboard-response","273","772767","0.0-6.0-1.38","3698969","co40159","norming","","","","","","",""
"3814.9999999998836","","","post_mooney1_questions","survey-likert","274","776584","0.0-6.0-2.38","3698969","co40159","norming","","","{""curiosity"":5,""confidence"":5}","[0,1]","../img/tt/036tt.jpg","",""
"3678","","","recognition","survey-text","275","780270","0.0-6.0-3.38","3698969","co40159","norming","","","{""guess"":""vleermuis""}","","../img/tt/036tt.jpg","",""
"null","../img/gs/036gs.jpg","null","reveal","image-keyboard-response","276","782273","0.0-6.0-4.38","3698969","co40159","norming","","","","","","",""
"null","../img/tt/036tt.jpg","null","mooney2","image-keyboard-response","277","784275","0.0-6.0-5.38","3698969","co40159","norming","","","","","","",""
"2359","","","post_reveal_questions","survey-likert","278","786637","0.0-6.0-6.38","3698969","co40159","norming","","","{""aha"":1}","[0]","../img/tt/036tt.jpg","",""
"null","<div style=""font-size:60px;""> </div>","null","fixation","html-keyboard-response","279","786840","0.0-6.0-0.39","3698969","co40159","norming","","","","","","",""
"null","../img/tt/1151tt.jpg","null","mooney1","image-keyboard-response","280","789843","0.0-6.0-1.39","3698969","co40159","norming","","","","","","",""
"2872.0000000001164","","","post_mooney1_questions","survey-likert","281","792717","0.0-6.0-2.39","3698969","co40159","norming","","","{""curiosity"":5,""confidence"":4}","[0,1]","../img/tt/1151tt.jpg","",""
"2546","","","recognition","survey-text","282","795271","0.0-6.0-3.39","3698969","co40159","norming","","","{""guess"":""slak""}","","../img/tt/1151tt.jpg","",""
"null","../img/gs/1151gs.jpg","null","reveal","image-keyboard-response","283","797274","0.0-6.0-4.39","3698969","co40159","norming","","","","","","",""
"null","../img/tt/1151tt.jpg","null","mooney2","image-keyboard-response","284","799276","0.0-6.0-5.39","3698969","co40159","norming","","","","","","",""
"2885","","","post_reveal_questions","survey-likert","285","802163","0.0-6.0-6.39","3698969","co40159","norming","","","{""aha"":1}","[0]","../img/tt/1151tt.jpg","",""
"null","<div style=""font-size:60px;""> </div>","null","fixation","html-keyboard-response","286","802366","0.0-6.0-0.40","3698969","co40159","norming","","","","","","",""
"null","../img/tt/1097tt.jpg","null","mooney1","image-keyboard-response","287","805368","0.0-6.0-1.40","3698969","co40159","norming","","","","","","",""
"3819","","","post_mooney1_questions","survey-likert","288","809189","0.0-6.0-2.40","3698969","co40159","norming","","","{""curiosity"":5,""confidence"":5}","[0,1]","../img/tt/1097tt.jpg","",""
"5146","","","recognition","survey-text","289","814343","0.0-6.0-3.40","3698969","co40159","norming","","","{""guess"":""boer op veld""}","","../img/tt/1097tt.jpg","",""
"null","../img/gs/1097gs.jpg","null","reveal","image-keyboard-response","290","816345","0.0-6.0-4.40","3698969","co40159","norming","","","","","","",""
"null","../img/tt/1097tt.jpg","null","mooney2","image-keyboard-response","291","818347","0.0-6.0-5.40","3698969","co40159","norming","","","","","","",""
"2092","","","post_reveal_questions","survey-likert","292","820441","0.0-6.0-6.40","3698969","co40159","norming","","","{""aha"":4}","[0]","../img/tt/1097tt.jpg","",""
"null","<div style=""font-size:60px;""> </div>","null","fixation","html-keyboard-response","293","820644","0.0-6.0-0.41","3698969","co40159","norming","","","","","","",""
"null","../img/tt/184tt.jpg","null","mooney1","image-keyboard-response","294","823646","0.0-6.0-1.41","3698969","co40159","norming","","","","","","",""
"3112","","","post_mooney1_questions","survey-likert","295","826760","0.0-6.0-2.41","3698969","co40159","norming","","","{""curiosity"":5,""confidence"":0}","[0,1]","../img/tt/184tt.jpg","",""
"3639","","","recognition","survey-text","296","830406","0.0-6.0-3.41","3698969","co40159","norming","","","{""guess"":""boek""}","","../img/tt/184tt.jpg","",""
"null","../img/gs/184gs.jpg","null","reveal","image-keyboard-response","297","832408","0.0-6.0-4.41","3698969","co40159","norming","","","","","","",""
"null","../img/tt/184tt.jpg","null","mooney2","image-keyboard-response","298","834410","0.0-6.0-5.41","3698969","co40159","norming","","","","","","",""
"2332","","","post_reveal_questions","survey-likert","299","836744","0.0-6.0-6.41","3698969","co40159","norming","","","{""aha"":2}","[0]","../img/tt/184tt.jpg","",""
"null","<div style=""font-size:60px;""> </div>","null","fixation","html-keyboard-response","300","836947","0.0-6.0-0.42","3698969","co40159","norming","","","","","","",""
"null","../img/tt/1186tt.jpg","null","mooney1","image-keyboard-response","301","839950","0.0-6.0-1.42","3698969","co40159","norming","","","","","","",""
"3073","","","post_mooney1_questions","survey-likert","302","843024","0.0-6.0-2.42","3698969","co40159","norming","","","{""curiosity"":5,""confidence"":2}","[0,1]","../img/tt/1186tt.jpg","",""
"6953","","","recognition","survey-text","303","849985","0.0-6.0-3.42","3698969","co40159","norming","","","{""guess"":""basketballer""}","","../img/tt/1186tt.jpg","",""
"null","../img/gs/1186gs.jpg","null","reveal","image-keyboard-response","304","851987","0.0-6.0-4.42","3698969","co40159","norming","","","","","","",""
"null","../img/tt/1186tt.jpg","null","mooney2","image-keyboard-response","305","853989","0.0-6.0-5.42","3698969","co40159","norming","","","","","","",""
"2909","","","post_reveal_questions","survey-likert","306","856901","0.0-6.0-6.42","3698969","co40159","norming","","","{""aha"":3}","[0]","../img/tt/1186tt.jpg","",""
"null","<div style=""font-size:60px;""> </div>","null","fixation","html-keyboard-response","307","857105","0.0-6.0-0.43","3698969","co40159","norming","","","","","","",""
"null","../img/tt/081tt.jpg","null","mooney1","image-keyboard-response","308","860106","0.0-6.0-1.43","3698969","co40159","norming","","","","","","",""
"2881","","","post_mooney1_questions","survey-likert","309","862989","0.0-6.0-2.43","3698969","co40159","norming","","","{""curiosity"":5,""confidence"":5}","[0,1]","../img/tt/081tt.jpg","",""
"2825","","","recognition","survey-text","310","865822","0.0-6.0-3.43","3698969","co40159","norming","","","{""guess"":""pad""}","","../img/tt/081tt.jpg","",""
"null","../img/gs/081gs.jpg","null","reveal","image-keyboard-response","311","867824","0.0-6.0-4.43","3698969","co40159","norming","","","","","","",""
"null","../img/tt/081tt.jpg","null","mooney2","image-keyboard-response","312","869827","0.0-6.0-5.43","3698969","co40159","norming","","","","","","",""
"2392","","","post_reveal_questions","survey-likert","313","872220","0.0-6.0-6.43","3698969","co40159","norming","","","{""aha"":6}","[0]","../img/tt/081tt.jpg","",""
"null","<div style=""font-size:60px;""> </div>","null","fixation","html-keyboard-response","314","872423","0.0-6.0-0.44","3698969","co40159","norming","","","","","","",""
"null","../img/tt/1189tt.jpg","null","mooney1","image-keyboard-response","315","875426","0.0-6.0-1.44","3698969","co40159","norming","","","","","","",""
"5594.000000000116","","","post_mooney1_questions","survey-likert","316","881022","0.0-6.0-2.44","3698969","co40159","norming","","","{""curiosity"":5,""confidence"":4}","[0,1]","../img/tt/1189tt.jpg","",""
"6891","","","recognition","survey-text","317","887920","0.0-6.0-3.44","3698969","co40159","norming","","","{""guess"":""vogels vliegt in water""}","","../img/tt/1189tt.jpg","",""
"null","../img/gs/1189gs.jpg","null","reveal","image-keyboard-response","318","889923","0.0-6.0-4.44","3698969","co40159","norming","","","","","","",""
"null","../img/tt/1189tt.jpg","null","mooney2","image-keyboard-response","319","891926","0.0-6.0-5.44","3698969","co40159","norming","","","","","","",""
"2230","","","post_reveal_questions","survey-likert","320","894158","0.0-6.0-6.44","3698969","co40159","norming","","","{""aha"":2}","[0]","../img/tt/1189tt.jpg","",""
"null","<div style=""font-size:60px;""> </div>","null","fixation","html-keyboard-response","321","894361","0.0-6.0-0.45","3698969","co40159","norming","","","","","","",""
"null","../img/tt/1196tt.jpg","null","mooney1","image-keyboard-response","322","897363","0.0-6.0-1.45","3698969","co40159","norming","","","","","","",""
"3493","","","post_mooney1_questions","survey-likert","323","900859","0.0-6.0-2.45","3698969","co40159","norming","","","{""curiosity"":5,""confidence"":1}","[0,1]","../img/tt/1196tt.jpg","",""
"6879","","","recognition","survey-text","324","907745","0.0-6.0-3.45","3698969","co40159","norming","","","{""guess"":""darmstelsel""}","","../img/tt/1196tt.jpg","",""
"null","../img/gs/1196gs.jpg","null","reveal","image-keyboard-response","325","909748","0.0-6.0-4.45","3698969","co40159","norming","","","","","","",""
"null","../img/tt/1196tt.jpg","null","mooney2","image-keyboard-response","326","911750","0.0-6.0-5.45","3698969","co40159","norming","","","","","","",""
"5724","","","post_reveal_questions","survey-likert","327","917476","0.0-6.0-6.45","3698969","co40159","norming","","","{""aha"":3}","[0]","../img/tt/1196tt.jpg","",""
"null","<div style=""font-size:60px;""> </div>","null","fixation","html-keyboard-response","328","917679","0.0-6.0-0.46","3698969","co40159","norming","","","","","","",""
"null","../img/tt/481tt.jpg","null","mooney1","image-keyboard-response","329","920681","0.0-6.0-1.46","3698969","co40159","norming","","","","","","",""
"3139","","","post_mooney1_questions","survey-likert","330","923823","0.0-6.0-2.46","3698969","co40159","norming","","","{""curiosity"":5,""confidence"":5}","[0,1]","../img/tt/481tt.jpg","",""
"4368","","","recognition","survey-text","331","928199","0.0-6.0-3.46","3698969","co40159","norming","","","{""guess"":""haan""}","","../img/tt/481tt.jpg","",""
"null","../img/gs/481gs.jpg","null","reveal","image-keyboard-response","332","930202","0.0-6.0-4.46","3698969","co40159","norming","","","","","","",""
"null","../img/tt/481tt.jpg","null","mooney2","image-keyboard-response","333","932204","0.0-6.0-5.46","3698969","co40159","norming","","","","","","",""
"1995","","","post_reveal_questions","survey-likert","334","934201","0.0-6.0-6.46","3698969","co40159","norming","","","{""aha"":4}","[0]","../img/tt/481tt.jpg","",""
"null","<div style=""font-size:60px;""> </div>","null","fixation","html-keyboard-response","335","934404","0.0-6.0-0.47","3698969","co40159","norming","","","","","","",""
"null","../img/tt/580tt.jpg","null","mooney1","image-keyboard-response","336","937407","0.0-6.0-1.47","3698969","co40159","norming","","","","","","",""
"3179","","","post_mooney1_questions","survey-likert","337","940588","0.0-6.0-2.47","3698969","co40159","norming","","","{""curiosity"":5,""confidence"":4}","[0,1]","../img/tt/580tt.jpg","",""
"1409.9999999998836","","","recognition","survey-text","338","942006","0.0-6.0-3.47","3698969","co40159","norming","","","{""guess"":""2 honden""}","","../img/tt/580tt.jpg","",""
"null","../img/gs/580gs.jpg","null","reveal","image-keyboard-response","339","944009","0.0-6.0-4.47","3698969","co40159","norming","","","","","","",""
"null","../img/tt/580tt.jpg","null","mooney2","image-keyboard-response","340","946012","0.0-6.0-5.47","3698969","co40159","norming","","","","","","",""
"3175","","","post_reveal_questions","survey-likert","341","949188","0.0-6.0-6.47","3698969","co40159","norming","","","{""aha"":1}","[0]","../img/tt/580tt.jpg","",""
"null","<div style=""font-size:60px;""> </div>","null","fixation","html-keyboard-response","342","949391","0.0-6.0-0.48","3698969","co40159","norming","","","","","","",""
"null","../img/tt/273tt.jpg","null","mooney1","image-keyboard-response","343","952393","0.0-6.0-1.48","3698969","co40159","norming","","","","","","",""
"3937","","","post_mooney1_questions","survey-likert","344","956332","0.0-6.0-2.48","3698969","co40159","norming","","","{""curiosity"":5,""confidence"":6}","[0,1]","../img/tt/273tt.jpg","",""
"3718","","","recognition","survey-text","345","960059","0.0-6.0-3.48","3698969","co40159","norming","","","{""guess"":""open mond met beugel""}","","../img/tt/273tt.jpg","",""
"null","../img/gs/273gs.jpg","null","reveal","image-keyboard-response","346","962061","0.0-6.0-4.48","3698969","co40159","norming","","","","","","",""
"null","../img/tt/273tt.jpg","null","mooney2","image-keyboard-response","347","964064","0.0-6.0-5.48","3698969","co40159","norming","","","","","","",""
"2033","","","post_reveal_questions","survey-likert","348","966099","0.0-6.0-6.48","3698969","co40159","norming","","","{""aha"":6}","[0]","../img/tt/273tt.jpg","",""
"null","<div style=""font-size:60px;""> </div>","null","fixation","html-keyboard-response","349","966303","0.0-6.0-0.49","3698969","co40159","norming","","","","","","",""
"null","../img/tt/438tt.jpg","null","mooney1","image-keyboard-response","350","969305","0.0-6.0-1.49","3698969","co40159","norming","","","","","","",""
"2741","","","post_mooney1_questions","survey-likert","351","972048","0.0-6.0-2.49","3698969","co40159","norming","","","{""curiosity"":5,""confidence"":5}","[0,1]","../img/tt/438tt.jpg","",""
"1256","","","recognition","survey-text","352","973312","0.0-6.0-3.49","3698969","co40159","norming","","","{""guess"":""krokodil""}","","../img/tt/438tt.jpg","",""
"null","../img/gs/438gs.jpg","null","reveal","image-keyboard-response","353","975315","0.0-6.0-4.49","3698969","co40159","norming","","","","","","",""
"null","../img/tt/438tt.jpg","null","mooney2","image-keyboard-response","354","977317","0.0-6.0-5.49","3698969","co40159","norming","","","","","","",""
"2658.0000000001164","","","post_reveal_questions","survey-likert","355","979977","0.0-6.0-6.49","3698969","co40159","norming","","","{""aha"":4}","[0]","../img/tt/438tt.jpg","",""
"null","<div style=""font-size:60px;""> </div>","null","fixation","html-keyboard-response","356","980181","0.0-6.0-0.50","3698969","co40159","norming","","","","","","",""
"null","../img/tt/440tt.jpg","null","mooney1","image-keyboard-response","357","983183","0.0-6.0-1.50","3698969","co40159","norming","","","","","","",""
"2589","","","post_mooney1_questions","survey-likert","358","985775","0.0-6.0-2.50","3698969","co40159","norming","","","{""curiosity"":5,""confidence"":4}","[0,1]","../img/tt/440tt.jpg","",""
"2840","","","recognition","survey-text","359","988623","0.0-6.0-3.50","3698969","co40159","norming","","","{""guess"":""dieren in stal""}","","../img/tt/440tt.jpg","",""
"null","../img/gs/440gs.jpg","null","reveal","image-keyboard-response","360","990625","0.0-6.0-4.50","3698969","co40159","norming","","","","","","",""
"null","../img/tt/440tt.jpg","null","mooney2","image-keyboard-response","361","992627","0.0-6.0-5.50","3698969","co40159","norming","","","","","","",""
"2059","","","post_reveal_questions","survey-likert","362","994687","0.0-6.0-6.50","3698969","co40159","norming","","","{""aha"":5}","[0]","../img/tt/440tt.jpg","",""
"null","<div style=""font-size:60px;""> </div>","null","fixation","html-keyboard-response","363","994890","0.0-6.0-0.51","3698969","co40159","norming","","","","","","",""
"null","../img/tt/1142tt.jpg","null","mooney1","image-keyboard-response","364","997893","0.0-6.0-1.51","3698969","co40159","norming","","","","","","",""
"2640","","","post_mooney1_questions","survey-likert","365","1000535","0.0-6.0-2.51","3698969","co40159","norming","","","{""curiosity"":5,""confidence"":5}","[0,1]","../img/tt/1142tt.jpg","",""
"3141","","","recognition","survey-text","366","1003685","0.0-6.0-3.51","3698969","co40159","norming","","","{""guess"":""speerwerpen""}","","../img/tt/1142tt.jpg","",""
"null","../img/gs/1142gs.jpg","null","reveal","image-keyboard-response","367","1005687","0.0-6.0-4.51","3698969","co40159","norming","","","","","","",""
"null","../img/tt/1142tt.jpg","null","mooney2","image-keyboard-response","368","1007690","0.0-6.0-5.51","3698969","co40159","norming","","","","","","",""
"2009","","","post_reveal_questions","survey-likert","369","1009700","0.0-6.0-6.51","3698969","co40159","norming","","","{""aha"":5}","[0]","../img/tt/1142tt.jpg","",""
"null","<div style=""font-size:60px;""> </div>","null","fixation","html-keyboard-response","370","1009903","0.0-6.0-0.52","3698969","co40159","norming","","","","","","",""
"null","../img/tt/436tt.jpg","null","mooney1","image-keyboard-response","371","1012906","0.0-6.0-1.52","3698969","co40159","norming","","","","","","",""
"3134","","","post_mooney1_questions","survey-likert","372","1016041","0.0-6.0-2.52","3698969","co40159","norming","","","{""curiosity"":5,""confidence"":5}","[0,1]","../img/tt/436tt.jpg","",""
"3084","","","recognition","survey-text","373","1019132","0.0-6.0-3.52","3698969","co40159","norming","","","{""guess"":""varken in modder""}","","../img/tt/436tt.jpg","",""
"null","../img/gs/436gs.jpg","null","reveal","image-keyboard-response","374","1021135","0.0-6.0-4.52","3698969","co40159","norming","","","","","","",""
"null","../img/tt/436tt.jpg","null","mooney2","image-keyboard-response","375","1023137","0.0-6.0-5.52","3698969","co40159","norming","","","","","","",""
"1894","","","post_reveal_questions","survey-likert","376","1025033","0.0-6.0-6.52","3698969","co40159","norming","","","{""aha"":5}","[0]","../img/tt/436tt.jpg","",""
"null","<div style=""font-size:60px;""> </div>","null","fixation","html-keyboard-response","377","1025236","0.0-6.0-0.53","3698969","co40159","norming","","","","","","",""
"null","../img/tt/1217tt.jpg","null","mooney1","image-keyboard-response","378","1028238","0.0-6.0-1.53","3698969","co40159","norming","","","","","","",""
"3059","","","post_mooney1_questions","survey-likert","379","1031299","0.0-6.0-2.53","3698969","co40159","norming","","","{""curiosity"":5,""confidence"":5}","[0,1]","../img/tt/1217tt.jpg","",""
"3803.0000000001164","","","recognition","survey-text","380","1035111","0.0-6.0-3.53","3698969","co40159","norming","","","{""guess"":""2 atleten die spurten""}","","../img/tt/1217tt.jpg","",""
"null","../img/gs/1217gs.jpg","null","reveal","image-keyboard-response","381","1037113","0.0-6.0-4.53","3698969","co40159","norming","","","","","","",""
"null","../img/tt/1217tt.jpg","null","mooney2","image-keyboard-response","382","1039116","0.0-6.0-5.53","3698969","co40159","norming","","","","","","",""
"5983","","","post_reveal_questions","survey-likert","383","1045100","0.0-6.0-6.53","3698969","co40159","norming","","","{""aha"":5}","[0]","../img/tt/1217tt.jpg","",""
"null","<div style=""font-size:60px;""> </div>","null","fixation","html-keyboard-response","384","1045303","0.0-6.0-0.54","3698969","co40159","norming","","","","","","",""
"null","../img/tt/049tt.jpg","null","mooney1","image-keyboard-response","385","1048305","0.0-6.0-1.54","3698969","co40159","norming","","","","","","",""
"3048","","","post_mooney1_questions","survey-likert","386","1051355","0.0-6.0-2.54","3698969","co40159","norming","","","{""curiosity"":5,""confidence"":5}","[0,1]","../img/tt/049tt.jpg","",""
"1929","","","recognition","survey-text","387","1053291","0.0-6.0-3.54","3698969","co40159","norming","","","{""guess"":""gorilla""}","","../img/tt/049tt.jpg","",""
"null","../img/gs/049gs.jpg","null","reveal","image-keyboard-response","388","1055294","0.0-6.0-4.54","3698969","co40159","norming","","","","","","",""
"null","../img/tt/049tt.jpg","null","mooney2","image-keyboard-response","389","1057296","0.0-6.0-5.54","3698969","co40159","norming","","","","","","",""
"1573","","","post_reveal_questions","survey-likert","390","1058871","0.0-6.0-6.54","3698969","co40159","norming","","","{""aha"":5}","[0]","../img/tt/049tt.jpg","",""
"null","<div style=""font-size:60px;""> </div>","null","fixation","html-keyboard-response","391","1059074","0.0-6.0-0.55","3698969","co40159","norming","","","","","","",""
"null","../img/tt/108tt.jpg","null","mooney1","image-keyboard-response","392","1062077","0.0-6.0-1.55","3698969","co40159","norming","","","","","","",""
"4169","","","post_mooney1_questions","survey-likert","393","1066247","0.0-6.0-2.55","3698969","co40159","norming","","","{""curiosity"":5,""confidence"":0}","[0,1]","../img/tt/108tt.jpg","",""
"2813.999999999767","","","recognition","survey-text","394","1069070","0.0-6.0-3.55","3698969","co40159","norming","","","{""guess"":""weide""}","","../img/tt/108tt.jpg","",""
"null","../img/gs/108gs.jpg","null","reveal","image-keyboard-response","395","1071072","0.0-6.0-4.55","3698969","co40159","norming","","","","","","",""
"null","../img/tt/108tt.jpg","null","mooney2","image-keyboard-response","396","1073075","0.0-6.0-5.55","3698969","co40159","norming","","","","","","",""
"2424","","","post_reveal_questions","survey-likert","397","1075501","0.0-6.0-6.55","3698969","co40159","norming","","","{""aha"":1}","[0]","../img/tt/108tt.jpg","",""
"null","<div style=""font-size:60px;""> </div>","null","fixation","html-keyboard-response","398","1075704","0.0-6.0-0.56","3698969","co40159","norming","","","","","","",""
"null","../img/tt/140tt.jpg","null","mooney1","image-keyboard-response","399","1078706","0.0-6.0-1.56","3698969","co40159","norming","","","","","","",""
"3832.999999999767","","","post_mooney1_questions","survey-likert","400","1082541","0.0-6.0-2.56","3698969","co40159","norming","","","{""curiosity"":5,""confidence"":6}","[0,1]","../img/tt/140tt.jpg","",""
"4230","","","recognition","survey-text","401","1086780","0.0-6.0-3.56","3698969","co40159","norming","","","{""guess"":""2 vorken in/tegen elkaar""}","","../img/tt/140tt.jpg","",""
"null","../img/gs/140gs.jpg","null","reveal","image-keyboard-response","402","1088783","0.0-6.0-4.56","3698969","co40159","norming","","","","","","",""
"null","../img/tt/140tt.jpg","null","mooney2","image-keyboard-response","403","1090785","0.0-6.0-5.56","3698969","co40159","norming","","","","","","",""
"2263","","","post_reveal_questions","survey-likert","404","1093049","0.0-6.0-6.56","3698969","co40159","norming","","","{""aha"":5}","[0]","../img/tt/140tt.jpg","",""
"null","<div style=""font-size:60px;""> </div>","null","fixation","html-keyboard-response","405","1093252","0.0-6.0-0.57","3698969","co40159","norming","","","","","","",""
"null","../img/tt/524tt.jpg","null","mooney1","image-keyboard-response","406","1096255","0.0-6.0-1.57","3698969","co40159","norming","","","","","","",""
"4212.999999999767","","","post_mooney1_questions","survey-likert","407","1100470","0.0-6.0-2.57","3698969","co40159","norming","","","{""curiosity"":5,""confidence"":5}","[0,1]","../img/tt/524tt.jpg","",""
"1360.9999999997672","","","recognition","survey-text","408","1101839","0.0-6.0-3.57","3698969","co40159","norming","","","{""guess"":""olifant""}","","../img/tt/524tt.jpg","",""
"null","../img/gs/524gs.jpg","null","reveal","image-keyboard-response","409","1103841","0.0-6.0-4.57","3698969","co40159","norming","","","","","","",""
"null","../img/tt/524tt.jpg","null","mooney2","image-keyboard-response","410","1105844","0.0-6.0-5.57","3698969","co40159","norming","","","","","","",""
"3601","","","post_reveal_questions","survey-likert","411","1109446","0.0-6.0-6.57","3698969","co40159","norming","","","{""aha"":5}","[0]","../img/tt/524tt.jpg","",""
"null","<div style=""font-size:60px;""> </div>","null","fixation","html-keyboard-response","412","1109649","0.0-6.0-0.58","3698969","co40159","norming","","","","","","",""
"null","../img/tt/590tt.jpg","null","mooney1","image-keyboard-response","413","1112651","0.0-6.0-1.58","3698969","co40159","norming","","","","","","",""
"3935","","","post_mooney1_questions","survey-likert","414","1116588","0.0-6.0-2.58","3698969","co40159","norming","","","{""curiosity"":5,""confidence"":5}","[0,1]","../img/tt/590tt.jpg","",""
"2969.000000000233","","","recognition","survey-text","415","1119566","0.0-6.0-3.58","3698969","co40159","norming","","","{""guess"":""student op schoolbank""}","","../img/tt/590tt.jpg","",""
"null","../img/gs/590gs.jpg","null","reveal","image-keyboard-response","416","1121568","0.0-6.0-4.58","3698969","co40159","norming","","","","","","",""
"null","../img/tt/590tt.jpg","null","mooney2","image-keyboard-response","417","1123571","0.0-6.0-5.58","3698969","co40159","norming","","","","","","",""
"2149","","","post_reveal_questions","survey-likert","418","1125721","0.0-6.0-6.58","3698969","co40159","norming","","","{""aha"":2}","[0]","../img/tt/590tt.jpg","",""
"null","<div style=""font-size:60px;""> </div>","null","fixation","html-keyboard-response","419","1125924","0.0-6.0-0.59","3698969","co40159","norming","","","","","","",""
"null","../img/tt/1261tt.jpg","null","mooney1","image-keyboard-response","420","1128927","0.0-6.0-1.59","3698969","co40159","norming","","","","","","",""
"3438","","","post_mooney1_questions","survey-likert","421","1132366","0.0-6.0-2.59","3698969","co40159","norming","","","{""curiosity"":5,""confidence"":5}","[0,1]","../img/tt/1261tt.jpg","",""
"2723","","","recognition","survey-text","422","1135097","0.0-6.0-3.59","3698969","co40159","norming","","","{""guess"":""luipaard""}","","../img/tt/1261tt.jpg","",""
"null","../img/gs/1261gs.jpg","null","reveal","image-keyboard-response","423","1137099","0.0-6.0-4.59","3698969","co40159","norming","","","","","","",""
"null","../img/tt/1261tt.jpg","null","mooney2","image-keyboard-response","424","1139101","0.0-6.0-5.59","3698969","co40159","norming","","","","","","",""
"1755","","","post_reveal_questions","survey-likert","425","1140858","0.0-6.0-6.59","3698969","co40159","norming","","","{""aha"":4}","[0]","../img/tt/1261tt.jpg","",""
"null","<div style=""font-size:60px;""> </div>","null","fixation","html-keyboard-response","426","1141061","0.0-6.0-0.60","3698969","co40159","norming","","","","","","",""
"null","../img/tt/1072tt.jpg","null","mooney1","image-keyboard-response","427","1144064","0.0-6.0-1.60","3698969","co40159","norming","","","","","","",""
"3622.999999999767","","","post_mooney1_questions","survey-likert","428","1147689","0.0-6.0-2.60","3698969","co40159","norming","","","{""curiosity"":5,""confidence"":0}","[0,1]","../img/tt/1072tt.jpg","",""
"8252","","","recognition","survey-text","429","1155949","0.0-6.0-3.60","3698969","co40159","norming","","","{""guess"":""strobalen""}","","../img/tt/1072tt.jpg","",""
"null","../img/gs/1072gs.jpg","null","reveal","image-keyboard-response","430","1157951","0.0-6.0-4.60","3698969","co40159","norming","","","","","","",""
"null","../img/tt/1072tt.jpg","null","mooney2","image-keyboard-response","431","1159953","0.0-6.0-5.60","3698969","co40159","norming","","","","","","",""
"3930","","","post_reveal_questions","survey-likert","432","1163884","0.0-6.0-6.60","3698969","co40159","norming","","","{""aha"":2}","[0]","../img/tt/1072tt.jpg","",""
"null","<div style=""font-size:60px;""> </div>","null","fixation","html-keyboard-response","433","1164087","0.0-6.0-0.61","3698969","co40159","norming","","","","","","",""
"null","../img/tt/056tt.jpg","null","mooney1","image-keyboard-response","434","1167090","0.0-6.0-1.61","3698969","co40159","norming","","","","","","",""
"6341","","","post_mooney1_questions","survey-likert","435","1173433","0.0-6.0-2.61","3698969","co40159","norming","","","{""curiosity"":5,""confidence"":0}","[0,1]","../img/tt/056tt.jpg","",""
"1693","","","recognition","survey-text","436","1175133","0.0-6.0-3.61","3698969","co40159","norming","","","{""guess"":""standbeeld""}","","../img/tt/056tt.jpg","",""
"null","../img/gs/056gs.jpg","null","reveal","image-keyboard-response","437","1177136","0.0-6.0-4.61","3698969","co40159","norming","","","","","","",""
"null","../img/tt/056tt.jpg","null","mooney2","image-keyboard-response","438","1179138","0.0-6.0-5.61","3698969","co40159","norming","","","","","","",""
"2348","","","post_reveal_questions","survey-likert","439","1181488","0.0-6.0-6.61","3698969","co40159","norming","","","{""aha"":2}","[0]","../img/tt/056tt.jpg","",""
"null","<div style=""font-size:60px;""> </div>","null","fixation","html-keyboard-response","440","1181692","0.0-6.0-0.62","3698969","co40159","norming","","","","","","",""
"null","../img/tt/1154tt.jpg","null","mooney1","image-keyboard-response","441","1184694","0.0-6.0-1.62","3698969","co40159","norming","","","","","","",""
"3360","","","post_mooney1_questions","survey-likert","442","1188057","0.0-6.0-2.62","3698969","co40159","norming","","","{""curiosity"":5,""confidence"":1}","[0,1]","../img/tt/1154tt.jpg","",""
"1282.0000000002328","","","recognition","survey-text","443","1189346","0.0-6.0-3.62","3698969","co40159","norming","","","{""guess"":""kajakken""}","","../img/tt/1154tt.jpg","",""
"null","../img/gs/1154gs.jpg","null","reveal","image-keyboard-response","444","1191349","0.0-6.0-4.62","3698969","co40159","norming","","","","","","",""
"null","../img/tt/1154tt.jpg","null","mooney2","image-keyboard-response","445","1193351","0.0-6.0-5.62","3698969","co40159","norming","","","","","","",""
"2963","","","post_reveal_questions","survey-likert","446","1196317","0.0-6.0-6.62","3698969","co40159","norming","","","{""aha"":6}","[0]","../img/tt/1154tt.jpg","",""
"null","<div style=""font-size:60px;""> </div>","null","fixation","html-keyboard-response","447","1196520","0.0-6.0-0.63","3698969","co40159","norming","","","","","","",""
"null","../img/tt/040tt.jpg","null","mooney1","image-keyboard-response","448","1199523","0.0-6.0-1.63","3698969","co40159","norming","","","","","","",""
"5052.000000000233","","","post_mooney1_questions","survey-likert","449","1204577","0.0-6.0-2.63","3698969","co40159","norming","","","{""curiosity"":5,""confidence"":1}","[0,1]","../img/tt/040tt.jpg","",""
"1270","","","recognition","survey-text","450","1205852","0.0-6.0-3.63","3698969","co40159","norming","","","{""guess"":""vleermuis""}","","../img/tt/040tt.jpg","",""
"null","../img/gs/040gs.jpg","null","reveal","image-keyboard-response","451","1207849","0.0-6.0-4.63","3698969","co40159","norming","","","","","","",""
"null","../img/tt/040tt.jpg","null","mooney2","image-keyboard-response","452","1209847","0.0-6.0-5.63","3698969","co40159","norming","","","","","","",""
"2910","","","post_reveal_questions","survey-likert","453","1212752","0.0-6.0-6.63","3698969","co40159","norming","","","{""aha"":1}","[0]","../img/tt/040tt.jpg","",""
"null","<div style=""font-size:60px;""> </div>","null","fixation","html-keyboard-response","454","1212955","0.0-6.0-0.64","3698969","co40159","norming","","","","","","",""
"null","../img/tt/135tt.jpg","null","mooney1","image-keyboard-response","455","1215952","0.0-6.0-1.64","3698969","co40159","norming","","","","","","",""
"2594","","","post_mooney1_questions","survey-likert","456","1218544","0.0-6.0-2.64","3698969","co40159","norming","","","{""curiosity"":6,""confidence"":6}","[0,1]","../img/tt/135tt.jpg","",""
"4568","","","recognition","survey-text","457","1223115","0.0-6.0-3.64","3698969","co40159","norming","","","{""guess"":""wc(-bril)""}","","../img/tt/135tt.jpg","",""
"null","../img/gs/135gs.jpg","null","reveal","image-keyboard-response","458","1225115","0.0-6.0-4.64","3698969","co40159","norming","","","","","","",""
"null","../img/tt/135tt.jpg","null","mooney2","image-keyboard-response","459","1227116","0.0-6.0-5.64","3698969","co40159","norming","","","","","","",""
"1364.9999999997672","","","post_reveal_questions","survey-likert","460","1228481","0.0-6.0-6.64","3698969","co40159","norming","","","{""aha"":6}","[0]","../img/tt/135tt.jpg","",""
"null","<div style=""font-size:60px;""> </div>","null","fixation","html-keyboard-response","461","1228684","0.0-6.0-0.65","3698969","co40159","norming","","","","","","",""
"null","../img/tt/603tt.jpg","null","mooney1","image-keyboard-response","462","1231685","0.0-6.0-1.65","3698969","co40159","norming","","","","","","",""
"3551","","","post_mooney1_questions","survey-likert","463","1235236","0.0-6.0-2.65","3698969","co40159","norming","","","{""curiosity"":5,""confidence"":4}","[0,1]","../img/tt/603tt.jpg","",""
"931","","","recognition","survey-text","464","1236175","0.0-6.0-3.65","3698969","co40159","norming","","","{""guess"":""uil""}","","../img/tt/603tt.jpg","",""
"null","../img/gs/603gs.jpg","null","reveal","image-keyboard-response","465","1238176","0.0-6.0-4.65","3698969","co40159","norming","","","","","","",""
"null","../img/tt/603tt.jpg","null","mooney2","image-keyboard-response","466","1240178","0.0-6.0-5.65","3698969","co40159","norming","","","","","","",""
"2273.999999999767","","","post_reveal_questions","survey-likert","467","1242453","0.0-6.0-6.65","3698969","co40159","norming","","","{""aha"":5}","[0]","../img/tt/603tt.jpg","",""
"null","<div style=""font-size:60px;""> </div>","null","fixation","html-keyboard-response","468","1242655","0.0-6.0-0.66","3698969","co40159","norming","","","","","","",""
"null","../img/tt/306tt.jpg","null","mooney1","image-keyboard-response","469","1245657","0.0-6.0-1.66","3698969","co40159","norming","","","","","","",""
"3803","","","post_mooney1_questions","survey-likert","470","1249461","0.0-6.0-2.66","3698969","co40159","norming","","","{""curiosity"":5,""confidence"":4}","[0,1]","../img/tt/306tt.jpg","",""
"1699.9999999997672","","","recognition","survey-text","471","1251175","0.0-6.0-3.66","3698969","co40159","norming","","","{""guess"":""verspringen""}","","../img/tt/306tt.jpg","",""
"null","../img/gs/306gs.jpg","null","reveal","image-keyboard-response","472","1253177","0.0-6.0-4.66","3698969","co40159","norming","","","","","","",""
"null","../img/tt/306tt.jpg","null","mooney2","image-keyboard-response","473","1255179","0.0-6.0-5.66","3698969","co40159","norming","","","","","","",""
"2364","","","post_reveal_questions","survey-likert","474","1257545","0.0-6.0-6.66","3698969","co40159","norming","","","{""aha"":1}","[0]","../img/tt/306tt.jpg","",""
"null","<div style=""font-size:60px;""> </div>","null","fixation","html-keyboard-response","475","1257748","0.0-6.0-0.67","3698969","co40159","norming","","","","","","",""
"null","../img/tt/194tt.jpg","null","mooney1","image-keyboard-response","476","1260751","0.0-6.0-1.67","3698969","co40159","norming","","","","","","",""
"2815.999999999767","","","post_mooney1_questions","survey-likert","477","1263568","0.0-6.0-2.67","3698969","co40159","norming","","","{""curiosity"":5,""confidence"":5}","[0,1]","../img/tt/194tt.jpg","",""
"3924","","","recognition","survey-text","478","1267499","0.0-6.0-3.67","3698969","co40159","norming","","","{""guess"":""vrouw bespeelt instrument""}","","../img/tt/194tt.jpg","",""
"null","../img/gs/194gs.jpg","null","reveal","image-keyboard-response","479","1269502","0.0-6.0-4.67","3698969","co40159","norming","","","","","","",""
"null","../img/tt/194tt.jpg","null","mooney2","image-keyboard-response","480","1271504","0.0-6.0-5.67","3698969","co40159","norming","","","","","","",""
"3383","","","post_reveal_questions","survey-likert","481","1274889","0.0-6.0-6.67","3698969","co40159","norming","","","{""aha"":6}","[0]","../img/tt/194tt.jpg","",""
"null","<div style=""font-size:60px;""> </div>","null","fixation","html-keyboard-response","482","1275092","0.0-6.0-0.68","3698969","co40159","norming","","","","","","",""
"null","../img/tt/1118tt.jpg","null","mooney1","image-keyboard-response","483","1278094","0.0-6.0-1.68","3698969","co40159","norming","","","","","","",""
"2938","","","post_mooney1_questions","survey-likert","484","1281035","0.0-6.0-2.68","3698969","co40159","norming","","","{""curiosity"":5,""confidence"":4}","[0,1]","../img/tt/1118tt.jpg","",""
"1204","","","recognition","survey-text","485","1282246","0.0-6.0-3.68","3698969","co40159","norming","","","{""guess"":""oldtimer""}","","../img/tt/1118tt.jpg","",""
"null","../img/gs/1118gs.jpg","null","reveal","image-keyboard-response","486","1284249","0.0-6.0-4.68","3698969","co40159","norming","","","","","","",""
"null","../img/tt/1118tt.jpg","null","mooney2","image-keyboard-response","487","1286251","0.0-6.0-5.68","3698969","co40159","norming","","","","","","",""
"3324","","","post_reveal_questions","survey-likert","488","1289576","0.0-6.0-6.68","3698969","co40159","norming","","","{""aha"":4}","[0]","../img/tt/1118tt.jpg","",""
"null","<div style=""font-size:60px;""> </div>","null","fixation","html-keyboard-response","489","1289780","0.0-6.0-0.69","3698969","co40159","norming","","","","","","",""
"null","../img/tt/406tt.jpg","null","mooney1","image-keyboard-response","490","1292782","0.0-6.0-1.69","3698969","co40159","norming","","","","","","",""
"2919","","","post_mooney1_questions","survey-likert","491","1295703","0.0-6.0-2.69","3698969","co40159","norming","","","{""curiosity"":5,""confidence"":0}","[0,1]","../img/tt/406tt.jpg","",""
"2692","","","recognition","survey-text","492","1298403","0.0-6.0-3.69","3698969","co40159","norming","","","{""guess"":""""}","","../img/tt/406tt.jpg","",""
"null","../img/gs/406gs.jpg","null","reveal","image-keyboard-response","493","1300405","0.0-6.0-4.69","3698969","co40159","norming","","","","","","",""
"null","../img/tt/406tt.jpg","null","mooney2","image-keyboard-response","494","1302408","0.0-6.0-5.69","3698969","co40159","norming","","","","","","",""
"3127","","","post_reveal_questions","survey-likert","495","1305537","0.0-6.0-6.69","3698969","co40159","norming","","","{""aha"":4}","[0]","../img/tt/406tt.jpg","",""
"null","<div style=""font-size:60px;""> </div>","null","fixation","html-keyboard-response","496","1305739","0.0-6.0-0.70","3698969","co40159","norming","","","","","","",""
"null","../img/tt/112tt.jpg","null","mooney1","image-keyboard-response","497","1308741","0.0-6.0-1.70","3698969","co40159","norming","","","","","","",""
"5252","","","post_mooney1_questions","survey-likert","498","1313995","0.0-6.0-2.70","3698969","co40159","norming","","","{""curiosity"":5,""confidence"":0}","[0,1]","../img/tt/112tt.jpg","",""
"1010","","","recognition","survey-text","499","1315012","0.0-6.0-3.70","3698969","co40159","norming","","","{""guess"":""""}","","../img/tt/112tt.jpg","",""
"null","../img/gs/112gs.jpg","null","reveal","image-keyboard-response","500","1317015","0.0-6.0-4.70","3698969","co40159","norming","","","","","","",""
"null","../img/tt/112tt.jpg","null","mooney2","image-keyboard-response","501","1319017","0.0-6.0-5.70","3698969","co40159","norming","","","","","","",""
"2777","","","post_reveal_questions","survey-likert","502","1321796","0.0-6.0-6.70","3698969","co40159","norming","","","{""aha"":5}","[0]","../img/tt/112tt.jpg","",""
"null","<div style=""font-size:60px;""> </div>","null","fixation","html-keyboard-response","503","1321999","0.0-6.0-0.71","3698969","co40159","norming","","","","","","",""
"null","../img/tt/358tt.jpg","null","mooney1","image-keyboard-response","504","1325002","0.0-6.0-1.71","3698969","co40159","norming","","","","","","",""
"4737","","","post_mooney1_questions","survey-likert","505","1329741","0.0-6.0-2.71","3698969","co40159","norming","","","{""curiosity"":5,""confidence"":3}","[0,1]","../img/tt/358tt.jpg","",""
"2343","","","recognition","survey-text","506","1332092","0.0-6.0-3.71","3698969","co40159","norming","","","{""guess"":""luipaarden""}","","../img/tt/358tt.jpg","",""
"null","../img/gs/358gs.jpg","null","reveal","image-keyboard-response","507","1334095","0.0-6.0-4.71","3698969","co40159","norming","","","","","","",""
"null","../img/tt/358tt.jpg","null","mooney2","image-keyboard-response","508","1336097","0.0-6.0-5.71","3698969","co40159","norming","","","","","","",""
"5316","","","post_reveal_questions","survey-likert","509","1341415","0.0-6.0-6.71","3698969","co40159","norming","","","{""aha"":3}","[0]","../img/tt/358tt.jpg","",""
"null","<div style=""font-size:60px;""> </div>","null","fixation","html-keyboard-response","510","1341618","0.0-6.0-0.72","3698969","co40159","norming","","","","","","",""
"null","../img/tt/1069tt.jpg","null","mooney1","image-keyboard-response","511","1344621","0.0-6.0-1.72","3698969","co40159","norming","","","","","","",""
"3107","","","post_mooney1_questions","survey-likert","512","1347729","0.0-6.0-2.72","3698969","co40159","norming","","","{""curiosity"":5,""confidence"":4}","[0,1]","../img/tt/1069tt.jpg","",""
"1259","","","recognition","survey-text","513","1348996","0.0-6.0-3.72","3698969","co40159","norming","","","{""guess"":""geiten""}","","../img/tt/1069tt.jpg","",""
"null","../img/gs/1069gs.jpg","null","reveal","image-keyboard-response","514","1350999","0.0-6.0-4.72","3698969","co40159","norming","","","","","","",""
"null","../img/tt/1069tt.jpg","null","mooney2","image-keyboard-response","515","1353001","0.0-6.0-5.72","3698969","co40159","norming","","","","","","",""
"1828.0000000002328","","","post_reveal_questions","survey-likert","516","1354831","0.0-6.0-6.72","3698969","co40159","norming","","","{""aha"":5}","[0]","../img/tt/1069tt.jpg","",""
"null","<div style=""font-size:60px;""> </div>","null","fixation","html-keyboard-response","517","1355035","0.0-6.0-0.73","3698969","co40159","norming","","","","","","",""
"null","../img/tt/353tt.jpg","null","mooney1","image-keyboard-response","518","1358037","0.0-6.0-1.73","3698969","co40159","norming","","","","","","",""
"2695.000000000233","","","post_mooney1_questions","survey-likert","519","1360735","0.0-6.0-2.73","3698969","co40159","norming","","","{""curiosity"":5,""confidence"":4}","[0,1]","../img/tt/353tt.jpg","",""
"1483","","","recognition","survey-text","520","1362227","0.0-6.0-3.73","3698969","co40159","norming","","","{""guess"":""kangoeroes""}","","../img/tt/353tt.jpg","",""
"null","../img/gs/353gs.jpg","null","reveal","image-keyboard-response","521","1364229","0.0-6.0-4.73","3698969","co40159","norming","","","","","","",""
"null","../img/tt/353tt.jpg","null","mooney2","image-keyboard-response","522","1366232","0.0-6.0-5.73","3698969","co40159","norming","","","","","","",""
"60040.00000000023","","","post_reveal_questions","survey-likert","523","1426276","0.0-6.0-6.73","3698969","co40159","norming","","","{""aha"":5}","[0]","../img/tt/353tt.jpg","",""
"null","<div style=""font-size:60px;""> </div>","null","fixation","html-keyboard-response","524","1426479","0.0-6.0-0.74","3698969","co40159","norming","","","","","","",""
"null","../img/tt/1202tt.jpg","null","mooney1","image-keyboard-response","525","1429482","0.0-6.0-1.74","3698969","co40159","norming","","","","","","",""
"7626","","","post_mooney1_questions","survey-likert","526","1437110","0.0-6.0-2.74","3698969","co40159","norming","","","{""curiosity"":5,""confidence"":0}","[0,1]","../img/tt/1202tt.jpg","",""
"1511","","","recognition","survey-text","527","1438629","0.0-6.0-3.74","3698969","co40159","norming","","","{""guess"":""""}","","../img/tt/1202tt.jpg","",""
"null","../img/gs/1202gs.jpg","null","reveal","image-keyboard-response","528","1440631","0.0-6.0-4.74","3698969","co40159","norming","","","","","","",""
"null","../img/tt/1202tt.jpg","null","mooney2","image-keyboard-response","529","1442634","0.0-6.0-5.74","3698969","co40159","norming","","","","","","",""
"1989","","","post_reveal_questions","survey-likert","530","1444624","0.0-6.0-6.74","3698969","co40159","norming","","","{""aha"":0}","[0]","../img/tt/1202tt.jpg","",""
"null","<div style=""font-size:60px;""> </div>","null","fixation","html-keyboard-response","531","1444828","0.0-6.0-0.75","3698969","co40159","norming","","","","","","",""
"null","../img/tt/044tt.jpg","null","mooney1","image-keyboard-response","532","1447830","0.0-6.0-1.75","3698969","co40159","norming","","","","","","",""
"3012","","","post_mooney1_questions","survey-likert","533","1450844","0.0-6.0-2.75","3698969","co40159","norming","","","{""curiosity"":5,""confidence"":2}","[0,1]","../img/tt/044tt.jpg","",""
"1459","","","recognition","survey-text","534","1452308","0.0-6.0-3.75","3698969","co40159","norming","","","{""guess"":""computer""}","","../img/tt/044tt.jpg","",""
"null","../img/gs/044gs.jpg","null","reveal","image-keyboard-response","535","1454310","0.0-6.0-4.75","3698969","co40159","norming","","","","","","",""
"null","../img/tt/044tt.jpg","null","mooney2","image-keyboard-response","536","1456313","0.0-6.0-5.75","3698969","co40159","norming","","","","","","",""
"4918.999999999767","","","post_reveal_questions","survey-likert","537","1461234","0.0-6.0-6.75","3698969","co40159","norming","","","{""aha"":2}","[0]","../img/tt/044tt.jpg","",""
"null","<div style=""font-size:60px;""> </div>","null","fixation","html-keyboard-response","538","1461438","0.0-6.0-0.76","3698969","co40159","norming","","","","","","",""
"null","../img/tt/1102tt.jpg","null","mooney1","image-keyboard-response","539","1464440","0.0-6.0-1.76","3698969","co40159","norming","","","","","","",""
"3667","","","post_mooney1_questions","survey-likert","540","1468110","0.0-6.0-2.76","3698969","co40159","norming","","","{""curiosity"":5,""confidence"":2}","[0,1]","../img/tt/1102tt.jpg","",""
"4456","","","recognition","survey-text","541","1472574","0.0-6.0-3.76","3698969","co40159","norming","","","{""guess"":""oversteekpunt vijver""}","","../img/tt/1102tt.jpg","",""
"null","../img/gs/1102gs.jpg","null","reveal","image-keyboard-response","542","1474576","0.0-6.0-4.76","3698969","co40159","norming","","","","","","",""
"null","../img/tt/1102tt.jpg","null","mooney2","image-keyboard-response","543","1476579","0.0-6.0-5.76","3698969","co40159","norming","","","","","","",""
"3060","","","post_reveal_questions","survey-likert","544","1479640","0.0-6.0-6.76","3698969","co40159","norming","","","{""aha"":1}","[0]","../img/tt/1102tt.jpg","",""
"null","<div style=""font-size:60px;""> </div>","null","fixation","html-keyboard-response","545","1479843","0.0-6.0-0.77","3698969","co40159","norming","","","","","","",""
"null","../img/tt/010tt.jpg","null","mooney1","image-keyboard-response","546","1482846","0.0-6.0-1.77","3698969","co40159","norming","","","","","","",""
"2535","","","post_mooney1_questions","survey-likert","547","1485384","0.0-6.0-2.77","3698969","co40159","norming","","","{""curiosity"":5,""confidence"":2}","[0,1]","../img/tt/010tt.jpg","",""
"3703.999999999767","","","recognition","survey-text","548","1489096","0.0-6.0-3.77","3698969","co40159","norming","","","{""guess"":""armworstelen""}","","../img/tt/010tt.jpg","",""
"null","../img/gs/010gs.jpg","null","reveal","image-keyboard-response","549","1491099","0.0-6.0-4.77","3698969","co40159","norming","","","","","","",""
"null","../img/tt/010tt.jpg","null","mooney2","image-keyboard-response","550","1493102","0.0-6.0-5.77","3698969","co40159","norming","","","","","","",""
"1696.9999999997672","","","post_reveal_questions","survey-likert","551","1494801","0.0-6.0-6.77","3698969","co40159","norming","","","{""aha"":0}","[0]","../img/tt/010tt.jpg","",""
"null","<div style=""font-size:60px;""> </div>","null","fixation","html-keyboard-response","552","1495005","0.0-6.0-0.78","3698969","co40159","norming","","","","","","",""
"null","../img/tt/055tt.jpg","null","mooney1","image-keyboard-response","553","1498007","0.0-6.0-1.78","3698969","co40159","norming","","","","","","",""
"3873.000000000233","","","post_mooney1_questions","survey-likert","554","1501883","0.0-6.0-2.78","3698969","co40159","norming","","","{""curiosity"":5,""confidence"":2}","[0,1]","../img/tt/055tt.jpg","",""
"1227","","","recognition","survey-text","555","1503117","0.0-6.0-3.78","3698969","co40159","norming","","","{""guess"":""zadel""}","","../img/tt/055tt.jpg","",""
"null","../img/gs/055gs.jpg","null","reveal","image-keyboard-response","556","1505119","0.0-6.0-4.78","3698969","co40159","norming","","","","","","",""
"null","../img/tt/055tt.jpg","null","mooney2","image-keyboard-response","557","1507121","0.0-6.0-5.78","3698969","co40159","norming","","","","","","",""
"2227","","","post_reveal_questions","survey-likert","558","1509350","0.0-6.0-6.78","3698969","co40159","norming","","","{""aha"":6}","[0]","../img/tt/055tt.jpg","",""
"null","<div style=""font-size:60px;""> </div>","null","fixation","html-keyboard-response","559","1509553","0.0-6.0-0.79","3698969","co40159","norming","","","","","","",""
"null","../img/tt/085tt.jpg","null","mooney1","image-keyboard-response","560","1512556","0.0-6.0-1.79","3698969","co40159","norming","","","","","","",""
"3267","","","post_mooney1_questions","survey-likert","561","1515825","0.0-6.0-2.79","3698969","co40159","norming","","","{""curiosity"":5,""confidence"":0}","[0,1]","../img/tt/085tt.jpg","",""
"656.0000000002328","","","recognition","survey-text","562","1516489","0.0-6.0-3.79","3698969","co40159","norming","","","{""guess"":""""}","","../img/tt/085tt.jpg","",""
"null","../img/gs/085gs.jpg","null","reveal","image-keyboard-response","563","1518491","0.0-6.0-4.79","3698969","co40159","norming","","","","","","",""
"null","../img/tt/085tt.jpg","null","mooney2","image-keyboard-response","564","1520494","0.0-6.0-5.79","3698969","co40159","norming","","","","","","",""
"1973","","","post_reveal_questions","survey-likert","565","1522469","0.0-6.0-6.79","3698969","co40159","norming","","","{""aha"":1}","[0]","../img/tt/085tt.jpg","",""
